in_color,Instructions_key.keys,Instructions_key.rt,Tutorial_instruction_key.keys,Tutorial_instruction_key.rt,Tutorial_fixation_ley.keys,Tutorial_fixation_ley.rt,Tutorial_single_img_key.keys,Tutorial_single_img_key.rt,Tutorial_intra_trial_fixation_key.keys,Tutorial_intra_trial_fixation_key.rt,Tutorial_stimulus_key.keys,Tutorial_stimulus_key.rt,Tutorial_response_key.keys,Tutorial_response_key.rt,Tutorial_attention_check_key.keys,Tutorial_attention_check_key.rt,advance_or_repeat.keys,advance_or_repeat.rt,Practice_instructions_key.keys,Practice_instructions_key.rt,intra_trial_duration,Practice_key_response.keys,Practice_key_response.rt,Practice_react_key.keys,Practice_react_key.rt,Practice_loop.thisRepN,Practice_loop.thisTrialN,Practice_loop.thisN,Practice_loop.thisIndex,Practice_loop.ran,multi_object_filepath,background_id,foreground_id,multi_object_rotation,occlusion_level,single_object_id,single_object_filepath,single_is_foreground_or_random,single_object_rotation,background_choice_id,alt_choice_id,background_option_filepath,alternative_option_filepath,alternative_is_foreground_or_random,location_of_correct_answer,multi_object_exp_filename,single_object_exp_filename,background_option_exp_filename,alternative_option_exp_filename,participant,session,date,expName,psychopyVersion,OS,frameRate,Practice_end_key.keys,Practice_end_key.rt,correct_answer,Input_selection.keys,Input_selection.rt,Was_attention_check,Attention_check.keys,Attention_check.corr,Each_session_loop.thisRepN,Each_session_loop.thisTrialN,Each_session_loop.thisN,Each_session_loop.thisIndex,Each_session_loop.ran,Attention_check.rt,Num_sessions.thisRepN,Num_sessions.thisTrialN,Num_sessions.thisN,Num_sessions.thisIndex,Num_sessions.ran
False,space,12.688,space,1.918,right,5.578,right,2.971,right,2.027,right,12.564,right,5.915,right,11.479,a,5.994,right,4.349,0.025,right,1.078,a,4.579,0.0,0.0,0.0,0.0,1.0,Stimuli/psy_fixed_rotation_30_objects_occ0.7_0.9s/images/train/n02818832_9/n02883344_-1/img_bed01_blue_woven_box_2012_gray.jpg,n02818832_9,n02883344_-1,fixed,0.772183,n03928116_10,Stimuli/psy_flexible_rotation_30_objects_occ0.7_0.9s/images/train/n04379243_-7/n03928116_10/img_quatre_dining_table_ydp_103_r_2012__vray_2004-3_gray.png,random,flexible,n02818832_9,n04256520_5,Stimuli/canonical view 2/img_n02818832_9_gray.jpg,Stimuli/canonical view 2/img_n04256520_5_gray.jpg,random,left,Experiments/experiment_9/1000.jpg,Experiments/experiment_9/1001.jpg,Experiments/experiment_9/1002.jpg,Experiments/experiment_9/1003.jpg,121,1,2023-06-28_14h18.57.156,Occlusion_Psychophysics,2022.1.4,Win32,239.2344498,,,,,,,,,,,,,,,,,,,
,,,,,,,,,,,,,,,,,,,,,0.025,,,,,,,,,,Stimuli/psy_flexible_rotation_30_objects_occ0.7_0.9s/images/train/n04256520_5/n04379243_-7/img_meridiani_belmondo_bench_sofa_quatre_dining_table_2001_gray.jpg,n04256520_5,n04379243_-7,flexible,0.897146,n04379243_-7,Stimuli/psy_flexible_rotation_30_objects_occ0.7_0.9s/images/train/n04256520_5/n04379243_-7/img_meridiani_belmondo_bench_sofa_quatre_dining_table_2001-3_gray.png,foreground,same as foreground,n04256520_5,n04405907_8,Stimuli/canonical view 2/img_n04256520_5_gray.jpg,Stimuli/canonical view 2/img_n04405907_8_gray.jpg,random,left,Experiments/experiment_9/0.jpg,Experiments/experiment_9/1.jpg,Experiments/experiment_9/2.jpg,Experiments/experiment_9/3.jpg,121,1,2023-06-28_14h18.57.156,Occlusion_Psychophysics,2022.1.4,Win32,239.2344498,right,1.474,left,"[""left""]",[1.8740000000000236],False,,0.0,0.0,0.0,0.0,0.0,1.0,,,,,,
,,,,,,,,,,,,,,,,,,,,,0.025,,,,,,,,,,Stimuli/psy_fixed_rotation_30_objects_occ0.7_0.9s/images/train/n03928116_10/n02933112_4/img_ydp_103_r_2012__vray_buffet_2011_gray.jpg,n03928116_10,n02933112_4,fixed,0.730159,n02933112_4,Stimuli/psy_fixed_rotation_30_objects_occ0.7_0.9s/images/train/n03928116_10/n02933112_4/img_ydp_103_r_2012__vray_buffet_2011-3_gray.png,foreground,same as foreground,n03928116_10,n02883344_-1,Stimuli/canonical view 2/img_n03928116_10_gray.jpg,Stimuli/canonical view 2/img_n02883344_-1_gray.jpg,random,right,Experiments/experiment_9/4.jpg,Experiments/experiment_9/5.jpg,Experiments/experiment_9/6.jpg,Experiments/experiment_9/7.jpg,121,1,2023-06-28_14h18.57.156,Occlusion_Psychophysics,2022.1.4,Win32,239.2344498,,,right,"[""right""]",[1.2100000000000364],False,,0.0,0.0,1.0,1.0,1.0,1.0,,,,,,
,,,,,,,,,,,,,,,,,,,,,0.05,,,,,,,,,,Stimuli/psy_flexible_rotation_30_objects_occ0.7_0.9s/images/train/n02818832_0/n02933112_4/img_b03_the_sofa_and_chair_company_-_stanley_bed_2014_buffet_2010_gray.jpg,n02818832_0,n02933112_4,flexible,0.749963,n02933112_4,Stimuli/psy_flexible_rotation_30_objects_occ0.7_0.9s/images/train/n02818832_0/n02933112_4/img_b03_the_sofa_and_chair_company_-_stanley_bed_2014_buffet_2010-3_gray.png,foreground,same as foreground,n02818832_0,n02828884_3,Stimuli/canonical view 2/img_n02818832_0_gray.jpg,Stimuli/canonical view 2/img_n02828884_3_gray.jpg,random,right,Experiments/experiment_9/8.jpg,Experiments/experiment_9/9.jpg,Experiments/experiment_9/10.jpg,Experiments/experiment_9/11.jpg,121,1,2023-06-28_14h18.57.156,Occlusion_Psychophysics,2022.1.4,Win32,239.2344498,,,left,"[""left""]",[1.6879999999999882],False,,0.0,0.0,2.0,2.0,2.0,1.0,,,,,,
,,,,,,,,,,,,,,,,,,,,,0.025,,,,,,,,,,Stimuli/psy_flexible_rotation_30_objects_occ0.7_0.9s/images/train/n02883344_-1/n04256520_4/img_woven_box_club_house_italia_nautilus_sofa_2004_gray.jpg,n02883344_-1,n04256520_4,flexible,0.849144,n04256520_4,Stimuli/psy_flexible_rotation_30_objects_occ0.7_0.9s/images/train/n02883344_-1/n04256520_4/img_woven_box_club_house_italia_nautilus_sofa_2004-3_gray.png,foreground,same as foreground,n02883344_-1,n04256520_9,Stimuli/canonical view 2/img_n02883344_-1_gray.jpg,Stimuli/canonical view 2/img_n04256520_9_gray.jpg,random,right,Experiments/experiment_9/12.jpg,Experiments/experiment_9/13.jpg,Experiments/experiment_9/14.jpg,Experiments/experiment_9/15.jpg,121,1,2023-06-28_14h18.57.156,Occlusion_Psychophysics,2022.1.4,Win32,239.2344498,,,left,"[""left""]",[1.5400000000000205],False,,0.0,0.0,3.0,3.0,3.0,1.0,,,,,,
,,,,,,,,,,,,,,,,,,,,,0.05,,,,,,,,,,Stimuli/psy_fixed_rotation_30_objects_occ0.7_0.9s/images/train/n03001627_8/n04405907_5/img_chair_billiani_doll_samsung_40_uhd_smart_tv_2011_2014_gray.jpg,n03001627_8,n04405907_5,fixed,0.740277,n02818832_0,Stimuli/psy_flexible_rotation_30_objects_occ0.7_0.9s/images/train/n03928116_4/n02818832_0/img_dp_33_b_2013__vray_b03_the_sofa_and_chair_company_-_stanley_bed_2014_2011-3_gray.png,random,flexible,n03001627_8,n04405907_5,Stimuli/canonical view 2/img_n03001627_8_gray.jpg,Stimuli/canonical view 2/img_n04405907_5_gray.jpg,foreground,right,Experiments/experiment_9/16.jpg,Experiments/experiment_9/17.jpg,Experiments/experiment_9/18.jpg,Experiments/experiment_9/19.jpg,121,1,2023-06-28_14h18.57.156,Occlusion_Psychophysics,2022.1.4,Win32,239.2344498,,,right,"[""left""]",[1.8129999999999882],True,right,1.0,0.0,4.0,4.0,4.0,1.0,1.272,,,,,
,,,,,,,,,,,,,,,,,,,,,0.025,,,,,,,,,,Stimuli/psy_fixed_rotation_30_objects_occ0.7_0.9s/images/train/n02883344_15/n02818832_9/img_microwave_box_bed01_blue_2003_gray.jpg,n02883344_15,n02818832_9,fixed,0.814967,n03928116_10,Stimuli/psy_flexible_rotation_30_objects_occ0.7_0.9s/images/train/n02828884_3/n03928116_10/img_b04_wood_metal_park_bench_ydp_103_r_2012__vray_2010-3_gray.png,random,flexible,n02883344_15,n02818832_9,Stimuli/canonical view 2/img_n02883344_15_gray.jpg,Stimuli/canonical view 2/img_n02818832_9_gray.jpg,foreground,right,Experiments/experiment_9/20.jpg,Experiments/experiment_9/21.jpg,Experiments/experiment_9/22.jpg,Experiments/experiment_9/23.jpg,121,1,2023-06-28_14h18.57.156,Occlusion_Psychophysics,2022.1.4,Win32,239.2344498,,,left,"[""right""]",[0.7110000000000127],False,,0.0,0.0,5.0,5.0,5.0,1.0,,,,,,
,,,,,,,,,,,,,,,,,,,,,0.025,,,,,,,,,,Stimuli/psy_fixed_rotation_30_objects_occ0.7_0.9s/images/train/n04256520_9/n04405907_8/img_napoleon_iii_sofa_stylized_tv_2003_gray.jpg,n04256520_9,n04405907_8,fixed,0.756381,n03928116_0,Stimuli/psy_fixed_rotation_30_objects_occ0.7_0.9s/images/train/n02883344_0/n03928116_0/img_b03_box_b02_piano_2007-3_gray.png,random,fixed,n04256520_9,n04405907_8,Stimuli/canonical view 2/img_n04256520_9_gray.jpg,Stimuli/canonical view 2/img_n04405907_8_gray.jpg,foreground,left,Experiments/experiment_9/24.jpg,Experiments/experiment_9/25.jpg,Experiments/experiment_9/26.jpg,Experiments/experiment_9/27.jpg,121,1,2023-06-28_14h18.57.156,Occlusion_Psychophysics,2022.1.4,Win32,239.2344498,,,right,"[""right""]",[0.992999999999995],False,,0.0,0.0,6.0,6.0,6.0,1.0,,,,,,
,,,,,,,,,,,,,,,,,,,,,0.025,,,,,,,,,,Stimuli/psy_flexible_rotation_30_objects_occ0.7_0.9s/images/train/n03001627_9/n03928116_10/img_chair_eames_plastic_armchair_ydp_103_r_2012__vray_2015_gray.jpg,n03001627_9,n03928116_10,flexible,0.810623,n02818832_9,Stimuli/psy_fixed_rotation_30_objects_occ0.7_0.9s/images/train/n03928116_10/n02818832_9/img_ydp_103_r_2012__vray_bed01_blue_2015-3_gray.png,random,fixed,n03001627_9,n03928116_10,Stimuli/canonical view 2/img_n03001627_9_gray.jpg,Stimuli/canonical view 2/img_n03928116_10_gray.jpg,foreground,left,Experiments/experiment_9/28.jpg,Experiments/experiment_9/29.jpg,Experiments/experiment_9/30.jpg,Experiments/experiment_9/31.jpg,121,1,2023-06-28_14h18.57.156,Occlusion_Psychophysics,2022.1.4,Win32,239.2344498,,,left,"[""right""]",[1.136000000000024],False,,0.0,0.0,7.0,7.0,7.0,1.0,,,,,,
,,,,,,,,,,,,,,,,,,,,,0.025,,,,,,,,,,Stimuli/psy_fixed_rotation_30_objects_occ0.7_0.9s/images/train/n02818832_0/n04256520_9/img_b03_the_sofa_and_chair_company_-_stanley_bed_2014_napoleon_iii_sofa_2009_gray.jpg,n02818832_0,n04256520_9,fixed,0.803458,n03928116_10,Stimuli/psy_flexible_rotation_30_objects_occ0.7_0.9s/images/train/n04405907_8/n03928116_10/img_stylized_tv_ydp_103_r_2012__vray_2012-3_gray.png,random,flexible,n02818832_0,n02828884_4,Stimuli/canonical view 2/img_n02818832_0_gray.jpg,Stimuli/canonical view 2/img_n02828884_4_gray.jpg,random,left,Experiments/experiment_9/32.jpg,Experiments/experiment_9/33.jpg,Experiments/experiment_9/34.jpg,Experiments/experiment_9/35.jpg,121,1,2023-06-28_14h18.57.156,Occlusion_Psychophysics,2022.1.4,Win32,239.2344498,,,left,"[""left""]",[1.5980000000000132],False,,0.0,0.0,8.0,8.0,8.0,1.0,,,,,,
,,,,,,,,,,,,,,,,,,,,,0.05,,,,,,,,,,Stimuli/psy_fixed_rotation_30_objects_occ0.7_0.9s/images/train/n04405907_5/n03928116_0/img_samsung_40_uhd_smart_tv_2011_b02_piano_2012_gray.jpg,n04405907_5,n03928116_0,fixed,0.758205,n03928116_0,Stimuli/psy_fixed_rotation_30_objects_occ0.7_0.9s/images/train/n04405907_5/n03928116_0/img_samsung_40_uhd_smart_tv_2011_b02_piano_2012-3_gray.png,foreground,same as foreground,n04405907_5,n04379243_0,Stimuli/canonical view 2/img_n04405907_5_gray.jpg,Stimuli/canonical view 2/img_n04379243_0_gray.jpg,random,right,Experiments/experiment_9/36.jpg,Experiments/experiment_9/37.jpg,Experiments/experiment_9/38.jpg,Experiments/experiment_9/39.jpg,121,1,2023-06-28_14h18.57.156,Occlusion_Psychophysics,2022.1.4,Win32,239.2344498,,,right,"[""left""]",[1.0409999999999968],True,right,1.0,0.0,9.0,9.0,9.0,1.0,0.892,,,,,
,,,,,,,,,,,,,,,,,,,,,0.025,,,,,,,,,,Stimuli/psy_flexible_rotation_30_objects_occ0.7_0.9s/images/train/n04256520_5/n04405907_5/img_meridiani_belmondo_bench_sofa_samsung_40_uhd_smart_tv_2011_2015_gray.jpg,n04256520_5,n04405907_5,flexible,0.806719,n04405907_5,Stimuli/psy_flexible_rotation_30_objects_occ0.7_0.9s/images/train/n04256520_5/n04405907_5/img_meridiani_belmondo_bench_sofa_samsung_40_uhd_smart_tv_2011_2015-3_gray.png,foreground,same as foreground,n04256520_5,n04405907_9,Stimuli/canonical view 2/img_n04256520_5_gray.jpg,Stimuli/canonical view 2/img_n04405907_9_gray.jpg,random,left,Experiments/experiment_9/40.jpg,Experiments/experiment_9/41.jpg,Experiments/experiment_9/42.jpg,Experiments/experiment_9/43.jpg,121,1,2023-06-28_14h18.57.156,Occlusion_Psychophysics,2022.1.4,Win32,239.2344498,,,right,"[""right""]",[1.5600000000000023],False,,0.0,0.0,10.0,10.0,10.0,1.0,,,,,,
,,,,,,,,,,,,,,,,,,,,,0.025,,,,,,,,,,Stimuli/psy_fixed_rotation_30_objects_occ0.7_0.9s/images/train/n02828884_9/n04379243_0/img_cr-96_bench_17th_c._monastery_dining_table_2010_2000_gray.jpg,n02828884_9,n04379243_0,fixed,0.736777,n04256520_4,Stimuli/psy_flexible_rotation_30_objects_occ0.7_0.9s/images/train/n02818832_9/n04256520_4/img_bed01_blue_club_house_italia_nautilus_sofa_2004-3_gray.png,random,flexible,n02828884_9,n04379243_0,Stimuli/canonical view 2/img_n02828884_9_gray.jpg,Stimuli/canonical view 2/img_n04379243_0_gray.jpg,foreground,right,Experiments/experiment_9/44.jpg,Experiments/experiment_9/45.jpg,Experiments/experiment_9/46.jpg,Experiments/experiment_9/47.jpg,121,1,2023-06-28_14h18.57.156,Occlusion_Psychophysics,2022.1.4,Win32,239.2344498,,,left,"[""left""]",[1.4350000000000023],False,,0.0,0.0,11.0,11.0,11.0,1.0,,,,,,
,,,,,,,,,,,,,,,,,,,,,0.05,,,,,,,,,,Stimuli/psy_fixed_rotation_30_objects_occ0.7_0.9s/images/train/n02933112_-2/n02818832_9/img_sink_base_white_wood_bed01_blue_2004_gray.jpg,n02933112_-2,n02818832_9,fixed,0.797507,n04256520_5,Stimuli/psy_fixed_rotation_30_objects_occ0.7_0.9s/images/train/n04379243_8/n04256520_5/img_glass_table_meridiani_belmondo_bench_sofa_2002-3_gray.png,random,fixed,n02933112_-2,n02818832_9,Stimuli/canonical view 2/img_n02933112_-2_gray.jpg,Stimuli/canonical view 2/img_n02818832_9_gray.jpg,foreground,right,Experiments/experiment_9/48.jpg,Experiments/experiment_9/49.jpg,Experiments/experiment_9/50.jpg,Experiments/experiment_9/51.jpg,121,1,2023-06-28_14h18.57.156,Occlusion_Psychophysics,2022.1.4,Win32,239.2344498,,,right,"[""right""]",[1.0740000000000123],False,,0.0,0.0,12.0,12.0,12.0,1.0,,,,,,
,,,,,,,,,,,,,,,,,,,,,0.025,,,,,,,,,,Stimuli/psy_flexible_rotation_30_objects_occ0.7_0.9s/images/train/n04405907_5/n03928116_10/img_samsung_40_uhd_smart_tv_2011_ydp_103_r_2012__vray_2003_gray.jpg,n04405907_5,n03928116_10,flexible,0.756446,n03928116_10,Stimuli/psy_flexible_rotation_30_objects_occ0.7_0.9s/images/train/n04405907_5/n03928116_10/img_samsung_40_uhd_smart_tv_2011_ydp_103_r_2012__vray_2003-3_gray.png,foreground,same as foreground,n04405907_5,n03928116_10,Stimuli/canonical view 2/img_n04405907_5_gray.jpg,Stimuli/canonical view 2/img_n03928116_10_gray.jpg,foreground,left,Experiments/experiment_9/52.jpg,Experiments/experiment_9/53.jpg,Experiments/experiment_9/54.jpg,Experiments/experiment_9/55.jpg,121,1,2023-06-28_14h18.57.156,Occlusion_Psychophysics,2022.1.4,Win32,239.2344498,,,right,"[""right""]",[1.502999999999986],False,,0.0,0.0,13.0,13.0,13.0,1.0,,,,,,
,,,,,,,,,,,,,,,,,,,,,0.025,,,,,,,,,,Stimuli/psy_fixed_rotation_30_objects_occ0.7_0.9s/images/train/n02883344_-1/n03928116_0/img_woven_box_b02_piano_2011_gray.jpg,n02883344_-1,n03928116_0,fixed,0.803337,n04379243_0,Stimuli/psy_fixed_rotation_30_objects_occ0.7_0.9s/images/train/n02933112_-18/n04379243_0/img_cgaxis_models_48_26_vray_composite_17th_c._monastery_dining_table_2010_2003-3_gray.png,random,fixed,n02883344_-1,n03001627_8,Stimuli/canonical view 2/img_n02883344_-1_gray.jpg,Stimuli/canonical view 2/img_n03001627_8_gray.jpg,random,right,Experiments/experiment_9/56.jpg,Experiments/experiment_9/57.jpg,Experiments/experiment_9/58.jpg,Experiments/experiment_9/59.jpg,121,1,2023-06-28_14h18.57.156,Occlusion_Psychophysics,2022.1.4,Win32,239.2344498,,,right,"[""right""]",[1.0049999999999955],False,,0.0,0.0,14.0,14.0,14.0,1.0,,,,,,
,,,,,,,,,,,,,,,,,,,,,0.05,,,,,,,,,,Stimuli/psy_fixed_rotation_30_objects_occ0.7_0.9s/images/train/n02818832_3/n02933112_4/img_b05_ccm_contemporary_bed_max2013_buffet_2014_gray.jpg,n02818832_3,n02933112_4,fixed,0.701446,n02883344_0,Stimuli/psy_flexible_rotation_30_objects_occ0.7_0.9s/images/train/n04256520_9/n02883344_0/img_napoleon_iii_sofa_b03_box_2007-3_gray.png,random,flexible,n02818832_3,n02933112_4,Stimuli/canonical view 2/img_n02818832_3_gray.jpg,Stimuli/canonical view 2/img_n02933112_4_gray.jpg,foreground,left,Experiments/experiment_9/60.jpg,Experiments/experiment_9/61.jpg,Experiments/experiment_9/62.jpg,Experiments/experiment_9/63.jpg,121,1,2023-06-28_14h18.57.156,Occlusion_Psychophysics,2022.1.4,Win32,239.2344498,,,right,"[""left""]",[0.9989999999999668],False,,0.0,0.0,15.0,15.0,15.0,1.0,,,,,,
,,,,,,,,,,,,,,,,,,,,,0.025,,,,,,,,,,Stimuli/psy_flexible_rotation_30_objects_occ0.7_0.9s/images/train/n04256520_9/n02828884_3/img_napoleon_iii_sofa_b04_wood_metal_park_bench_2012_gray.jpg,n04256520_9,n02828884_3,flexible,0.850822,n02828884_3,Stimuli/psy_flexible_rotation_30_objects_occ0.7_0.9s/images/train/n04256520_9/n02828884_3/img_napoleon_iii_sofa_b04_wood_metal_park_bench_2012-3_gray.png,foreground,same as foreground,n04256520_9,n02883344_15,Stimuli/canonical view 2/img_n04256520_9_gray.jpg,Stimuli/canonical view 2/img_n02883344_15_gray.jpg,random,right,Experiments/experiment_9/64.jpg,Experiments/experiment_9/65.jpg,Experiments/experiment_9/66.jpg,Experiments/experiment_9/67.jpg,121,1,2023-06-28_14h18.57.156,Occlusion_Psychophysics,2022.1.4,Win32,239.2344498,,,left,"[""right""]",[1.106999999999971],False,,0.0,0.0,16.0,16.0,16.0,1.0,,,,,,
,,,,,,,,,,,,,,,,,,,,,0.05,,,,,,,,,,Stimuli/psy_fixed_rotation_30_objects_occ0.7_0.9s/images/train/n02818832_9/n04379243_-7/img_bed01_blue_quatre_dining_table_2004_gray.jpg,n02818832_9,n04379243_-7,fixed,0.80014,n04379243_-7,Stimuli/psy_fixed_rotation_30_objects_occ0.7_0.9s/images/train/n02818832_9/n04379243_-7/img_bed01_blue_quatre_dining_table_2004-3_gray.png,foreground,same as foreground,n02818832_9,n02828884_4,Stimuli/canonical view 2/img_n02818832_9_gray.jpg,Stimuli/canonical view 2/img_n02828884_4_gray.jpg,random,right,Experiments/experiment_9/68.jpg,Experiments/experiment_9/69.jpg,Experiments/experiment_9/70.jpg,Experiments/experiment_9/71.jpg,121,1,2023-06-28_14h18.57.156,Occlusion_Psychophysics,2022.1.4,Win32,239.2344498,,,left,"[""left""]",[1.407000000000039],False,,0.0,0.0,17.0,17.0,17.0,1.0,,,,,,
,,,,,,,,,,,,,,,,,,,,,0.025,,,,,,,,,,Stimuli/psy_flexible_rotation_30_objects_occ0.7_0.9s/images/train/n04405907_8/n02818832_0/img_stylized_tv_b03_the_sofa_and_chair_company_-_stanley_bed_2014_2009_gray.jpg,n04405907_8,n02818832_0,flexible,0.747385,n02818832_0,Stimuli/psy_flexible_rotation_30_objects_occ0.7_0.9s/images/train/n04405907_8/n02818832_0/img_stylized_tv_b03_the_sofa_and_chair_company_-_stanley_bed_2014_2009-3_gray.png,foreground,same as foreground,n04405907_8,n02818832_0,Stimuli/canonical view 2/img_n04405907_8_gray.jpg,Stimuli/canonical view 2/img_n02818832_0_gray.jpg,foreground,right,Experiments/experiment_9/72.jpg,Experiments/experiment_9/73.jpg,Experiments/experiment_9/74.jpg,Experiments/experiment_9/75.jpg,121,1,2023-06-28_14h18.57.156,Occlusion_Psychophysics,2022.1.4,Win32,239.2344498,,,left,"[""left""]",[1.044999999999959],False,,0.0,0.0,18.0,18.0,18.0,1.0,,,,,,
,,,,,,,,,,,,,,,,,,,,,0.025,,,,,,,,,,Stimuli/psy_flexible_rotation_30_objects_occ0.7_0.9s/images/train/n02828884_4/n02883344_-1/img_b05_c-5_classic_series_bench-2012_woven_box_2008_gray.jpg,n02828884_4,n02883344_-1,flexible,0.817592,n02883344_-1,Stimuli/psy_flexible_rotation_30_objects_occ0.7_0.9s/images/train/n02828884_4/n02883344_-1/img_b05_c-5_classic_series_bench-2012_woven_box_2008-3_gray.png,foreground,same as foreground,n02828884_4,n04379243_0,Stimuli/canonical view 2/img_n02828884_4_gray.jpg,Stimuli/canonical view 2/img_n04379243_0_gray.jpg,random,right,Experiments/experiment_9/76.jpg,Experiments/experiment_9/77.jpg,Experiments/experiment_9/78.jpg,Experiments/experiment_9/79.jpg,121,1,2023-06-28_14h18.57.156,Occlusion_Psychophysics,2022.1.4,Win32,239.2344498,,,left,"[""right""]",[0.7280000000000086],False,,0.0,0.0,19.0,19.0,19.0,1.0,,,,,,
,,,,,,,,,,,,,,,,,,,,,0.025,,,,,,,,,,Stimuli/psy_flexible_rotation_30_objects_occ0.7_0.9s/images/train/n04379243_8/n03928116_10/img_glass_table_ydp_103_r_2012__vray_2005_gray.jpg,n04379243_8,n03928116_10,flexible,0.722351,n03928116_10,Stimuli/psy_flexible_rotation_30_objects_occ0.7_0.9s/images/train/n04379243_8/n03928116_10/img_glass_table_ydp_103_r_2012__vray_2005-3_gray.png,foreground,same as foreground,n04379243_8,n03928116_10,Stimuli/canonical view 2/img_n04379243_8_gray.jpg,Stimuli/canonical view 2/img_n03928116_10_gray.jpg,foreground,right,Experiments/experiment_9/80.jpg,Experiments/experiment_9/81.jpg,Experiments/experiment_9/82.jpg,Experiments/experiment_9/83.jpg,121,1,2023-06-28_14h18.57.156,Occlusion_Psychophysics,2022.1.4,Win32,239.2344498,,,right,"[""left""]",[1.0919999999999845],False,,0.0,0.0,20.0,20.0,20.0,1.0,,,,,,
,,,,,,,,,,,,,,,,,,,,,0.05,,,,,,,,,,Stimuli/psy_flexible_rotation_30_objects_occ0.7_0.9s/images/train/n04405907_8/n04379243_0/img_stylized_tv_17th_c._monastery_dining_table_2010_2005_gray.jpg,n04405907_8,n04379243_0,flexible,0.700457,n02933112_-2,Stimuli/psy_flexible_rotation_30_objects_occ0.7_0.9s/images/train/n03928116_4/n02933112_-2/img_dp_33_b_2013__vray_sink_base_white_wood_2009-3_gray.png,random,flexible,n04405907_8,n04379243_0,Stimuli/canonical view 2/img_n04405907_8_gray.jpg,Stimuli/canonical view 2/img_n04379243_0_gray.jpg,foreground,right,Experiments/experiment_9/84.jpg,Experiments/experiment_9/85.jpg,Experiments/experiment_9/86.jpg,Experiments/experiment_9/87.jpg,121,1,2023-06-28_14h18.57.156,Occlusion_Psychophysics,2022.1.4,Win32,239.2344498,,,right,"[""right""]",[0.7100000000000364],False,,0.0,0.0,21.0,21.0,21.0,1.0,,,,,,
,,,,,,,,,,,,,,,,,,,,,0.025,,,,,,,,,,Stimuli/psy_flexible_rotation_30_objects_occ0.7_0.9s/images/train/n03001627_9/n04256520_9/img_chair_eames_plastic_armchair_napoleon_iii_sofa_2008_gray.jpg,n03001627_9,n04256520_9,flexible,0.761672,n04256520_9,Stimuli/psy_flexible_rotation_30_objects_occ0.7_0.9s/images/train/n03001627_9/n04256520_9/img_chair_eames_plastic_armchair_napoleon_iii_sofa_2008-3_gray.png,foreground,same as foreground,n03001627_9,n04256520_9,Stimuli/canonical view 2/img_n03001627_9_gray.jpg,Stimuli/canonical view 2/img_n04256520_9_gray.jpg,foreground,left,Experiments/experiment_9/88.jpg,Experiments/experiment_9/89.jpg,Experiments/experiment_9/90.jpg,Experiments/experiment_9/91.jpg,121,1,2023-06-28_14h18.57.156,Occlusion_Psychophysics,2022.1.4,Win32,239.2344498,,,right,"[""left""]",[0.7819999999999823],False,,0.0,0.0,22.0,22.0,22.0,1.0,,,,,,
,,,,,,,,,,,,,,,,,,,,,0.05,,,,,,,,,,Stimuli/psy_fixed_rotation_30_objects_occ0.7_0.9s/images/train/n04256520_9/n03928116_4/img_napoleon_iii_sofa_dp_33_b_2013__vray_2007_gray.jpg,n04256520_9,n03928116_4,fixed,0.739255,n03928116_4,Stimuli/psy_fixed_rotation_30_objects_occ0.7_0.9s/images/train/n04256520_9/n03928116_4/img_napoleon_iii_sofa_dp_33_b_2013__vray_2007-3_gray.png,foreground,same as foreground,n04256520_9,n02933112_-2,Stimuli/canonical view 2/img_n04256520_9_gray.jpg,Stimuli/canonical view 2/img_n02933112_-2_gray.jpg,random,right,Experiments/experiment_9/92.jpg,Experiments/experiment_9/93.jpg,Experiments/experiment_9/94.jpg,Experiments/experiment_9/95.jpg,121,1,2023-06-28_14h18.57.156,Occlusion_Psychophysics,2022.1.4,Win32,239.2344498,,,right,"[""right""]",[1.0850000000000364],False,,0.0,0.0,23.0,23.0,23.0,1.0,,,,,,
,,,,,,,,,,,,,,,,,,,,,0.05,,,,,,,,,,Stimuli/psy_flexible_rotation_30_objects_occ0.7_0.9s/images/train/n04405907_5/n04256520_4/img_samsung_40_uhd_smart_tv_2011_club_house_italia_nautilus_sofa_2003_gray.jpg,n04405907_5,n04256520_4,flexible,0.796807,n02883344_0,Stimuli/psy_flexible_rotation_30_objects_occ0.7_0.9s/images/train/n04379243_8/n02883344_0/img_glass_table_b03_box_2015-3_gray.png,random,flexible,n04405907_5,n02828884_3,Stimuli/canonical view 2/img_n04405907_5_gray.jpg,Stimuli/canonical view 2/img_n02828884_3_gray.jpg,random,right,Experiments/experiment_9/96.jpg,Experiments/experiment_9/97.jpg,Experiments/experiment_9/98.jpg,Experiments/experiment_9/99.jpg,121,1,2023-06-28_14h18.57.156,Occlusion_Psychophysics,2022.1.4,Win32,239.2344498,,,left,"[""left""]",[0.7459999999999809],False,,0.0,0.0,24.0,24.0,24.0,1.0,,,,,,
,,,,,,,,,,,,,,,,,,,,,0.05,,,,,,,,,,Stimuli/psy_flexible_rotation_30_objects_occ0.7_0.9s/images/train/n02818832_3/n04256520_4/img_b05_ccm_contemporary_bed_max2013_club_house_italia_nautilus_sofa_2001_gray.jpg,n02818832_3,n04256520_4,flexible,0.757225,n04379243_-7,Stimuli/psy_flexible_rotation_30_objects_occ0.7_0.9s/images/train/n03928116_4/n04379243_-7/img_dp_33_b_2013__vray_quatre_dining_table_2001-3_gray.png,random,flexible,n02818832_3,n04256520_4,Stimuli/canonical view 2/img_n02818832_3_gray.jpg,Stimuli/canonical view 2/img_n04256520_4_gray.jpg,foreground,right,Experiments/experiment_9/100.jpg,Experiments/experiment_9/101.jpg,Experiments/experiment_9/102.jpg,Experiments/experiment_9/103.jpg,121,1,2023-06-28_14h18.57.156,Occlusion_Psychophysics,2022.1.4,Win32,239.2344498,,,right,"[""right""]",[1.9700000000000273],False,,0.0,0.0,25.0,25.0,25.0,1.0,,,,,,
,,,,,,,,,,,,,,,,,,,,,0.025,,,,,,,,,,Stimuli/psy_flexible_rotation_30_objects_occ0.7_0.9s/images/train/n02933112_-18/n04405907_5/img_cgaxis_models_48_26_vray_composite_samsung_40_uhd_smart_tv_2011_2014_gray.jpg,n02933112_-18,n04405907_5,flexible,0.773511,n04405907_5,Stimuli/psy_flexible_rotation_30_objects_occ0.7_0.9s/images/train/n02933112_-18/n04405907_5/img_cgaxis_models_48_26_vray_composite_samsung_40_uhd_smart_tv_2011_2014-3_gray.png,foreground,same as foreground,n02933112_-18,n02828884_9,Stimuli/canonical view 2/img_n02933112_-18_gray.jpg,Stimuli/canonical view 2/img_n02828884_9_gray.jpg,random,right,Experiments/experiment_9/104.jpg,Experiments/experiment_9/105.jpg,Experiments/experiment_9/106.jpg,Experiments/experiment_9/107.jpg,121,1,2023-06-28_14h18.57.156,Occlusion_Psychophysics,2022.1.4,Win32,239.2344498,,,left,"[""left""]",[0.97199999999998],False,,0.0,0.0,26.0,26.0,26.0,1.0,,,,,,
,,,,,,,,,,,,,,,,,,,,,0.025,,,,,,,,,,Stimuli/psy_flexible_rotation_30_objects_occ0.7_0.9s/images/train/n03928116_0/n04405907_9/img_b02_piano_vray_004_2004_gray.jpg,n03928116_0,n04405907_9,flexible,0.731925,n04405907_9,Stimuli/psy_flexible_rotation_30_objects_occ0.7_0.9s/images/train/n03928116_0/n04405907_9/img_b02_piano_vray_004_2004-3_gray.png,foreground,same as foreground,n03928116_0,n03928116_10,Stimuli/canonical view 2/img_n03928116_0_gray.jpg,Stimuli/canonical view 2/img_n03928116_10_gray.jpg,random,right,Experiments/experiment_9/108.jpg,Experiments/experiment_9/109.jpg,Experiments/experiment_9/110.jpg,Experiments/experiment_9/111.jpg,121,1,2023-06-28_14h18.57.156,Occlusion_Psychophysics,2022.1.4,Win32,239.2344498,,,right,"[""right""]",[0.7270000000000323],False,,0.0,0.0,27.0,27.0,27.0,1.0,,,,,,
,,,,,,,,,,,,,,,,,,,,,0.05,,,,,,,,,,Stimuli/psy_flexible_rotation_30_objects_occ0.7_0.9s/images/train/n02828884_4/n04405907_8/img_b05_c-5_classic_series_bench-2012_stylized_tv_2004_gray.jpg,n02828884_4,n04405907_8,flexible,0.709959,n04405907_8,Stimuli/psy_flexible_rotation_30_objects_occ0.7_0.9s/images/train/n02828884_4/n04405907_8/img_b05_c-5_classic_series_bench-2012_stylized_tv_2004-3_gray.png,foreground,same as foreground,n02828884_4,n02933112_-2,Stimuli/canonical view 2/img_n02828884_4_gray.jpg,Stimuli/canonical view 2/img_n02933112_-2_gray.jpg,random,left,Experiments/experiment_9/112.jpg,Experiments/experiment_9/113.jpg,Experiments/experiment_9/114.jpg,Experiments/experiment_9/115.jpg,121,1,2023-06-28_14h18.57.156,Occlusion_Psychophysics,2022.1.4,Win32,239.2344498,,,left,"[""left""]",[0.5169999999999959],False,,0.0,0.0,28.0,28.0,28.0,1.0,,,,,,
,,,,,,,,,,,,,,,,,,,,,0.025,,,,,,,,,,Stimuli/psy_flexible_rotation_30_objects_occ0.7_0.9s/images/train/n02828884_3/n04405907_5/img_b04_wood_metal_park_bench_samsung_40_uhd_smart_tv_2011_2007_gray.jpg,n02828884_3,n04405907_5,flexible,0.723388,n04405907_8,Stimuli/psy_flexible_rotation_30_objects_occ0.7_0.9s/images/train/n04256520_5/n04405907_8/img_meridiani_belmondo_bench_sofa_stylized_tv_2014-3_gray.png,random,flexible,n02828884_3,n04405907_5,Stimuli/canonical view 2/img_n02828884_3_gray.jpg,Stimuli/canonical view 2/img_n04405907_5_gray.jpg,foreground,right,Experiments/experiment_9/116.jpg,Experiments/experiment_9/117.jpg,Experiments/experiment_9/118.jpg,Experiments/experiment_9/119.jpg,121,1,2023-06-28_14h18.57.156,Occlusion_Psychophysics,2022.1.4,Win32,239.2344498,,,right,"[""left""]",[0.9300000000000068],False,,0.0,0.0,29.0,29.0,29.0,1.0,,,,,,
,,,,,,,,,,,,,,,,,,,,,0.025,,,,,,,,,,Stimuli/psy_flexible_rotation_30_objects_occ0.7_0.9s/images/train/n02933112_4/n04379243_-7/img_buffet_quatre_dining_table_2006_gray.jpg,n02933112_4,n04379243_-7,flexible,0.715187,n04379243_-7,Stimuli/psy_flexible_rotation_30_objects_occ0.7_0.9s/images/train/n02933112_4/n04379243_-7/img_buffet_quatre_dining_table_2006-3_gray.png,foreground,same as foreground,n02933112_4,n02933112_-2,Stimuli/canonical view 2/img_n02933112_4_gray.jpg,Stimuli/canonical view 2/img_n02933112_-2_gray.jpg,random,left,Experiments/experiment_9/120.jpg,Experiments/experiment_9/121.jpg,Experiments/experiment_9/122.jpg,Experiments/experiment_9/123.jpg,121,1,2023-06-28_14h18.57.156,Occlusion_Psychophysics,2022.1.4,Win32,239.2344498,,,left,"[""left""]",[1.6620000000000346],False,,0.0,0.0,30.0,30.0,30.0,1.0,,,,,,
,,,,,,,,,,,,,,,,,,,,,0.05,,,,,,,,,,Stimuli/psy_flexible_rotation_30_objects_occ0.7_0.9s/images/train/n02933112_-18/n04405907_5/img_cgaxis_models_48_26_vray_composite_samsung_40_uhd_smart_tv_2011_2005_gray.jpg,n02933112_-18,n04405907_5,flexible,0.843312,n04405907_5,Stimuli/psy_flexible_rotation_30_objects_occ0.7_0.9s/images/train/n02933112_-18/n04405907_5/img_cgaxis_models_48_26_vray_composite_samsung_40_uhd_smart_tv_2011_2005-3_gray.png,foreground,same as foreground,n02933112_-18,n03001627_8,Stimuli/canonical view 2/img_n02933112_-18_gray.jpg,Stimuli/canonical view 2/img_n03001627_8_gray.jpg,random,right,Experiments/experiment_9/124.jpg,Experiments/experiment_9/125.jpg,Experiments/experiment_9/126.jpg,Experiments/experiment_9/127.jpg,121,1,2023-06-28_14h18.57.156,Occlusion_Psychophysics,2022.1.4,Win32,239.2344498,,,left,"[""right""]",[0.714999999999975],False,,0.0,0.0,31.0,31.0,31.0,1.0,,,,,,
,,,,,,,,,,,,,,,,,,,,,0.05,,,,,,,,,,Stimuli/psy_flexible_rotation_30_objects_occ0.7_0.9s/images/train/n04379243_8/n02883344_0/img_glass_table_b03_box_2005_gray.jpg,n04379243_8,n02883344_0,flexible,0.71394,n02883344_15,Stimuli/psy_flexible_rotation_30_objects_occ0.7_0.9s/images/train/n03001627_-2/n02883344_15/img_wood_chair_microwave_box_2006-3_gray.png,random,flexible,n04379243_8,n02818832_9,Stimuli/canonical view 2/img_n04379243_8_gray.jpg,Stimuli/canonical view 2/img_n02818832_9_gray.jpg,random,right,Experiments/experiment_9/128.jpg,Experiments/experiment_9/129.jpg,Experiments/experiment_9/130.jpg,Experiments/experiment_9/131.jpg,121,1,2023-06-28_14h18.57.156,Occlusion_Psychophysics,2022.1.4,Win32,239.2344498,,,right,"[""right""]",[0.6149999999999523],False,,0.0,0.0,32.0,32.0,32.0,1.0,,,,,,
,,,,,,,,,,,,,,,,,,,,,0.025,,,,,,,,,,Stimuli/psy_fixed_rotation_30_objects_occ0.7_0.9s/images/train/n02828884_3/n04379243_8/img_b04_wood_metal_park_bench_glass_table_2015_gray.jpg,n02828884_3,n04379243_8,fixed,0.729851,n03001627_9,Stimuli/psy_flexible_rotation_30_objects_occ0.7_0.9s/images/train/n04070727_0/n03001627_9/img_b03_ka90ivi20r_2013__vray_chair_eames_plastic_armchair_2002-3_gray.png,random,flexible,n02828884_3,n04379243_8,Stimuli/canonical view 2/img_n02828884_3_gray.jpg,Stimuli/canonical view 2/img_n04379243_8_gray.jpg,foreground,right,Experiments/experiment_9/132.jpg,Experiments/experiment_9/133.jpg,Experiments/experiment_9/134.jpg,Experiments/experiment_9/135.jpg,121,1,2023-06-28_14h18.57.156,Occlusion_Psychophysics,2022.1.4,Win32,239.2344498,,,left,"[""left""]",[1.295000000000016],False,,0.0,0.0,33.0,33.0,33.0,1.0,,,,,,
,,,,,,,,,,,,,,,,,,,,,0.025,,,,,,,,,,Stimuli/psy_flexible_rotation_30_objects_occ0.7_0.9s/images/train/n04405907_9/n02818832_3/img_vray_004_b05_ccm_contemporary_bed_max2013_2001_gray.jpg,n04405907_9,n02818832_3,flexible,0.704918,n02818832_3,Stimuli/psy_flexible_rotation_30_objects_occ0.7_0.9s/images/train/n04405907_9/n02818832_3/img_vray_004_b05_ccm_contemporary_bed_max2013_2001-3_gray.png,foreground,same as foreground,n04405907_9,n04256520_4,Stimuli/canonical view 2/img_n04405907_9_gray.jpg,Stimuli/canonical view 2/img_n04256520_4_gray.jpg,random,right,Experiments/experiment_9/136.jpg,Experiments/experiment_9/137.jpg,Experiments/experiment_9/138.jpg,Experiments/experiment_9/139.jpg,121,1,2023-06-28_14h18.57.156,Occlusion_Psychophysics,2022.1.4,Win32,239.2344498,,,left,"[""left""]",[1.1030000000000086],False,,0.0,0.0,34.0,34.0,34.0,1.0,,,,,,
,,,,,,,,,,,,,,,,,,,,,0.025,,,,,,,,,,Stimuli/psy_flexible_rotation_30_objects_occ0.7_0.9s/images/train/n04379243_-7/n02828884_3/img_quatre_dining_table_b04_wood_metal_park_bench_2005_gray.jpg,n04379243_-7,n02828884_3,flexible,0.717181,n02818832_3,Stimuli/psy_flexible_rotation_30_objects_occ0.7_0.9s/images/train/n04070727_3/n02818832_3/img_b05_db_apps_tech_06_02_2_composite_b05_ccm_contemporary_bed_max2013_2002-3_gray.png,random,flexible,n04379243_-7,n02828884_3,Stimuli/canonical view 2/img_n04379243_-7_gray.jpg,Stimuli/canonical view 2/img_n02828884_3_gray.jpg,foreground,right,Experiments/experiment_9/140.jpg,Experiments/experiment_9/141.jpg,Experiments/experiment_9/142.jpg,Experiments/experiment_9/143.jpg,121,1,2023-06-28_14h18.57.156,Occlusion_Psychophysics,2022.1.4,Win32,239.2344498,,,right,"[""left""]",[0.8319999999999936],False,,0.0,0.0,35.0,35.0,35.0,1.0,,,,,,
,,,,,,,,,,,,,,,,,,,,,0.05,,,,,,,,,,Stimuli/psy_fixed_rotation_30_objects_occ0.7_0.9s/images/train/n04256520_5/n04405907_8/img_meridiani_belmondo_bench_sofa_stylized_tv_2002_gray.jpg,n04256520_5,n04405907_8,fixed,0.701958,n02933112_-2,Stimuli/psy_flexible_rotation_30_objects_occ0.7_0.9s/images/train/n02828884_9/n02933112_-2/img_cr-96_bench_sink_base_white_wood_2005-3_gray.png,random,flexible,n04256520_5,n04379243_-7,Stimuli/canonical view 2/img_n04256520_5_gray.jpg,Stimuli/canonical view 2/img_n04379243_-7_gray.jpg,random,right,Experiments/experiment_9/144.jpg,Experiments/experiment_9/145.jpg,Experiments/experiment_9/146.jpg,Experiments/experiment_9/147.jpg,121,1,2023-06-28_14h18.57.156,Occlusion_Psychophysics,2022.1.4,Win32,239.2344498,,,left,"[""right""]",[0.8650000000000091],False,,0.0,0.0,36.0,36.0,36.0,1.0,,,,,,
,,,,,,,,,,,,,,,,,,,,,0.025,,,,,,,,,,Stimuli/psy_flexible_rotation_30_objects_occ0.7_0.9s/images/train/n03001627_8/n02818832_0/img_chair_billiani_doll_b03_the_sofa_and_chair_company_-_stanley_bed_2014_2012_gray.jpg,n03001627_8,n02818832_0,flexible,0.724776,n02818832_0,Stimuli/psy_flexible_rotation_30_objects_occ0.7_0.9s/images/train/n03001627_8/n02818832_0/img_chair_billiani_doll_b03_the_sofa_and_chair_company_-_stanley_bed_2014_2012-3_gray.png,foreground,same as foreground,n03001627_8,n02818832_0,Stimuli/canonical view 2/img_n03001627_8_gray.jpg,Stimuli/canonical view 2/img_n02818832_0_gray.jpg,foreground,right,Experiments/experiment_9/148.jpg,Experiments/experiment_9/149.jpg,Experiments/experiment_9/150.jpg,Experiments/experiment_9/151.jpg,121,1,2023-06-28_14h18.57.156,Occlusion_Psychophysics,2022.1.4,Win32,239.2344498,,,left,"[""left""]",[0.7059999999999604],False,,0.0,0.0,37.0,37.0,37.0,1.0,,,,,,
,,,,,,,,,,,,,,,,,,,,,0.025,,,,,,,,,,Stimuli/psy_flexible_rotation_30_objects_occ0.7_0.9s/images/train/n02883344_-1/n04405907_5/img_woven_box_samsung_40_uhd_smart_tv_2011_2002_gray.jpg,n02883344_-1,n04405907_5,flexible,0.743468,n04405907_5,Stimuli/psy_flexible_rotation_30_objects_occ0.7_0.9s/images/train/n02883344_-1/n04405907_5/img_woven_box_samsung_40_uhd_smart_tv_2011_2002-3_gray.png,foreground,same as foreground,n02883344_-1,n02883344_0,Stimuli/canonical view 2/img_n02883344_-1_gray.jpg,Stimuli/canonical view 2/img_n02883344_0_gray.jpg,random,left,Experiments/experiment_9/152.jpg,Experiments/experiment_9/153.jpg,Experiments/experiment_9/154.jpg,Experiments/experiment_9/155.jpg,121,1,2023-06-28_14h18.57.156,Occlusion_Psychophysics,2022.1.4,Win32,239.2344498,,,right,"[""right""]",[0.5880000000000223],False,,0.0,0.0,38.0,38.0,38.0,1.0,,,,,,
,,,,,,,,,,,,,,,,,,,,,0.05,,,,,,,,,,Stimuli/psy_flexible_rotation_30_objects_occ0.7_0.9s/images/train/n02883344_-1/n03928116_4/img_woven_box_dp_33_b_2013__vray_2012_gray.jpg,n02883344_-1,n03928116_4,flexible,0.715399,n03928116_4,Stimuli/psy_flexible_rotation_30_objects_occ0.7_0.9s/images/train/n02883344_-1/n03928116_4/img_woven_box_dp_33_b_2013__vray_2012-3_gray.png,foreground,same as foreground,n02883344_-1,n03928116_4,Stimuli/canonical view 2/img_n02883344_-1_gray.jpg,Stimuli/canonical view 2/img_n03928116_4_gray.jpg,foreground,left,Experiments/experiment_9/156.jpg,Experiments/experiment_9/157.jpg,Experiments/experiment_9/158.jpg,Experiments/experiment_9/159.jpg,121,1,2023-06-28_14h18.57.156,Occlusion_Psychophysics,2022.1.4,Win32,239.2344498,,,left,"[""left""]",[0.6240000000000236],False,,0.0,0.0,39.0,39.0,39.0,1.0,,,,,,
,,,,,,,,,,,,,,,,,,,,,0.025,,,,,,,,,,Stimuli/psy_fixed_rotation_30_objects_occ0.7_0.9s/images/train/n03928116_4/n02818832_3/img_dp_33_b_2013__vray_b05_ccm_contemporary_bed_max2013_2010_gray.jpg,n03928116_4,n02818832_3,fixed,0.70008,n04379243_0,Stimuli/psy_flexible_rotation_30_objects_occ0.7_0.9s/images/train/n02933112_4/n04379243_0/img_buffet_17th_c._monastery_dining_table_2010_2009-3_gray.png,random,flexible,n03928116_4,n04405907_9,Stimuli/canonical view 2/img_n03928116_4_gray.jpg,Stimuli/canonical view 2/img_n04405907_9_gray.jpg,random,right,Experiments/experiment_9/160.jpg,Experiments/experiment_9/161.jpg,Experiments/experiment_9/162.jpg,Experiments/experiment_9/163.jpg,121,1,2023-06-28_14h18.57.156,Occlusion_Psychophysics,2022.1.4,Win32,239.2344498,,,right,"[""right""]",[1.3210000000000264],False,,0.0,0.0,40.0,40.0,40.0,1.0,,,,,,
,,,,,,,,,,,,,,,,,,,,,0.05,,,,,,,,,,Stimuli/psy_flexible_rotation_30_objects_occ0.7_0.9s/images/train/n04256520_4/n02933112_-2/img_club_house_italia_nautilus_sofa_sink_base_white_wood_2006_gray.jpg,n04256520_4,n02933112_-2,flexible,0.789567,n04256520_4,Stimuli/psy_flexible_rotation_30_objects_occ0.7_0.9s/images/train/n04256520_9/n04256520_4/img_napoleon_iii_sofa_club_house_italia_nautilus_sofa_2004-3_gray.png,random,flexible,n04256520_4,n02828884_3,Stimuli/canonical view 2/img_n04256520_4_gray.jpg,Stimuli/canonical view 2/img_n02828884_3_gray.jpg,random,right,Experiments/experiment_9/164.jpg,Experiments/experiment_9/165.jpg,Experiments/experiment_9/166.jpg,Experiments/experiment_9/167.jpg,121,1,2023-06-28_14h18.57.156,Occlusion_Psychophysics,2022.1.4,Win32,239.2344498,,,right,"[""left""]",[1.469000000000051],False,,0.0,0.0,41.0,41.0,41.0,1.0,,,,,,
,,,,,,,,,,,,,,,,,,,,,0.025,,,,,,,,,,Stimuli/psy_fixed_rotation_30_objects_occ0.7_0.9s/images/train/n04405907_8/n04405907_5/img_stylized_tv_samsung_40_uhd_smart_tv_2011_2000_gray.jpg,n04405907_8,n04405907_5,fixed,0.785561,n02818832_0,Stimuli/psy_flexible_rotation_30_objects_occ0.7_0.9s/images/train/n04070727_3/n02818832_0/img_b05_db_apps_tech_06_02_2_composite_b03_the_sofa_and_chair_company_-_stanley_bed_2014_2015-3_gray.png,random,flexible,n04405907_8,n04405907_5,Stimuli/canonical view 2/img_n04405907_8_gray.jpg,Stimuli/canonical view 2/img_n04405907_5_gray.jpg,foreground,right,Experiments/experiment_9/168.jpg,Experiments/experiment_9/169.jpg,Experiments/experiment_9/170.jpg,Experiments/experiment_9/171.jpg,121,1,2023-06-28_14h18.57.156,Occlusion_Psychophysics,2022.1.4,Win32,239.2344498,,,right,"[""right""]",[0.7090000000000032],False,,0.0,0.0,42.0,42.0,42.0,1.0,,,,,,
,,,,,,,,,,,,,,,,,,,,,0.05,,,,,,,,,,Stimuli/psy_flexible_rotation_30_objects_occ0.7_0.9s/images/train/n02828884_3/n03928116_0/img_b04_wood_metal_park_bench_b02_piano_2002_gray.jpg,n02828884_3,n03928116_0,flexible,0.70751,n02828884_3,Stimuli/psy_fixed_rotation_30_objects_occ0.7_0.9s/images/train/n04405907_5/n02828884_3/img_samsung_40_uhd_smart_tv_2011_b04_wood_metal_park_bench_2005-3_gray.png,random,fixed,n02828884_3,n04256520_5,Stimuli/canonical view 2/img_n02828884_3_gray.jpg,Stimuli/canonical view 2/img_n04256520_5_gray.jpg,random,right,Experiments/experiment_9/172.jpg,Experiments/experiment_9/173.jpg,Experiments/experiment_9/174.jpg,Experiments/experiment_9/175.jpg,121,1,2023-06-28_14h18.57.156,Occlusion_Psychophysics,2022.1.4,Win32,239.2344498,,,right,"[""right""]",[0.6360000000000241],False,,0.0,0.0,43.0,43.0,43.0,1.0,,,,,,
,,,,,,,,,,,,,,,,,,,,,0.025,,,,,,,,,,Stimuli/psy_fixed_rotation_30_objects_occ0.7_0.9s/images/train/n02828884_9/n04256520_4/img_cr-96_bench_club_house_italia_nautilus_sofa_2006_gray.jpg,n02828884_9,n04256520_4,fixed,0.857271,n02828884_3,Stimuli/psy_flexible_rotation_30_objects_occ0.7_0.9s/images/train/n04379243_0/n02828884_3/img_17th_c._monastery_dining_table_2010_b04_wood_metal_park_bench_2003-3_gray.png,random,flexible,n02828884_9,n04256520_4,Stimuli/canonical view 2/img_n02828884_9_gray.jpg,Stimuli/canonical view 2/img_n04256520_4_gray.jpg,foreground,right,Experiments/experiment_9/176.jpg,Experiments/experiment_9/177.jpg,Experiments/experiment_9/178.jpg,Experiments/experiment_9/179.jpg,121,1,2023-06-28_14h18.57.156,Occlusion_Psychophysics,2022.1.4,Win32,239.2344498,,,right,"[""right""]",[0.8969999999999914],False,,0.0,0.0,44.0,44.0,44.0,1.0,,,,,,
,,,,,,,,,,,,,,,,,,,,,0.025,,,,,,,,,,Stimuli/psy_fixed_rotation_30_objects_occ0.7_0.9s/images/train/n04405907_9/n02828884_3/img_vray_004_b04_wood_metal_park_bench_2006_gray.jpg,n04405907_9,n02828884_3,fixed,0.898005,n02828884_3,Stimuli/psy_fixed_rotation_30_objects_occ0.7_0.9s/images/train/n04405907_9/n02828884_3/img_vray_004_b04_wood_metal_park_bench_2006-3_gray.png,foreground,same as foreground,n04405907_9,n04405907_5,Stimuli/canonical view 2/img_n04405907_9_gray.jpg,Stimuli/canonical view 2/img_n04405907_5_gray.jpg,random,left,Experiments/experiment_9/180.jpg,Experiments/experiment_9/181.jpg,Experiments/experiment_9/182.jpg,Experiments/experiment_9/183.jpg,121,1,2023-06-28_14h18.57.156,Occlusion_Psychophysics,2022.1.4,Win32,239.2344498,,,left,"[""left""]",[1.5699999999999932],False,,0.0,0.0,45.0,45.0,45.0,1.0,,,,,,
,,,,,,,,,,,,,,,,,,,,,0.05,,,,,,,,,,Stimuli/psy_flexible_rotation_30_objects_occ0.7_0.9s/images/train/n04379243_8/n02818832_3/img_glass_table_b05_ccm_contemporary_bed_max2013_2011_gray.jpg,n04379243_8,n02818832_3,flexible,0.779088,n02818832_3,Stimuli/psy_flexible_rotation_30_objects_occ0.7_0.9s/images/train/n04379243_8/n02818832_3/img_glass_table_b05_ccm_contemporary_bed_max2013_2011-3_gray.png,foreground,same as foreground,n04379243_8,n02818832_3,Stimuli/canonical view 2/img_n04379243_8_gray.jpg,Stimuli/canonical view 2/img_n02818832_3_gray.jpg,foreground,left,Experiments/experiment_9/184.jpg,Experiments/experiment_9/185.jpg,Experiments/experiment_9/186.jpg,Experiments/experiment_9/187.jpg,121,1,2023-06-28_14h18.57.156,Occlusion_Psychophysics,2022.1.4,Win32,239.2344498,,,right,"[""left""]",[0.8460000000000036],False,,0.0,0.0,46.0,46.0,46.0,1.0,,,,,,
,,,,,,,,,,,,,,,,,,,,,0.025,,,,,,,,,,Stimuli/psy_flexible_rotation_30_objects_occ0.7_0.9s/images/train/n03001627_9/n02933112_4/img_chair_eames_plastic_armchair_buffet_2007_gray.jpg,n03001627_9,n02933112_4,flexible,0.700396,n02933112_4,Stimuli/psy_flexible_rotation_30_objects_occ0.7_0.9s/images/train/n03001627_9/n02933112_4/img_chair_eames_plastic_armchair_buffet_2007-3_gray.png,foreground,same as foreground,n03001627_9,n02933112_4,Stimuli/canonical view 2/img_n03001627_9_gray.jpg,Stimuli/canonical view 2/img_n02933112_4_gray.jpg,foreground,right,Experiments/experiment_9/188.jpg,Experiments/experiment_9/189.jpg,Experiments/experiment_9/190.jpg,Experiments/experiment_9/191.jpg,121,1,2023-06-28_14h18.57.156,Occlusion_Psychophysics,2022.1.4,Win32,239.2344498,,,left,"[""left""]",[0.59699999999998],False,,0.0,0.0,47.0,47.0,47.0,1.0,,,,,,
,,,,,,,,,,,,,,,,,,,,,0.05,,,,,,,,,,Stimuli/psy_flexible_rotation_30_objects_occ0.7_0.9s/images/train/n04405907_8/n04256520_4/img_stylized_tv_club_house_italia_nautilus_sofa_2004_gray.jpg,n04405907_8,n04256520_4,flexible,0.769645,n04256520_5,Stimuli/psy_fixed_rotation_30_objects_occ0.7_0.9s/images/train/n02883344_0/n04256520_5/img_b03_box_meridiani_belmondo_bench_sofa_2001-3_gray.png,random,fixed,n04405907_8,n04256520_4,Stimuli/canonical view 2/img_n04405907_8_gray.jpg,Stimuli/canonical view 2/img_n04256520_4_gray.jpg,foreground,right,Experiments/experiment_9/192.jpg,Experiments/experiment_9/193.jpg,Experiments/experiment_9/194.jpg,Experiments/experiment_9/195.jpg,121,1,2023-06-28_14h18.57.156,Occlusion_Psychophysics,2022.1.4,Win32,239.2344498,,,right,"[""right""]",[1.36099999999999],False,,0.0,0.0,48.0,48.0,48.0,1.0,,,,,,
,,,,,,,,,,,,,,,,,,,,,0.05,,,,,,,,,,Stimuli/psy_flexible_rotation_30_objects_occ0.7_0.9s/images/train/n04256520_9/n02883344_0/img_napoleon_iii_sofa_b03_box_2015_gray.jpg,n04256520_9,n02883344_0,flexible,0.700333,n02883344_0,Stimuli/psy_flexible_rotation_30_objects_occ0.7_0.9s/images/train/n04256520_9/n02883344_0/img_napoleon_iii_sofa_b03_box_2015-3_gray.png,foreground,same as foreground,n04256520_9,n04256520_5,Stimuli/canonical view 2/img_n04256520_9_gray.jpg,Stimuli/canonical view 2/img_n04256520_5_gray.jpg,random,right,Experiments/experiment_9/196.jpg,Experiments/experiment_9/197.jpg,Experiments/experiment_9/198.jpg,Experiments/experiment_9/199.jpg,121,1,2023-06-28_14h18.57.156,Occlusion_Psychophysics,2022.1.4,Win32,239.2344498,,,left,"[""left""]",[1.3000000000000114],False,,0.0,0.0,49.0,49.0,49.0,1.0,,,,,,
,,,,,,,,,,,,,,,,,,,,,0.05,,,,,,,,,,Stimuli/psy_flexible_rotation_30_objects_occ0.7_0.9s/images/train/n02818832_0/n02818832_9/img_b03_the_sofa_and_chair_company_-_stanley_bed_2014_bed01_blue_2003_gray.jpg,n02818832_0,n02818832_9,flexible,0.810542,n02818832_9,Stimuli/psy_flexible_rotation_30_objects_occ0.7_0.9s/images/train/n02818832_0/n02818832_9/img_b03_the_sofa_and_chair_company_-_stanley_bed_2014_bed01_blue_2003-3_gray.png,foreground,same as foreground,n02818832_0,n03001627_9,Stimuli/canonical view 2/img_n02818832_0_gray.jpg,Stimuli/canonical view 2/img_n03001627_9_gray.jpg,random,right,Experiments/experiment_9/200.jpg,Experiments/experiment_9/201.jpg,Experiments/experiment_9/202.jpg,Experiments/experiment_9/203.jpg,121,1,2023-06-28_14h18.57.156,Occlusion_Psychophysics,2022.1.4,Win32,239.2344498,,,left,"[""left""]",[1.5229999999999677],False,,0.0,0.0,50.0,50.0,50.0,1.0,,,,,,
,,,,,,,,,,,,,,,,,,,,,0.025,,,,,,,,,,Stimuli/psy_fixed_rotation_30_objects_occ0.7_0.9s/images/train/n02818832_0/n02933112_4/img_b03_the_sofa_and_chair_company_-_stanley_bed_2014_buffet_2004_gray.jpg,n02818832_0,n02933112_4,fixed,0.713324,n04405907_8,Stimuli/psy_fixed_rotation_30_objects_occ0.7_0.9s/images/train/n04405907_9/n04405907_8/img_vray_004_stylized_tv_2009-3_gray.png,random,fixed,n02818832_0,n03928116_4,Stimuli/canonical view 2/img_n02818832_0_gray.jpg,Stimuli/canonical view 2/img_n03928116_4_gray.jpg,random,right,Experiments/experiment_9/204.jpg,Experiments/experiment_9/205.jpg,Experiments/experiment_9/206.jpg,Experiments/experiment_9/207.jpg,121,1,2023-06-28_14h18.57.156,Occlusion_Psychophysics,2022.1.4,Win32,239.2344498,,,right,"[""right""]",[0.7210000000000036],False,,0.0,0.0,51.0,51.0,51.0,1.0,,,,,,
,,,,,,,,,,,,,,,,,,,,,0.05,,,,,,,,,,Stimuli/psy_fixed_rotation_30_objects_occ0.7_0.9s/images/train/n03928116_0/n04379243_0/img_b02_piano_17th_c._monastery_dining_table_2010_2000_gray.jpg,n03928116_0,n04379243_0,fixed,0.752234,n03928116_0,Stimuli/psy_flexible_rotation_30_objects_occ0.7_0.9s/images/train/n02883344_-1/n03928116_0/img_woven_box_b02_piano_2001-3_gray.png,random,flexible,n03928116_0,n04256520_5,Stimuli/canonical view 2/img_n03928116_0_gray.jpg,Stimuli/canonical view 2/img_n04256520_5_gray.jpg,random,right,Experiments/experiment_9/208.jpg,Experiments/experiment_9/209.jpg,Experiments/experiment_9/210.jpg,Experiments/experiment_9/211.jpg,121,1,2023-06-28_14h18.57.156,Occlusion_Psychophysics,2022.1.4,Win32,239.2344498,,,left,"[""left""]",[0.7830000000000155],False,,0.0,0.0,52.0,52.0,52.0,1.0,,,,,,
,,,,,,,,,,,,,,,,,,,,,0.05,,,,,,,,,,Stimuli/psy_fixed_rotation_30_objects_occ0.7_0.9s/images/train/n02828884_4/n02883344_15/img_b05_c-5_classic_series_bench-2012_microwave_box_2001_gray.jpg,n02828884_4,n02883344_15,fixed,0.705965,n02883344_15,Stimuli/psy_fixed_rotation_30_objects_occ0.7_0.9s/images/train/n02828884_4/n02883344_15/img_b05_c-5_classic_series_bench-2012_microwave_box_2001-3_gray.png,foreground,same as foreground,n02828884_4,n02828884_9,Stimuli/canonical view 2/img_n02828884_4_gray.jpg,Stimuli/canonical view 2/img_n02828884_9_gray.jpg,random,right,Experiments/experiment_9/212.jpg,Experiments/experiment_9/213.jpg,Experiments/experiment_9/214.jpg,Experiments/experiment_9/215.jpg,121,1,2023-06-28_14h18.57.156,Occlusion_Psychophysics,2022.1.4,Win32,239.2344498,,,left,"[""left""]",[1.6359999999999673],False,,0.0,0.0,53.0,53.0,53.0,1.0,,,,,,
,,,,,,,,,,,,,,,,,,,,,0.05,,,,,,,,,,Stimuli/psy_fixed_rotation_30_objects_occ0.7_0.9s/images/train/n02828884_3/n02883344_-1/img_b04_wood_metal_park_bench_woven_box_2010_gray.jpg,n02828884_3,n02883344_-1,fixed,0.762116,n02883344_-1,Stimuli/psy_fixed_rotation_30_objects_occ0.7_0.9s/images/train/n02828884_3/n02883344_-1/img_b04_wood_metal_park_bench_woven_box_2010-3_gray.png,foreground,same as foreground,n02828884_3,n02883344_-1,Stimuli/canonical view 2/img_n02828884_3_gray.jpg,Stimuli/canonical view 2/img_n02883344_-1_gray.jpg,foreground,left,Experiments/experiment_9/216.jpg,Experiments/experiment_9/217.jpg,Experiments/experiment_9/218.jpg,Experiments/experiment_9/219.jpg,121,1,2023-06-28_14h18.57.156,Occlusion_Psychophysics,2022.1.4,Win32,239.2344498,,,right,"[""right""]",[0.6329999999999245],False,,0.0,0.0,54.0,54.0,54.0,1.0,,,,,,
,,,,,,,,,,,,,,,,,,,,,0.05,,,,,,,,,,Stimuli/psy_fixed_rotation_30_objects_occ0.7_0.9s/images/train/n04256520_5/n02818832_9/img_meridiani_belmondo_bench_sofa_bed01_blue_2001_gray.jpg,n04256520_5,n02818832_9,fixed,0.731835,n02818832_9,Stimuli/psy_fixed_rotation_30_objects_occ0.7_0.9s/images/train/n04256520_5/n02818832_9/img_meridiani_belmondo_bench_sofa_bed01_blue_2001-3_gray.png,foreground,same as foreground,n04256520_5,n04256520_9,Stimuli/canonical view 2/img_n04256520_5_gray.jpg,Stimuli/canonical view 2/img_n04256520_9_gray.jpg,random,right,Experiments/experiment_9/220.jpg,Experiments/experiment_9/221.jpg,Experiments/experiment_9/222.jpg,Experiments/experiment_9/223.jpg,121,1,2023-06-28_14h18.57.156,Occlusion_Psychophysics,2022.1.4,Win32,239.2344498,,,left,"[""right""]",[0.8450000000000841],False,,0.0,0.0,55.0,55.0,55.0,1.0,,,,,,
,,,,,,,,,,,,,,,,,,,,,0.05,,,,,,,,,,Stimuli/psy_fixed_rotation_30_objects_occ0.7_0.9s/images/train/n04256520_4/n02933112_-2/img_club_house_italia_nautilus_sofa_sink_base_white_wood_2012_gray.jpg,n04256520_4,n02933112_-2,fixed,0.740542,n02883344_0,Stimuli/psy_flexible_rotation_30_objects_occ0.7_0.9s/images/train/n04405907_9/n02883344_0/img_vray_004_b03_box_2009-3_gray.png,random,flexible,n04256520_4,n02883344_-1,Stimuli/canonical view 2/img_n04256520_4_gray.jpg,Stimuli/canonical view 2/img_n02883344_-1_gray.jpg,random,right,Experiments/experiment_9/224.jpg,Experiments/experiment_9/225.jpg,Experiments/experiment_9/226.jpg,Experiments/experiment_9/227.jpg,121,1,2023-06-28_14h18.57.156,Occlusion_Psychophysics,2022.1.4,Win32,239.2344498,,,right,"[""right""]",[1.4259999999999309],False,,0.0,0.0,56.0,56.0,56.0,1.0,,,,,,
,,,,,,,,,,,,,,,,,,,,,0.05,,,,,,,,,,Stimuli/psy_fixed_rotation_30_objects_occ0.7_0.9s/images/train/n04405907_9/n04405907_5/img_vray_004_samsung_40_uhd_smart_tv_2011_2008_gray.jpg,n04405907_9,n04405907_5,fixed,0.749615,n02818832_9,Stimuli/psy_fixed_rotation_30_objects_occ0.7_0.9s/images/train/n04256520_5/n02818832_9/img_meridiani_belmondo_bench_sofa_bed01_blue_2004-3_gray.png,random,fixed,n04405907_9,n04405907_5,Stimuli/canonical view 2/img_n04405907_9_gray.jpg,Stimuli/canonical view 2/img_n04405907_5_gray.jpg,foreground,left,Experiments/experiment_9/228.jpg,Experiments/experiment_9/229.jpg,Experiments/experiment_9/230.jpg,Experiments/experiment_9/231.jpg,121,1,2023-06-28_14h18.57.156,Occlusion_Psychophysics,2022.1.4,Win32,239.2344498,,,right,"[""left""]",[1.3240000000000691],False,,0.0,0.0,57.0,57.0,57.0,1.0,,,,,,
,,,,,,,,,,,,,,,,,,,,,0.025,,,,,,,,,,Stimuli/psy_fixed_rotation_30_objects_occ0.7_0.9s/images/train/n04256520_5/n02883344_0/img_meridiani_belmondo_bench_sofa_b03_box_2011_gray.jpg,n04256520_5,n02883344_0,fixed,0.794039,n02883344_-1,Stimuli/psy_fixed_rotation_30_objects_occ0.7_0.9s/images/train/n02828884_9/n02883344_-1/img_cr-96_bench_woven_box_2005-3_gray.png,random,fixed,n04256520_5,n02883344_0,Stimuli/canonical view 2/img_n04256520_5_gray.jpg,Stimuli/canonical view 2/img_n02883344_0_gray.jpg,foreground,right,Experiments/experiment_9/232.jpg,Experiments/experiment_9/233.jpg,Experiments/experiment_9/234.jpg,Experiments/experiment_9/235.jpg,121,1,2023-06-28_14h18.57.156,Occlusion_Psychophysics,2022.1.4,Win32,239.2344498,,,left,"[""left""]",[0.9979999999999336],False,,0.0,0.0,58.0,58.0,58.0,1.0,,,,,,
,,,,,,,,,,,,,,,,,,,,,0.025,,,,,,,,,,Stimuli/psy_fixed_rotation_30_objects_occ0.7_0.9s/images/train/n02883344_15/n03928116_0/img_microwave_box_b02_piano_2002_gray.jpg,n02883344_15,n03928116_0,fixed,0.782027,n04405907_8,Stimuli/psy_flexible_rotation_30_objects_occ0.7_0.9s/images/train/n02883344_15/n04405907_8/img_microwave_box_stylized_tv_2012-3_gray.png,random,flexible,n02883344_15,n02933112_-2,Stimuli/canonical view 2/img_n02883344_15_gray.jpg,Stimuli/canonical view 2/img_n02933112_-2_gray.jpg,random,right,Experiments/experiment_9/236.jpg,Experiments/experiment_9/237.jpg,Experiments/experiment_9/238.jpg,Experiments/experiment_9/239.jpg,121,1,2023-06-28_14h18.57.156,Occlusion_Psychophysics,2022.1.4,Win32,239.2344498,,,left,"[""left""]",[2.259999999999991],False,,0.0,0.0,59.0,59.0,59.0,1.0,,,,,,
,,,,,,,,,,,,,,,,,,,,,0.05,,,,,,,,,,Stimuli/psy_flexible_rotation_30_objects_occ0.7_0.9s/images/train/n03001627_9/n02883344_15/img_chair_eames_plastic_armchair_microwave_box_2014_gray.jpg,n03001627_9,n02883344_15,flexible,0.784731,n02883344_15,Stimuli/psy_flexible_rotation_30_objects_occ0.7_0.9s/images/train/n03001627_9/n02883344_15/img_chair_eames_plastic_armchair_microwave_box_2014-3_gray.png,foreground,same as foreground,n03001627_9,n02883344_15,Stimuli/canonical view 2/img_n03001627_9_gray.jpg,Stimuli/canonical view 2/img_n02883344_15_gray.jpg,foreground,left,Experiments/experiment_9/240.jpg,Experiments/experiment_9/241.jpg,Experiments/experiment_9/242.jpg,Experiments/experiment_9/243.jpg,121,1,2023-06-28_14h18.57.156,Occlusion_Psychophysics,2022.1.4,Win32,239.2344498,,,left,"[""left""]",[0.6820000000000164],False,,0.0,0.0,60.0,60.0,60.0,1.0,,,,,,
,,,,,,,,,,,,,,,,,,,,,0.05,,,,,,,,,,Stimuli/psy_fixed_rotation_30_objects_occ0.7_0.9s/images/train/n03928116_4/n02933112_4/img_dp_33_b_2013__vray_buffet_2008_gray.jpg,n03928116_4,n02933112_4,fixed,0.711422,n02883344_-1,Stimuli/psy_flexible_rotation_30_objects_occ0.7_0.9s/images/train/n04405907_9/n02883344_-1/img_vray_004_woven_box_2002-3_gray.png,random,flexible,n03928116_4,n02828884_3,Stimuli/canonical view 2/img_n03928116_4_gray.jpg,Stimuli/canonical view 2/img_n02828884_3_gray.jpg,random,right,Experiments/experiment_9/244.jpg,Experiments/experiment_9/245.jpg,Experiments/experiment_9/246.jpg,Experiments/experiment_9/247.jpg,121,1,2023-06-28_14h18.57.156,Occlusion_Psychophysics,2022.1.4,Win32,239.2344498,,,left,"[""right""]",[0.6269999999999527],False,,0.0,0.0,61.0,61.0,61.0,1.0,,,,,,
,,,,,,,,,,,,,,,,,,,,,0.05,,,,,,,,,,Stimuli/psy_flexible_rotation_30_objects_occ0.7_0.9s/images/train/n02883344_-1/n04405907_8/img_woven_box_stylized_tv_2014_gray.jpg,n02883344_-1,n04405907_8,flexible,0.781586,n04405907_8,Stimuli/psy_flexible_rotation_30_objects_occ0.7_0.9s/images/train/n02883344_-1/n04405907_8/img_woven_box_stylized_tv_2014-3_gray.png,foreground,same as foreground,n02883344_-1,n02933112_-2,Stimuli/canonical view 2/img_n02883344_-1_gray.jpg,Stimuli/canonical view 2/img_n02933112_-2_gray.jpg,random,left,Experiments/experiment_9/248.jpg,Experiments/experiment_9/249.jpg,Experiments/experiment_9/250.jpg,Experiments/experiment_9/251.jpg,121,1,2023-06-28_14h18.57.156,Occlusion_Psychophysics,2022.1.4,Win32,239.2344498,,,left,"[""right""]",[0.7469999999999573],False,,0.0,0.0,62.0,62.0,62.0,1.0,,,,,,
,,,,,,,,,,,,,,,,,,,,,0.025,,,,,,,,,,Stimuli/psy_flexible_rotation_30_objects_occ0.7_0.9s/images/train/n04256520_5/n04379243_-7/img_meridiani_belmondo_bench_sofa_quatre_dining_table_2001_gray.jpg,n04256520_5,n04379243_-7,flexible,0.897146,n04379243_-7,Stimuli/psy_flexible_rotation_30_objects_occ0.7_0.9s/images/train/n04256520_5/n04379243_-7/img_meridiani_belmondo_bench_sofa_quatre_dining_table_2001-3_gray.png,foreground,same as foreground,n04256520_5,n02818832_9,Stimuli/canonical view 2/img_n04256520_5_gray.jpg,Stimuli/canonical view 2/img_n02818832_9_gray.jpg,random,left,Experiments/experiment_9/252.jpg,Experiments/experiment_9/253.jpg,Experiments/experiment_9/254.jpg,Experiments/experiment_9/255.jpg,121,1,2023-06-28_14h18.57.156,Occlusion_Psychophysics,2022.1.4,Win32,239.2344498,,,right,"[""left""]",[0.7350000000000136],False,,0.0,0.0,63.0,63.0,63.0,1.0,,,,,,
,,,,,,,,,,,,,,,,,,,,,0.025,,,,,,,,,,Stimuli/psy_fixed_rotation_30_objects_occ0.7_0.9s/images/train/n04256520_9/n04405907_9/img_napoleon_iii_sofa_vray_004_2014_gray.jpg,n04256520_9,n04405907_9,fixed,0.706868,n04405907_9,Stimuli/psy_fixed_rotation_30_objects_occ0.7_0.9s/images/train/n04256520_9/n04405907_9/img_napoleon_iii_sofa_vray_004_2014-3_gray.png,foreground,same as foreground,n04256520_9,n03001627_9,Stimuli/canonical view 2/img_n04256520_9_gray.jpg,Stimuli/canonical view 2/img_n03001627_9_gray.jpg,random,right,Experiments/experiment_9/256.jpg,Experiments/experiment_9/257.jpg,Experiments/experiment_9/258.jpg,Experiments/experiment_9/259.jpg,121,1,2023-06-28_14h18.57.156,Occlusion_Psychophysics,2022.1.4,Win32,239.2344498,,,right,"[""right""]",[1.7619999999999436],False,,0.0,0.0,64.0,64.0,64.0,1.0,,,,,,
,,,,,,,,,,,,,,,,,,,,,0.05,,,,,,,,,,Stimuli/psy_flexible_rotation_30_objects_occ0.7_0.9s/images/train/n04379243_-7/n04405907_8/img_quatre_dining_table_stylized_tv_2003_gray.jpg,n04379243_-7,n04405907_8,flexible,0.783315,n04405907_8,Stimuli/psy_flexible_rotation_30_objects_occ0.7_0.9s/images/train/n04379243_-7/n04405907_8/img_quatre_dining_table_stylized_tv_2003-3_gray.png,foreground,same as foreground,n04379243_-7,n04379243_8,Stimuli/canonical view 2/img_n04379243_-7_gray.jpg,Stimuli/canonical view 2/img_n04379243_8_gray.jpg,random,left,Experiments/experiment_9/260.jpg,Experiments/experiment_9/261.jpg,Experiments/experiment_9/262.jpg,Experiments/experiment_9/263.jpg,121,1,2023-06-28_14h18.57.156,Occlusion_Psychophysics,2022.1.4,Win32,239.2344498,,,right,"[""right""]",[0.5470000000000255],False,,0.0,0.0,65.0,65.0,65.0,1.0,,,,,,
,,,,,,,,,,,,,,,,,,,,,0.025,,,,,,,,,,Stimuli/psy_fixed_rotation_30_objects_occ0.7_0.9s/images/train/n03928116_0/n02818832_3/img_b02_piano_b05_ccm_contemporary_bed_max2013_2000_gray.jpg,n03928116_0,n02818832_3,fixed,0.864518,n04379243_0,Stimuli/psy_fixed_rotation_30_objects_occ0.7_0.9s/images/train/n04379243_-7/n04379243_0/img_quatre_dining_table_17th_c._monastery_dining_table_2010_2001-3_gray.png,random,fixed,n03928116_0,n02818832_3,Stimuli/canonical view 2/img_n03928116_0_gray.jpg,Stimuli/canonical view 2/img_n02818832_3_gray.jpg,foreground,right,Experiments/experiment_9/264.jpg,Experiments/experiment_9/265.jpg,Experiments/experiment_9/266.jpg,Experiments/experiment_9/267.jpg,121,1,2023-06-28_14h18.57.156,Occlusion_Psychophysics,2022.1.4,Win32,239.2344498,,,right,"[""left""]",[2.199000000000069],True,left,1.0,0.0,66.0,66.0,66.0,1.0,1.384,,,,,
,,,,,,,,,,,,,,,,,,,,,0.025,,,,,,,,,,Stimuli/psy_flexible_rotation_30_objects_occ0.7_0.9s/images/train/n04405907_8/n02933112_-2/img_stylized_tv_sink_base_white_wood_2012_gray.jpg,n04405907_8,n02933112_-2,flexible,0.760218,n02818832_0,Stimuli/psy_flexible_rotation_30_objects_occ0.7_0.9s/images/train/n04070727_5/n02818832_0/img_b05_db_apps_tech_06_13_composite_b03_the_sofa_and_chair_company_-_stanley_bed_2014_2012-3_gray.png,random,flexible,n04405907_8,n04379243_8,Stimuli/canonical view 2/img_n04405907_8_gray.jpg,Stimuli/canonical view 2/img_n04379243_8_gray.jpg,random,right,Experiments/experiment_9/268.jpg,Experiments/experiment_9/269.jpg,Experiments/experiment_9/270.jpg,Experiments/experiment_9/271.jpg,121,1,2023-06-28_14h18.57.156,Occlusion_Psychophysics,2022.1.4,Win32,239.2344498,,,left,"[""left""]",[1.136000000000081],False,,0.0,0.0,67.0,67.0,67.0,1.0,,,,,,
,,,,,,,,,,,,,,,,,,,,,0.025,,,,,,,,,,Stimuli/psy_flexible_rotation_30_objects_occ0.7_0.9s/images/train/n03928116_0/n04405907_9/img_b02_piano_vray_004_2010_gray.jpg,n03928116_0,n04405907_9,flexible,0.709,n03928116_10,Stimuli/psy_fixed_rotation_30_objects_occ0.7_0.9s/images/train/n04379243_8/n03928116_10/img_glass_table_ydp_103_r_2012__vray_2011-3_gray.png,random,fixed,n03928116_0,n04379243_-7,Stimuli/canonical view 2/img_n03928116_0_gray.jpg,Stimuli/canonical view 2/img_n04379243_-7_gray.jpg,random,right,Experiments/experiment_9/272.jpg,Experiments/experiment_9/273.jpg,Experiments/experiment_9/274.jpg,Experiments/experiment_9/275.jpg,121,1,2023-06-28_14h18.57.156,Occlusion_Psychophysics,2022.1.4,Win32,239.2344498,,,left,"[""right""]",[0.7549999999999955],False,,0.0,0.0,68.0,68.0,68.0,1.0,,,,,,
,,,,,,,,,,,,,,,,,,,,,0.025,,,,,,,,,,Stimuli/psy_flexible_rotation_30_objects_occ0.7_0.9s/images/train/n02933112_4/n04405907_5/img_buffet_samsung_40_uhd_smart_tv_2011_2002_gray.jpg,n02933112_4,n04405907_5,flexible,0.791326,n03928116_10,Stimuli/psy_fixed_rotation_30_objects_occ0.7_0.9s/images/train/n02818832_9/n03928116_10/img_bed01_blue_ydp_103_r_2012__vray_2013-3_gray.png,random,fixed,n02933112_4,n04405907_5,Stimuli/canonical view 2/img_n02933112_4_gray.jpg,Stimuli/canonical view 2/img_n04405907_5_gray.jpg,foreground,right,Experiments/experiment_9/276.jpg,Experiments/experiment_9/277.jpg,Experiments/experiment_9/278.jpg,Experiments/experiment_9/279.jpg,121,1,2023-06-28_14h18.57.156,Occlusion_Psychophysics,2022.1.4,Win32,239.2344498,,,right,"[""left""]",[0.8600000000000136],False,,0.0,0.0,69.0,69.0,69.0,1.0,,,,,,
,,,,,,,,,,,,,,,,,,,,,0.05,,,,,,,,,,Stimuli/psy_fixed_rotation_30_objects_occ0.7_0.9s/images/train/n03001627_9/n04256520_9/img_chair_eames_plastic_armchair_napoleon_iii_sofa_2008_gray.jpg,n03001627_9,n04256520_9,fixed,0.85591,n04256520_9,Stimuli/psy_fixed_rotation_30_objects_occ0.7_0.9s/images/train/n03001627_9/n04256520_9/img_chair_eames_plastic_armchair_napoleon_iii_sofa_2008-3_gray.png,foreground,same as foreground,n03001627_9,n02883344_0,Stimuli/canonical view 2/img_n03001627_9_gray.jpg,Stimuli/canonical view 2/img_n02883344_0_gray.jpg,random,left,Experiments/experiment_9/280.jpg,Experiments/experiment_9/281.jpg,Experiments/experiment_9/282.jpg,Experiments/experiment_9/283.jpg,121,1,2023-06-28_14h18.57.156,Occlusion_Psychophysics,2022.1.4,Win32,239.2344498,,,left,"[""right""]",[0.7099999999999227],False,,0.0,0.0,70.0,70.0,70.0,1.0,,,,,,
,,,,,,,,,,,,,,,,,,,,,0.025,,,,,,,,,,Stimuli/psy_flexible_rotation_30_objects_occ0.7_0.9s/images/train/n04405907_8/n03001627_8/img_stylized_tv_chair_billiani_doll_2006_gray.jpg,n04405907_8,n03001627_8,flexible,0.73509,n02818832_0,Stimuli/psy_flexible_rotation_30_objects_occ0.7_0.9s/images/train/n04256520_5/n02818832_0/img_meridiani_belmondo_bench_sofa_b03_the_sofa_and_chair_company_-_stanley_bed_2014_2013-3_gray.png,random,flexible,n04405907_8,n02828884_4,Stimuli/canonical view 2/img_n04405907_8_gray.jpg,Stimuli/canonical view 2/img_n02828884_4_gray.jpg,random,right,Experiments/experiment_9/284.jpg,Experiments/experiment_9/285.jpg,Experiments/experiment_9/286.jpg,Experiments/experiment_9/287.jpg,121,1,2023-06-28_14h18.57.156,Occlusion_Psychophysics,2022.1.4,Win32,239.2344498,,,right,"[""right""]",[1.1269999999999527],False,,0.0,0.0,71.0,71.0,71.0,1.0,,,,,,
,,,,,,,,,,,,,,,,,,,,,0.025,,,,,,,,,,Stimuli/psy_fixed_rotation_30_objects_occ0.7_0.9s/images/train/n04256520_9/n03928116_10/img_napoleon_iii_sofa_ydp_103_r_2012__vray_2007_gray.jpg,n04256520_9,n03928116_10,fixed,0.795111,n02818832_0,Stimuli/psy_flexible_rotation_30_objects_occ0.7_0.9s/images/train/n04256520_9/n02818832_0/img_napoleon_iii_sofa_b03_the_sofa_and_chair_company_-_stanley_bed_2014_2010-3_gray.png,random,flexible,n04256520_9,n04405907_8,Stimuli/canonical view 2/img_n04256520_9_gray.jpg,Stimuli/canonical view 2/img_n04405907_8_gray.jpg,random,left,Experiments/experiment_9/288.jpg,Experiments/experiment_9/289.jpg,Experiments/experiment_9/290.jpg,Experiments/experiment_9/291.jpg,121,1,2023-06-28_14h18.57.156,Occlusion_Psychophysics,2022.1.4,Win32,239.2344498,,,left,"[""right""]",[1.322999999999979],False,,0.0,0.0,72.0,72.0,72.0,1.0,,,,,,
,,,,,,,,,,,,,,,,,,,,,0.025,,,,,,,,,,Stimuli/psy_flexible_rotation_30_objects_occ0.7_0.9s/images/train/n02883344_15/n02933112_4/img_microwave_box_buffet_2005_gray.jpg,n02883344_15,n02933112_4,flexible,0.81965,n02883344_0,Stimuli/psy_fixed_rotation_30_objects_occ0.7_0.9s/images/train/n02883344_0/n02883344_0/img_b03_box_b03_box_2014-3_gray.png,random,fixed,n02883344_15,n02933112_4,Stimuli/canonical view 2/img_n02883344_15_gray.jpg,Stimuli/canonical view 2/img_n02933112_4_gray.jpg,foreground,right,Experiments/experiment_9/292.jpg,Experiments/experiment_9/293.jpg,Experiments/experiment_9/294.jpg,Experiments/experiment_9/295.jpg,121,1,2023-06-28_14h18.57.156,Occlusion_Psychophysics,2022.1.4,Win32,239.2344498,,,left,"[""left""]",[0.8740000000000236],False,,0.0,0.0,73.0,73.0,73.0,1.0,,,,,,
,,,,,,,,,,,,,,,,,,,,,0.025,,,,,,,,,,Stimuli/psy_fixed_rotation_30_objects_occ0.7_0.9s/images/train/n02883344_15/n02883344_-1/img_microwave_box_woven_box_2008_gray.jpg,n02883344_15,n02883344_-1,fixed,0.770232,n02883344_-1,Stimuli/psy_fixed_rotation_30_objects_occ0.7_0.9s/images/train/n02883344_15/n02883344_-1/img_microwave_box_woven_box_2008-3_gray.png,foreground,same as foreground,n02883344_15,n02883344_-1,Stimuli/canonical view 2/img_n02883344_15_gray.jpg,Stimuli/canonical view 2/img_n02883344_-1_gray.jpg,foreground,left,Experiments/experiment_9/296.jpg,Experiments/experiment_9/297.jpg,Experiments/experiment_9/298.jpg,Experiments/experiment_9/299.jpg,121,1,2023-06-28_14h18.57.156,Occlusion_Psychophysics,2022.1.4,Win32,239.2344498,,,right,"[""right""]",[0.5310000000000628],False,,0.0,0.0,74.0,74.0,74.0,1.0,,,,,,
,,,,,,,,,,,,,,,,,,,,,0.025,,,,,,,,,,Stimuli/psy_flexible_rotation_30_objects_occ0.7_0.9s/images/train/n02883344_0/n03928116_10/img_b03_box_ydp_103_r_2012__vray_2010_gray.jpg,n02883344_0,n03928116_10,flexible,0.729301,n03928116_10,Stimuli/psy_flexible_rotation_30_objects_occ0.7_0.9s/images/train/n02883344_0/n03928116_10/img_b03_box_ydp_103_r_2012__vray_2010-3_gray.png,foreground,same as foreground,n02883344_0,n02828884_9,Stimuli/canonical view 2/img_n02883344_0_gray.jpg,Stimuli/canonical view 2/img_n02828884_9_gray.jpg,random,left,Experiments/experiment_9/300.jpg,Experiments/experiment_9/301.jpg,Experiments/experiment_9/302.jpg,Experiments/experiment_9/303.jpg,121,1,2023-06-28_14h18.57.156,Occlusion_Psychophysics,2022.1.4,Win32,239.2344498,,,left,"[""left""]",[0.7970000000000255],False,,0.0,0.0,75.0,75.0,75.0,1.0,,,,,,
,,,,,,,,,,,,,,,,,,,,,0.025,,,,,,,,,,Stimuli/psy_fixed_rotation_30_objects_occ0.7_0.9s/images/train/n02933112_4/n02883344_-1/img_buffet_woven_box_2000_gray.jpg,n02933112_4,n02883344_-1,fixed,0.810684,n04405907_9,Stimuli/psy_flexible_rotation_30_objects_occ0.7_0.9s/images/train/n02933112_-18/n04405907_9/img_cgaxis_models_48_26_vray_composite_vray_004_2014-3_gray.png,random,flexible,n02933112_4,n02883344_-1,Stimuli/canonical view 2/img_n02933112_4_gray.jpg,Stimuli/canonical view 2/img_n02883344_-1_gray.jpg,foreground,left,Experiments/experiment_9/304.jpg,Experiments/experiment_9/305.jpg,Experiments/experiment_9/306.jpg,Experiments/experiment_9/307.jpg,121,1,2023-06-28_14h18.57.156,Occlusion_Psychophysics,2022.1.4,Win32,239.2344498,,,right,"[""left""]",[0.6470000000000482],False,,0.0,0.0,76.0,76.0,76.0,1.0,,,,,,
,,,,,,,,,,,,,,,,,,,,,0.05,,,,,,,,,,Stimuli/psy_fixed_rotation_30_objects_occ0.7_0.9s/images/train/n02883344_-1/n02883344_15/img_woven_box_microwave_box_2006_gray.jpg,n02883344_-1,n02883344_15,fixed,0.886832,n03001627_9,Stimuli/psy_flexible_rotation_30_objects_occ0.7_0.9s/images/train/n03928116_0/n03001627_9/img_b02_piano_chair_eames_plastic_armchair_2010-3_gray.png,random,flexible,n02883344_-1,n02883344_15,Stimuli/canonical view 2/img_n02883344_-1_gray.jpg,Stimuli/canonical view 2/img_n02883344_15_gray.jpg,foreground,right,Experiments/experiment_9/308.jpg,Experiments/experiment_9/309.jpg,Experiments/experiment_9/310.jpg,Experiments/experiment_9/311.jpg,121,1,2023-06-28_14h18.57.156,Occlusion_Psychophysics,2022.1.4,Win32,239.2344498,,,right,"[""right""]",[1.1230000000000473],False,,0.0,0.0,77.0,77.0,77.0,1.0,,,,,,
,,,,,,,,,,,,,,,,,,,,,0.025,,,,,,,,,,Stimuli/psy_flexible_rotation_30_objects_occ0.7_0.9s/images/train/n02883344_-1/n04256520_5/img_woven_box_meridiani_belmondo_bench_sofa_2011_gray.jpg,n02883344_-1,n04256520_5,flexible,0.718052,n04256520_5,Stimuli/psy_flexible_rotation_30_objects_occ0.7_0.9s/images/train/n02883344_-1/n04256520_5/img_woven_box_meridiani_belmondo_bench_sofa_2011-3_gray.png,foreground,same as foreground,n02883344_-1,n02933112_-2,Stimuli/canonical view 2/img_n02883344_-1_gray.jpg,Stimuli/canonical view 2/img_n02933112_-2_gray.jpg,random,right,Experiments/experiment_9/312.jpg,Experiments/experiment_9/313.jpg,Experiments/experiment_9/314.jpg,Experiments/experiment_9/315.jpg,121,1,2023-06-28_14h18.57.156,Occlusion_Psychophysics,2022.1.4,Win32,239.2344498,,,left,"[""left""]",[0.6620000000000346],False,,0.0,0.0,78.0,78.0,78.0,1.0,,,,,,
,,,,,,,,,,,,,,,,,,,,,0.025,,,,,,,,,,Stimuli/psy_flexible_rotation_30_objects_occ0.7_0.9s/images/train/n04379243_0/n02818832_9/img_17th_c._monastery_dining_table_2010_bed01_blue_2013_gray.jpg,n04379243_0,n02818832_9,flexible,0.741255,n02818832_9,Stimuli/psy_flexible_rotation_30_objects_occ0.7_0.9s/images/train/n04379243_0/n02818832_9/img_17th_c._monastery_dining_table_2010_bed01_blue_2013-3_gray.png,foreground,same as foreground,n04379243_0,n02933112_-18,Stimuli/canonical view 2/img_n04379243_0_gray.jpg,Stimuli/canonical view 2/img_n02933112_-18_gray.jpg,random,left,Experiments/experiment_9/316.jpg,Experiments/experiment_9/317.jpg,Experiments/experiment_9/318.jpg,Experiments/experiment_9/319.jpg,121,1,2023-06-28_14h18.57.156,Occlusion_Psychophysics,2022.1.4,Win32,239.2344498,,,left,"[""left""]",[0.9729999999999563],False,,0.0,0.0,79.0,79.0,79.0,1.0,,,,,,
,,,,,,,,,,,,,,,,,,,,,0.025,,,,,,,,,,Stimuli/psy_flexible_rotation_30_objects_occ0.7_0.9s/images/train/n04256520_5/n02883344_15/img_meridiani_belmondo_bench_sofa_microwave_box_2011_gray.jpg,n04256520_5,n02883344_15,flexible,0.713787,n02883344_15,Stimuli/psy_flexible_rotation_30_objects_occ0.7_0.9s/images/train/n04256520_5/n02883344_15/img_meridiani_belmondo_bench_sofa_microwave_box_2011-3_gray.png,foreground,same as foreground,n04256520_5,n02883344_15,Stimuli/canonical view 2/img_n04256520_5_gray.jpg,Stimuli/canonical view 2/img_n02883344_15_gray.jpg,foreground,right,Experiments/experiment_9/320.jpg,Experiments/experiment_9/321.jpg,Experiments/experiment_9/322.jpg,Experiments/experiment_9/323.jpg,121,1,2023-06-28_14h18.57.156,Occlusion_Psychophysics,2022.1.4,Win32,239.2344498,,,right,"[""right""]",[0.9149999999999636],False,,0.0,0.0,80.0,80.0,80.0,1.0,,,,,,
,,,,,,,,,,,,,,,,,,,,,0.025,,,,,,,,,,Stimuli/psy_flexible_rotation_30_objects_occ0.7_0.9s/images/train/n04379243_-7/n03928116_4/img_quatre_dining_table_dp_33_b_2013__vray_2001_gray.jpg,n04379243_-7,n03928116_4,flexible,0.752817,n04405907_8,Stimuli/psy_fixed_rotation_30_objects_occ0.7_0.9s/images/train/n02933112_-2/n04405907_8/img_sink_base_white_wood_stylized_tv_2003-3_gray.png,random,fixed,n04379243_-7,n04256520_9,Stimuli/canonical view 2/img_n04379243_-7_gray.jpg,Stimuli/canonical view 2/img_n04256520_9_gray.jpg,random,right,Experiments/experiment_9/324.jpg,Experiments/experiment_9/325.jpg,Experiments/experiment_9/326.jpg,Experiments/experiment_9/327.jpg,121,1,2023-06-28_14h18.57.156,Occlusion_Psychophysics,2022.1.4,Win32,239.2344498,,,right,"[""right""]",[1.2160000000000082],False,,0.0,0.0,81.0,81.0,81.0,1.0,,,,,,
,,,,,,,,,,,,,,,,,,,,,0.05,,,,,,,,,,Stimuli/psy_flexible_rotation_30_objects_occ0.7_0.9s/images/train/n03928116_10/n04256520_4/img_ydp_103_r_2012__vray_club_house_italia_nautilus_sofa_2001_gray.jpg,n03928116_10,n04256520_4,flexible,0.837582,n04256520_4,Stimuli/psy_flexible_rotation_30_objects_occ0.7_0.9s/images/train/n03928116_10/n04256520_4/img_ydp_103_r_2012__vray_club_house_italia_nautilus_sofa_2001-3_gray.png,foreground,same as foreground,n03928116_10,n04256520_4,Stimuli/canonical view 2/img_n03928116_10_gray.jpg,Stimuli/canonical view 2/img_n04256520_4_gray.jpg,foreground,left,Experiments/experiment_9/328.jpg,Experiments/experiment_9/329.jpg,Experiments/experiment_9/330.jpg,Experiments/experiment_9/331.jpg,121,1,2023-06-28_14h18.57.156,Occlusion_Psychophysics,2022.1.4,Win32,239.2344498,,,left,"[""left""]",[0.9169999999999163],False,,0.0,0.0,82.0,82.0,82.0,1.0,,,,,,
,,,,,,,,,,,,,,,,,,,,,0.05,,,,,,,,,,Stimuli/psy_flexible_rotation_30_objects_occ0.7_0.9s/images/train/n02818832_9/n02933112_-2/img_bed01_blue_sink_base_white_wood_2007_gray.jpg,n02818832_9,n02933112_-2,flexible,0.758603,n02933112_-2,Stimuli/psy_flexible_rotation_30_objects_occ0.7_0.9s/images/train/n02818832_9/n02933112_-2/img_bed01_blue_sink_base_white_wood_2007-3_gray.png,foreground,same as foreground,n02818832_9,n02933112_-2,Stimuli/canonical view 2/img_n02818832_9_gray.jpg,Stimuli/canonical view 2/img_n02933112_-2_gray.jpg,foreground,left,Experiments/experiment_9/332.jpg,Experiments/experiment_9/333.jpg,Experiments/experiment_9/334.jpg,Experiments/experiment_9/335.jpg,121,1,2023-06-28_14h18.57.156,Occlusion_Psychophysics,2022.1.4,Win32,239.2344498,,,left,"[""left""]",[0.7390000000000327],False,,0.0,0.0,83.0,83.0,83.0,1.0,,,,,,
,,,,,,,,,,,,,,,,,,,,,0.05,,,,,,,,,,Stimuli/psy_fixed_rotation_30_objects_occ0.7_0.9s/images/train/n03001627_8/n02883344_0/img_chair_billiani_doll_b03_box_2012_gray.jpg,n03001627_8,n02883344_0,fixed,0.718797,n02883344_0,Stimuli/psy_fixed_rotation_30_objects_occ0.7_0.9s/images/train/n03001627_8/n02883344_0/img_chair_billiani_doll_b03_box_2012-3_gray.png,foreground,same as foreground,n03001627_8,n03928116_4,Stimuli/canonical view 2/img_n03001627_8_gray.jpg,Stimuli/canonical view 2/img_n03928116_4_gray.jpg,random,right,Experiments/experiment_9/336.jpg,Experiments/experiment_9/337.jpg,Experiments/experiment_9/338.jpg,Experiments/experiment_9/339.jpg,121,1,2023-06-28_14h18.57.156,Occlusion_Psychophysics,2022.1.4,Win32,239.2344498,,,left,"[""left""]",[0.5939999999999372],False,,0.0,0.0,84.0,84.0,84.0,1.0,,,,,,
,,,,,,,,,,,,,,,,,,,,,0.05,,,,,,,,,,Stimuli/psy_fixed_rotation_30_objects_occ0.7_0.9s/images/train/n04405907_8/n03001627_9/img_stylized_tv_chair_eames_plastic_armchair_2011_gray.jpg,n04405907_8,n03001627_9,fixed,0.74789,n03001627_9,Stimuli/psy_fixed_rotation_30_objects_occ0.7_0.9s/images/train/n04405907_8/n03001627_9/img_stylized_tv_chair_eames_plastic_armchair_2011-3_gray.png,foreground,same as foreground,n04405907_8,n02828884_9,Stimuli/canonical view 2/img_n04405907_8_gray.jpg,Stimuli/canonical view 2/img_n02828884_9_gray.jpg,random,right,Experiments/experiment_9/340.jpg,Experiments/experiment_9/341.jpg,Experiments/experiment_9/342.jpg,Experiments/experiment_9/343.jpg,121,1,2023-06-28_14h18.57.156,Occlusion_Psychophysics,2022.1.4,Win32,239.2344498,,,right,"[""right""]",[0.5679999999999836],False,,0.0,0.0,85.0,85.0,85.0,1.0,,,,,,
,,,,,,,,,,,,,,,,,,,,,0.025,,,,,,,,,,Stimuli/psy_fixed_rotation_30_objects_occ0.7_0.9s/images/train/n04256520_9/n04405907_8/img_napoleon_iii_sofa_stylized_tv_2006_gray.jpg,n04256520_9,n04405907_8,fixed,0.773384,n03928116_0,Stimuli/psy_flexible_rotation_30_objects_occ0.7_0.9s/images/train/n04070727_5/n03928116_0/img_b05_db_apps_tech_06_13_composite_b02_piano_2007-3_gray.png,random,flexible,n04256520_9,n04405907_8,Stimuli/canonical view 2/img_n04256520_9_gray.jpg,Stimuli/canonical view 2/img_n04405907_8_gray.jpg,foreground,left,Experiments/experiment_9/344.jpg,Experiments/experiment_9/345.jpg,Experiments/experiment_9/346.jpg,Experiments/experiment_9/347.jpg,121,1,2023-06-28_14h18.57.156,Occlusion_Psychophysics,2022.1.4,Win32,239.2344498,,,right,"[""right""]",[0.7000000000000455],False,,0.0,0.0,86.0,86.0,86.0,1.0,,,,,,
,,,,,,,,,,,,,,,,,,,,,0.025,,,,,,,,,,Stimuli/psy_flexible_rotation_30_objects_occ0.7_0.9s/images/train/n02818832_0/n02883344_-1/img_b03_the_sofa_and_chair_company_-_stanley_bed_2014_woven_box_2013_gray.jpg,n02818832_0,n02883344_-1,flexible,0.73262,n02883344_-1,Stimuli/psy_flexible_rotation_30_objects_occ0.7_0.9s/images/train/n02818832_0/n02883344_-1/img_b03_the_sofa_and_chair_company_-_stanley_bed_2014_woven_box_2013-3_gray.png,foreground,same as foreground,n02818832_0,n02883344_-1,Stimuli/canonical view 2/img_n02818832_0_gray.jpg,Stimuli/canonical view 2/img_n02883344_-1_gray.jpg,foreground,right,Experiments/experiment_9/348.jpg,Experiments/experiment_9/349.jpg,Experiments/experiment_9/350.jpg,Experiments/experiment_9/351.jpg,121,1,2023-06-28_14h18.57.156,Occlusion_Psychophysics,2022.1.4,Win32,239.2344498,,,left,"[""right""]",[1.0620000000000118],False,,0.0,0.0,87.0,87.0,87.0,1.0,,,,,,
,,,,,,,,,,,,,,,,,,,,,0.025,,,,,,,,,,Stimuli/psy_fixed_rotation_30_objects_occ0.7_0.9s/images/train/n02818832_9/n02883344_0/img_bed01_blue_b03_box_2001_gray.jpg,n02818832_9,n02883344_0,fixed,0.772458,n02883344_0,Stimuli/psy_fixed_rotation_30_objects_occ0.7_0.9s/images/train/n02818832_9/n02883344_0/img_bed01_blue_b03_box_2001-3_gray.png,foreground,same as foreground,n02818832_9,n02933112_-2,Stimuli/canonical view 2/img_n02818832_9_gray.jpg,Stimuli/canonical view 2/img_n02933112_-2_gray.jpg,random,right,Experiments/experiment_9/352.jpg,Experiments/experiment_9/353.jpg,Experiments/experiment_9/354.jpg,Experiments/experiment_9/355.jpg,121,1,2023-06-28_14h18.57.156,Occlusion_Psychophysics,2022.1.4,Win32,239.2344498,,,right,"[""right""]",[0.7029999999999745],False,,0.0,0.0,88.0,88.0,88.0,1.0,,,,,,
,,,,,,,,,,,,,,,,,,,,,0.025,,,,,,,,,,Stimuli/psy_fixed_rotation_30_objects_occ0.7_0.9s/images/train/n04379243_8/n02818832_9/img_glass_table_bed01_blue_2000_gray.jpg,n04379243_8,n02818832_9,fixed,0.804073,n04256520_5,Stimuli/psy_flexible_rotation_30_objects_occ0.7_0.9s/images/train/n02883344_-1/n04256520_5/img_woven_box_meridiani_belmondo_bench_sofa_2008-3_gray.png,random,flexible,n04379243_8,n03001627_9,Stimuli/canonical view 2/img_n04379243_8_gray.jpg,Stimuli/canonical view 2/img_n03001627_9_gray.jpg,random,right,Experiments/experiment_9/356.jpg,Experiments/experiment_9/357.jpg,Experiments/experiment_9/358.jpg,Experiments/experiment_9/359.jpg,121,1,2023-06-28_14h18.57.156,Occlusion_Psychophysics,2022.1.4,Win32,239.2344498,,,right,"[""right""]",[0.5529999999999973],False,,0.0,0.0,89.0,89.0,89.0,1.0,,,,,,
,,,,,,,,,,,,,,,,,,,,,0.025,,,,,,,,,,Stimuli/psy_flexible_rotation_30_objects_occ0.7_0.9s/images/train/n02883344_-1/n04405907_8/img_woven_box_stylized_tv_2007_gray.jpg,n02883344_-1,n04405907_8,flexible,0.727919,n04405907_8,Stimuli/psy_flexible_rotation_30_objects_occ0.7_0.9s/images/train/n02883344_-1/n04405907_8/img_woven_box_stylized_tv_2007-3_gray.png,foreground,same as foreground,n02883344_-1,n04256520_9,Stimuli/canonical view 2/img_n02883344_-1_gray.jpg,Stimuli/canonical view 2/img_n04256520_9_gray.jpg,random,right,Experiments/experiment_9/360.jpg,Experiments/experiment_9/361.jpg,Experiments/experiment_9/362.jpg,Experiments/experiment_9/363.jpg,121,1,2023-06-28_14h18.57.156,Occlusion_Psychophysics,2022.1.4,Win32,239.2344498,,,left,"[""left""]",[0.6150000000000091],False,,0.0,0.0,90.0,90.0,90.0,1.0,,,,,,
,,,,,,,,,,,,,,,,,,,,,0.05,,,,,,,,,,Stimuli/psy_flexible_rotation_30_objects_occ0.7_0.9s/images/train/n02818832_3/n02828884_3/img_b05_ccm_contemporary_bed_max2013_b04_wood_metal_park_bench_2008_gray.jpg,n02818832_3,n02828884_3,flexible,0.731426,n04379243_8,Stimuli/psy_fixed_rotation_30_objects_occ0.7_0.9s/images/train/n02818832_9/n04379243_8/img_bed01_blue_glass_table_2007-3_gray.png,random,fixed,n02818832_3,n02828884_3,Stimuli/canonical view 2/img_n02818832_3_gray.jpg,Stimuli/canonical view 2/img_n02828884_3_gray.jpg,foreground,right,Experiments/experiment_9/364.jpg,Experiments/experiment_9/365.jpg,Experiments/experiment_9/366.jpg,Experiments/experiment_9/367.jpg,121,1,2023-06-28_14h18.57.156,Occlusion_Psychophysics,2022.1.4,Win32,239.2344498,,,right,"[""right""]",[1.36200000000008],False,,0.0,0.0,91.0,91.0,91.0,1.0,,,,,,
,,,,,,,,,,,,,,,,,,,,,0.05,,,,,,,,,,Stimuli/psy_flexible_rotation_30_objects_occ0.7_0.9s/images/train/n04379243_8/n02933112_-2/img_glass_table_sink_base_white_wood_2009_gray.jpg,n04379243_8,n02933112_-2,flexible,0.766288,n02933112_-2,Stimuli/psy_flexible_rotation_30_objects_occ0.7_0.9s/images/train/n04379243_8/n02933112_-2/img_glass_table_sink_base_white_wood_2009-3_gray.png,foreground,same as foreground,n04379243_8,n02883344_-1,Stimuli/canonical view 2/img_n04379243_8_gray.jpg,Stimuli/canonical view 2/img_n02883344_-1_gray.jpg,random,left,Experiments/experiment_9/368.jpg,Experiments/experiment_9/369.jpg,Experiments/experiment_9/370.jpg,Experiments/experiment_9/371.jpg,121,1,2023-06-28_14h18.57.156,Occlusion_Psychophysics,2022.1.4,Win32,239.2344498,,,right,"[""right""]",[0.5119999999999436],False,,0.0,0.0,92.0,92.0,92.0,1.0,,,,,,
,,,,,,,,,,,,,,,,,,,,,0.05,,,,,,,,,,Stimuli/psy_flexible_rotation_30_objects_occ0.7_0.9s/images/train/n02818832_9/n02933112_-18/img_bed01_blue_cgaxis_models_48_26_vray_composite_2008_gray.jpg,n02818832_9,n02933112_-18,flexible,0.73503,n02933112_-18,Stimuli/psy_flexible_rotation_30_objects_occ0.7_0.9s/images/train/n02818832_9/n02933112_-18/img_bed01_blue_cgaxis_models_48_26_vray_composite_2008-3_gray.png,foreground,same as foreground,n02818832_9,n02933112_-18,Stimuli/canonical view 2/img_n02818832_9_gray.jpg,Stimuli/canonical view 2/img_n02933112_-18_gray.jpg,foreground,left,Experiments/experiment_9/372.jpg,Experiments/experiment_9/373.jpg,Experiments/experiment_9/374.jpg,Experiments/experiment_9/375.jpg,121,1,2023-06-28_14h18.57.156,Occlusion_Psychophysics,2022.1.4,Win32,239.2344498,,,right,"[""left""]",[1.3400000000000318],False,,0.0,0.0,93.0,93.0,93.0,1.0,,,,,,
,,,,,,,,,,,,,,,,,,,,,0.025,,,,,,,,,,Stimuli/psy_flexible_rotation_30_objects_occ0.7_0.9s/images/train/n02883344_-1/n04256520_4/img_woven_box_club_house_italia_nautilus_sofa_2012_gray.jpg,n02883344_-1,n04256520_4,flexible,0.82425,n04256520_4,Stimuli/psy_flexible_rotation_30_objects_occ0.7_0.9s/images/train/n02883344_-1/n04256520_4/img_woven_box_club_house_italia_nautilus_sofa_2012-3_gray.png,foreground,same as foreground,n02883344_-1,n04256520_4,Stimuli/canonical view 2/img_n02883344_-1_gray.jpg,Stimuli/canonical view 2/img_n04256520_4_gray.jpg,foreground,right,Experiments/experiment_9/376.jpg,Experiments/experiment_9/377.jpg,Experiments/experiment_9/378.jpg,Experiments/experiment_9/379.jpg,121,1,2023-06-28_14h18.57.156,Occlusion_Psychophysics,2022.1.4,Win32,239.2344498,,,left,"[""left""]",[0.7110000000000127],False,,0.0,0.0,94.0,94.0,94.0,1.0,,,,,,
,,,,,,,,,,,,,,,,,,,,,0.05,,,,,,,,,,Stimuli/psy_fixed_rotation_30_objects_occ0.7_0.9s/images/train/n02883344_0/n02818832_9/img_b03_box_bed01_blue_2006_gray.jpg,n02883344_0,n02818832_9,fixed,0.709409,n02883344_15,Stimuli/psy_fixed_rotation_30_objects_occ0.7_0.9s/images/train/n02933112_-18/n02883344_15/img_cgaxis_models_48_26_vray_composite_microwave_box_2002-3_gray.png,random,fixed,n02883344_0,n02828884_9,Stimuli/canonical view 2/img_n02883344_0_gray.jpg,Stimuli/canonical view 2/img_n02828884_9_gray.jpg,random,right,Experiments/experiment_9/380.jpg,Experiments/experiment_9/381.jpg,Experiments/experiment_9/382.jpg,Experiments/experiment_9/383.jpg,121,1,2023-06-28_14h18.57.156,Occlusion_Psychophysics,2022.1.4,Win32,239.2344498,,,left,"[""left""]",[0.5299999999999727],False,,0.0,0.0,95.0,95.0,95.0,1.0,,,,,,
,,,,,,,,,,,,,,,,,,,,,0.025,,,,,,,,,,Stimuli/psy_flexible_rotation_30_objects_occ0.7_0.9s/images/train/n04405907_9/n02883344_0/img_vray_004_b03_box_2012_gray.jpg,n04405907_9,n02883344_0,flexible,0.779273,n04405907_5,Stimuli/psy_flexible_rotation_30_objects_occ0.7_0.9s/images/train/n04379243_8/n04405907_5/img_glass_table_samsung_40_uhd_smart_tv_2011_2004-3_gray.png,random,flexible,n04405907_9,n04379243_-7,Stimuli/canonical view 2/img_n04405907_9_gray.jpg,Stimuli/canonical view 2/img_n04379243_-7_gray.jpg,random,right,Experiments/experiment_9/384.jpg,Experiments/experiment_9/385.jpg,Experiments/experiment_9/386.jpg,Experiments/experiment_9/387.jpg,121,1,2023-06-28_14h18.57.156,Occlusion_Psychophysics,2022.1.4,Win32,239.2344498,,,left,"[""left""]",[2.5379999999998972],False,,0.0,0.0,96.0,96.0,96.0,1.0,,,,,,
,,,,,,,,,,,,,,,,,,,,,0.05,,,,,,,,,,Stimuli/psy_fixed_rotation_30_objects_occ0.7_0.9s/images/train/n04256520_9/n04379243_-7/img_napoleon_iii_sofa_quatre_dining_table_2002_gray.jpg,n04256520_9,n04379243_-7,fixed,0.79124,n02818832_0,Stimuli/psy_flexible_rotation_30_objects_occ0.7_0.9s/images/train/n02818832_9/n02818832_0/img_bed01_blue_b03_the_sofa_and_chair_company_-_stanley_bed_2014_2010-3_gray.png,random,flexible,n04256520_9,n02933112_4,Stimuli/canonical view 2/img_n04256520_9_gray.jpg,Stimuli/canonical view 2/img_n02933112_4_gray.jpg,random,left,Experiments/experiment_9/388.jpg,Experiments/experiment_9/389.jpg,Experiments/experiment_9/390.jpg,Experiments/experiment_9/391.jpg,121,1,2023-06-28_14h18.57.156,Occlusion_Psychophysics,2022.1.4,Win32,239.2344498,,,right,"[""right""]",[0.49299999999993815],True,right,1.0,0.0,97.0,97.0,97.0,1.0,1.167,,,,,
,,,,,,,,,,,,,,,,,,,,,0.05,,,,,,,,,,Stimuli/psy_fixed_rotation_30_objects_occ0.7_0.9s/images/train/n04256520_9/n04405907_5/img_napoleon_iii_sofa_samsung_40_uhd_smart_tv_2011_2014_gray.jpg,n04256520_9,n04405907_5,fixed,0.700746,n02933112_-2,Stimuli/psy_fixed_rotation_30_objects_occ0.7_0.9s/images/train/n03928116_0/n02933112_-2/img_b02_piano_sink_base_white_wood_2006-3_gray.png,random,fixed,n04256520_9,n04256520_5,Stimuli/canonical view 2/img_n04256520_9_gray.jpg,Stimuli/canonical view 2/img_n04256520_5_gray.jpg,random,left,Experiments/experiment_9/392.jpg,Experiments/experiment_9/393.jpg,Experiments/experiment_9/394.jpg,Experiments/experiment_9/395.jpg,121,1,2023-06-28_14h18.57.156,Occlusion_Psychophysics,2022.1.4,Win32,239.2344498,,,right,"[""right""]",[1.3829999999999245],False,,0.0,0.0,98.0,98.0,98.0,1.0,,,,,,
,,,,,,,,,,,,,,,,,,,,,0.025,,,,,,,,,,Stimuli/psy_fixed_rotation_30_objects_occ0.7_0.9s/images/train/n02818832_0/n02818832_9/img_b03_the_sofa_and_chair_company_-_stanley_bed_2014_bed01_blue_2008_gray.jpg,n02818832_0,n02818832_9,fixed,0.893944,n02818832_9,Stimuli/psy_fixed_rotation_30_objects_occ0.7_0.9s/images/train/n02818832_0/n02818832_9/img_b03_the_sofa_and_chair_company_-_stanley_bed_2014_bed01_blue_2008-3_gray.png,foreground,same as foreground,n02818832_0,n02818832_9,Stimuli/canonical view 2/img_n02818832_0_gray.jpg,Stimuli/canonical view 2/img_n02818832_9_gray.jpg,foreground,right,Experiments/experiment_9/396.jpg,Experiments/experiment_9/397.jpg,Experiments/experiment_9/398.jpg,Experiments/experiment_9/399.jpg,121,1,2023-06-28_14h18.57.156,Occlusion_Psychophysics,2022.1.4,Win32,239.2344498,,,right,"[""right""]",[0.6200000000000045],False,,0.0,0.0,99.0,99.0,99.0,1.0,,,,,,
,,,,,,,,,,,,,,,,,,,,,,,,,,,,,,,,,,,,,,,,,,,,,,,,,,121,1,2023-06-28_14h18.57.156,Occlusion_Psychophysics,2022.1.4,Win32,239.2344498,,,,,,,,,,,,,,,0.0,0.0,0.0,0.0,1.0
,,,,,,,,,,,,,,,,,,,,,0.025,,,,,,,,,,Stimuli/psy_flexible_rotation_30_objects_occ0.7_0.9s/images/train/n02883344_-1/n02933112_-18/img_woven_box_cgaxis_models_48_26_vray_composite_2012_gray.jpg,n02883344_-1,n02933112_-18,flexible,0.736806,n02933112_-18,Stimuli/psy_flexible_rotation_30_objects_occ0.7_0.9s/images/train/n02883344_-1/n02933112_-18/img_woven_box_cgaxis_models_48_26_vray_composite_2012-3_gray.png,foreground,same as foreground,n02883344_-1,n02933112_-18,Stimuli/canonical view 2/img_n02883344_-1_gray.jpg,Stimuli/canonical view 2/img_n02933112_-18_gray.jpg,foreground,right,Experiments/experiment_9/400.jpg,Experiments/experiment_9/401.jpg,Experiments/experiment_9/402.jpg,Experiments/experiment_9/403.jpg,121,1,2023-06-28_14h18.57.156,Occlusion_Psychophysics,2022.1.4,Win32,239.2344498,,,right,"[""right""]",[0.6190000000000282],False,,0.0,0.0,0.0,0.0,0.0,1.0,,,,,,
,,,,,,,,,,,,,,,,,,,,,0.025,,,,,,,,,,Stimuli/psy_fixed_rotation_30_objects_occ0.7_0.9s/images/train/n03928116_4/n04379243_-7/img_dp_33_b_2013__vray_quatre_dining_table_2010_gray.jpg,n03928116_4,n04379243_-7,fixed,0.757836,n02933112_4,Stimuli/psy_fixed_rotation_30_objects_occ0.7_0.9s/images/train/n02818832_0/n02933112_4/img_b03_the_sofa_and_chair_company_-_stanley_bed_2014_buffet_2005-3_gray.png,random,fixed,n03928116_4,n04256520_9,Stimuli/canonical view 2/img_n03928116_4_gray.jpg,Stimuli/canonical view 2/img_n04256520_9_gray.jpg,random,left,Experiments/experiment_9/404.jpg,Experiments/experiment_9/405.jpg,Experiments/experiment_9/406.jpg,Experiments/experiment_9/407.jpg,121,1,2023-06-28_14h18.57.156,Occlusion_Psychophysics,2022.1.4,Win32,239.2344498,,,right,"[""right""]",[1.405999999999949],False,,0.0,0.0,1.0,1.0,1.0,1.0,,,,,,
,,,,,,,,,,,,,,,,,,,,,0.025,,,,,,,,,,Stimuli/psy_flexible_rotation_30_objects_occ0.7_0.9s/images/train/n04405907_8/n04379243_0/img_stylized_tv_17th_c._monastery_dining_table_2010_2009_gray.jpg,n04405907_8,n04379243_0,flexible,0.725966,n02933112_-2,Stimuli/psy_flexible_rotation_30_objects_occ0.7_0.9s/images/train/n04379243_8/n02933112_-2/img_glass_table_sink_base_white_wood_2000-3_gray.png,random,flexible,n04405907_8,n03001627_9,Stimuli/canonical view 2/img_n04405907_8_gray.jpg,Stimuli/canonical view 2/img_n03001627_9_gray.jpg,random,left,Experiments/experiment_9/408.jpg,Experiments/experiment_9/409.jpg,Experiments/experiment_9/410.jpg,Experiments/experiment_9/411.jpg,121,1,2023-06-28_14h18.57.156,Occlusion_Psychophysics,2022.1.4,Win32,239.2344498,,,left,"[""left""]",[0.5430000000000064],False,,0.0,0.0,2.0,2.0,2.0,1.0,,,,,,
,,,,,,,,,,,,,,,,,,,,,0.05,,,,,,,,,,Stimuli/psy_fixed_rotation_30_objects_occ0.7_0.9s/images/train/n02883344_0/n03928116_10/img_b03_box_ydp_103_r_2012__vray_2015_gray.jpg,n02883344_0,n03928116_10,fixed,0.732819,n02818832_3,Stimuli/psy_flexible_rotation_30_objects_occ0.7_0.9s/images/train/n02933112_-18/n02818832_3/img_cgaxis_models_48_26_vray_composite_b05_ccm_contemporary_bed_max2013_2004-3_gray.png,random,flexible,n02883344_0,n04405907_9,Stimuli/canonical view 2/img_n02883344_0_gray.jpg,Stimuli/canonical view 2/img_n04405907_9_gray.jpg,random,left,Experiments/experiment_9/412.jpg,Experiments/experiment_9/413.jpg,Experiments/experiment_9/414.jpg,Experiments/experiment_9/415.jpg,121,1,2023-06-28_14h18.57.156,Occlusion_Psychophysics,2022.1.4,Win32,239.2344498,,,right,"[""right""]",[0.4249999999999545],False,,0.0,0.0,3.0,3.0,3.0,1.0,,,,,,
,,,,,,,,,,,,,,,,,,,,,0.05,,,,,,,,,,Stimuli/psy_fixed_rotation_30_objects_occ0.7_0.9s/images/train/n02818832_9/n04379243_-7/img_bed01_blue_quatre_dining_table_2010_gray.jpg,n02818832_9,n04379243_-7,fixed,0.735886,n04379243_-7,Stimuli/psy_fixed_rotation_30_objects_occ0.7_0.9s/images/train/n02818832_9/n04379243_-7/img_bed01_blue_quatre_dining_table_2010-3_gray.png,foreground,same as foreground,n02818832_9,n04256520_4,Stimuli/canonical view 2/img_n02818832_9_gray.jpg,Stimuli/canonical view 2/img_n04256520_4_gray.jpg,random,left,Experiments/experiment_9/416.jpg,Experiments/experiment_9/417.jpg,Experiments/experiment_9/418.jpg,Experiments/experiment_9/419.jpg,121,1,2023-06-28_14h18.57.156,Occlusion_Psychophysics,2022.1.4,Win32,239.2344498,,,right,"[""right""]",[0.6190000000000282],False,,0.0,0.0,4.0,4.0,4.0,1.0,,,,,,
,,,,,,,,,,,,,,,,,,,,,0.025,,,,,,,,,,Stimuli/psy_fixed_rotation_30_objects_occ0.7_0.9s/images/train/n02933112_-18/n02933112_-2/img_cgaxis_models_48_26_vray_composite_sink_base_white_wood_2015_gray.jpg,n02933112_-18,n02933112_-2,fixed,0.704666,n02933112_-2,Stimuli/psy_fixed_rotation_30_objects_occ0.7_0.9s/images/train/n02933112_-18/n02933112_-2/img_cgaxis_models_48_26_vray_composite_sink_base_white_wood_2015-3_gray.png,foreground,same as foreground,n02933112_-18,n04256520_9,Stimuli/canonical view 2/img_n02933112_-18_gray.jpg,Stimuli/canonical view 2/img_n04256520_9_gray.jpg,random,right,Experiments/experiment_9/420.jpg,Experiments/experiment_9/421.jpg,Experiments/experiment_9/422.jpg,Experiments/experiment_9/423.jpg,121,1,2023-06-28_14h18.57.156,Occlusion_Psychophysics,2022.1.4,Win32,239.2344498,,,left,"[""right""]",[0.9269999999999072],False,,0.0,0.0,5.0,5.0,5.0,1.0,,,,,,
,,,,,,,,,,,,,,,,,,,,,0.05,,,,,,,,,,Stimuli/psy_fixed_rotation_30_objects_occ0.7_0.9s/images/train/n04379243_0/n02883344_-1/img_17th_c._monastery_dining_table_2010_woven_box_2001_gray.jpg,n04379243_0,n02883344_-1,fixed,0.717356,n02818832_0,Stimuli/psy_fixed_rotation_30_objects_occ0.7_0.9s/images/train/n02933112_-2/n02818832_0/img_sink_base_white_wood_b03_the_sofa_and_chair_company_-_stanley_bed_2014_2000-3_gray.png,random,fixed,n04379243_0,n02883344_-1,Stimuli/canonical view 2/img_n04379243_0_gray.jpg,Stimuli/canonical view 2/img_n02883344_-1_gray.jpg,foreground,right,Experiments/experiment_9/424.jpg,Experiments/experiment_9/425.jpg,Experiments/experiment_9/426.jpg,Experiments/experiment_9/427.jpg,121,1,2023-06-28_14h18.57.156,Occlusion_Psychophysics,2022.1.4,Win32,239.2344498,,,right,"[""right""]",[0.44000000000005457],False,,0.0,0.0,6.0,6.0,6.0,1.0,,,,,,
,,,,,,,,,,,,,,,,,,,,,0.025,,,,,,,,,,Stimuli/psy_fixed_rotation_30_objects_occ0.7_0.9s/images/train/n04405907_5/n03928116_10/img_samsung_40_uhd_smart_tv_2011_ydp_103_r_2012__vray_2006_gray.jpg,n04405907_5,n03928116_10,fixed,0.765166,n04405907_9,Stimuli/psy_fixed_rotation_30_objects_occ0.7_0.9s/images/train/n04379243_-7/n04405907_9/img_quatre_dining_table_vray_004_2005-3_gray.png,random,fixed,n04405907_5,n03928116_10,Stimuli/canonical view 2/img_n04405907_5_gray.jpg,Stimuli/canonical view 2/img_n03928116_10_gray.jpg,foreground,left,Experiments/experiment_9/428.jpg,Experiments/experiment_9/429.jpg,Experiments/experiment_9/430.jpg,Experiments/experiment_9/431.jpg,121,1,2023-06-28_14h18.57.156,Occlusion_Psychophysics,2022.1.4,Win32,239.2344498,,,right,"[""left""]",[0.6149999999998954],False,,0.0,0.0,7.0,7.0,7.0,1.0,,,,,,
,,,,,,,,,,,,,,,,,,,,,0.05,,,,,,,,,,Stimuli/psy_flexible_rotation_30_objects_occ0.7_0.9s/images/train/n02828884_4/n04379243_0/img_b05_c-5_classic_series_bench-2012_17th_c._monastery_dining_table_2010_2006_gray.jpg,n02828884_4,n04379243_0,flexible,0.726651,n02883344_0,Stimuli/psy_flexible_rotation_30_objects_occ0.7_0.9s/images/train/n02933112_-2/n02883344_0/img_sink_base_white_wood_b03_box_2001-3_gray.png,random,flexible,n02828884_4,n02883344_0,Stimuli/canonical view 2/img_n02828884_4_gray.jpg,Stimuli/canonical view 2/img_n02883344_0_gray.jpg,random,left,Experiments/experiment_9/432.jpg,Experiments/experiment_9/433.jpg,Experiments/experiment_9/434.jpg,Experiments/experiment_9/435.jpg,121,1,2023-06-28_14h18.57.156,Occlusion_Psychophysics,2022.1.4,Win32,239.2344498,,,left,"[""left""]",[0.8479999999999563],False,,0.0,0.0,8.0,8.0,8.0,1.0,,,,,,
,,,,,,,,,,,,,,,,,,,,,0.025,,,,,,,,,,Stimuli/psy_fixed_rotation_30_objects_occ0.7_0.9s/images/train/n02933112_-2/n02818832_3/img_sink_base_white_wood_b05_ccm_contemporary_bed_max2013_2013_gray.jpg,n02933112_-2,n02818832_3,fixed,0.761306,n02883344_15,Stimuli/psy_fixed_rotation_30_objects_occ0.7_0.9s/images/train/n04379243_0/n02883344_15/img_17th_c._monastery_dining_table_2010_microwave_box_2002-3_gray.png,random,fixed,n02933112_-2,n02818832_3,Stimuli/canonical view 2/img_n02933112_-2_gray.jpg,Stimuli/canonical view 2/img_n02818832_3_gray.jpg,foreground,right,Experiments/experiment_9/436.jpg,Experiments/experiment_9/437.jpg,Experiments/experiment_9/438.jpg,Experiments/experiment_9/439.jpg,121,1,2023-06-28_14h18.57.156,Occlusion_Psychophysics,2022.1.4,Win32,239.2344498,,,right,"[""right""]",[1.31899999999996],False,,0.0,0.0,9.0,9.0,9.0,1.0,,,,,,
,,,,,,,,,,,,,,,,,,,,,0.05,,,,,,,,,,Stimuli/psy_flexible_rotation_30_objects_occ0.7_0.9s/images/train/n04405907_8/n04379243_0/img_stylized_tv_17th_c._monastery_dining_table_2010_2011_gray.jpg,n04405907_8,n04379243_0,flexible,0.700461,n04379243_0,Stimuli/psy_flexible_rotation_30_objects_occ0.7_0.9s/images/train/n04405907_8/n04379243_0/img_stylized_tv_17th_c._monastery_dining_table_2010_2011-3_gray.png,foreground,same as foreground,n04405907_8,n04379243_0,Stimuli/canonical view 2/img_n04405907_8_gray.jpg,Stimuli/canonical view 2/img_n04379243_0_gray.jpg,foreground,right,Experiments/experiment_9/440.jpg,Experiments/experiment_9/441.jpg,Experiments/experiment_9/442.jpg,Experiments/experiment_9/443.jpg,121,1,2023-06-28_14h18.57.156,Occlusion_Psychophysics,2022.1.4,Win32,239.2344498,,,right,"[""right""]",[0.5119999999999436],False,,0.0,0.0,10.0,10.0,10.0,1.0,,,,,,
,,,,,,,,,,,,,,,,,,,,,0.025,,,,,,,,,,Stimuli/psy_flexible_rotation_30_objects_occ0.7_0.9s/images/train/n02883344_15/n04379243_0/img_microwave_box_17th_c._monastery_dining_table_2010_2000_gray.jpg,n02883344_15,n04379243_0,flexible,0.710861,n03001627_9,Stimuli/psy_fixed_rotation_30_objects_occ0.7_0.9s/images/train/n03001627_8/n03001627_9/img_chair_billiani_doll_chair_eames_plastic_armchair_2003-3_gray.png,random,fixed,n02883344_15,n04379243_0,Stimuli/canonical view 2/img_n02883344_15_gray.jpg,Stimuli/canonical view 2/img_n04379243_0_gray.jpg,foreground,right,Experiments/experiment_9/444.jpg,Experiments/experiment_9/445.jpg,Experiments/experiment_9/446.jpg,Experiments/experiment_9/447.jpg,121,1,2023-06-28_14h18.57.156,Occlusion_Psychophysics,2022.1.4,Win32,239.2344498,,,right,"[""right""]",[0.6009999999999991],False,,0.0,0.0,11.0,11.0,11.0,1.0,,,,,,
,,,,,,,,,,,,,,,,,,,,,0.025,,,,,,,,,,Stimuli/psy_fixed_rotation_30_objects_occ0.7_0.9s/images/train/n02818832_0/n03928116_0/img_b03_the_sofa_and_chair_company_-_stanley_bed_2014_b02_piano_2003_gray.jpg,n02818832_0,n03928116_0,fixed,0.784898,n03928116_0,Stimuli/psy_fixed_rotation_30_objects_occ0.7_0.9s/images/train/n02818832_0/n03928116_0/img_b03_the_sofa_and_chair_company_-_stanley_bed_2014_b02_piano_2003-3_gray.png,foreground,same as foreground,n02818832_0,n03928116_0,Stimuli/canonical view 2/img_n02818832_0_gray.jpg,Stimuli/canonical view 2/img_n03928116_0_gray.jpg,foreground,right,Experiments/experiment_9/448.jpg,Experiments/experiment_9/449.jpg,Experiments/experiment_9/450.jpg,Experiments/experiment_9/451.jpg,121,1,2023-06-28_14h18.57.156,Occlusion_Psychophysics,2022.1.4,Win32,239.2344498,,,right,"[""right""]",[1],False,,0.0,0.0,12.0,12.0,12.0,1.0,,,,,,
,,,,,,,,,,,,,,,,,,,,,0.025,,,,,,,,,,Stimuli/psy_fixed_rotation_30_objects_occ0.7_0.9s/images/train/n04379243_0/n02883344_-1/img_17th_c._monastery_dining_table_2010_woven_box_2005_gray.jpg,n04379243_0,n02883344_-1,fixed,0.820767,n02883344_-1,Stimuli/psy_fixed_rotation_30_objects_occ0.7_0.9s/images/train/n04379243_0/n02883344_-1/img_17th_c._monastery_dining_table_2010_woven_box_2005-3_gray.png,foreground,same as foreground,n04379243_0,n02883344_-1,Stimuli/canonical view 2/img_n04379243_0_gray.jpg,Stimuli/canonical view 2/img_n02883344_-1_gray.jpg,foreground,right,Experiments/experiment_9/452.jpg,Experiments/experiment_9/453.jpg,Experiments/experiment_9/454.jpg,Experiments/experiment_9/455.jpg,121,1,2023-06-28_14h18.57.156,Occlusion_Psychophysics,2022.1.4,Win32,239.2344498,,,right,"[""right""]",[0.48299999999994725],False,,0.0,0.0,13.0,13.0,13.0,1.0,,,,,,
,,,,,,,,,,,,,,,,,,,,,0.025,,,,,,,,,,Stimuli/psy_fixed_rotation_30_objects_occ0.7_0.9s/images/train/n02818832_9/n02883344_0/img_bed01_blue_b03_box_2010_gray.jpg,n02818832_9,n02883344_0,fixed,0.808477,n04405907_8,Stimuli/psy_fixed_rotation_30_objects_occ0.7_0.9s/images/train/n04070727_3/n04405907_8/img_b05_db_apps_tech_06_02_2_composite_stylized_tv_2006-3_gray.png,random,fixed,n02818832_9,n02818832_3,Stimuli/canonical view 2/img_n02818832_9_gray.jpg,Stimuli/canonical view 2/img_n02818832_3_gray.jpg,random,left,Experiments/experiment_9/456.jpg,Experiments/experiment_9/457.jpg,Experiments/experiment_9/458.jpg,Experiments/experiment_9/459.jpg,121,1,2023-06-28_14h18.57.156,Occlusion_Psychophysics,2022.1.4,Win32,239.2344498,,,left,"[""left""]",[1.2779999999999063],False,,0.0,0.0,14.0,14.0,14.0,1.0,,,,,,
