in_color,Instructions_key.keys,Instructions_key.rt,Tutorial_instruction_key.keys,Tutorial_instruction_key.rt,Tutorial_fixation_ley.keys,Tutorial_fixation_ley.rt,Tutorial_single_img_key.keys,Tutorial_single_img_key.rt,Tutorial_intra_trial_fixation_key.keys,Tutorial_intra_trial_fixation_key.rt,Tutorial_stimulus_key.keys,Tutorial_stimulus_key.rt,Tutorial_response_key.keys,Tutorial_response_key.rt,Tutorial_attention_check_key.keys,Tutorial_attention_check_key.rt,advance_or_repeat.keys,advance_or_repeat.rt,Practice_instructions_key.keys,Practice_instructions_key.rt,intra_trial_duration,Practice_key_response.keys,Practice_key_response.rt,Practice_react_key.keys,Practice_react_key.rt,Practice_loop.thisRepN,Practice_loop.thisTrialN,Practice_loop.thisN,Practice_loop.thisIndex,Practice_loop.ran,multi_object_filepath,background_id,foreground_id,multi_object_rotation,occlusion_level,single_object_id,single_object_filepath,single_is_foreground_or_random,single_object_rotation,background_choice_id,alt_choice_id,background_option_filepath,alternative_option_filepath,alternative_is_foreground_or_random,location_of_correct_answer,multi_object_exp_filename,single_object_exp_filename,background_option_exp_filename,alternative_option_exp_filename,participant,session,date,expName,psychopyVersion,OS,frameRate,Practice_end_key.keys,Practice_end_key.rt,correct_answer,Input_selection.keys,Input_selection.rt,Was_attention_check,Attention_check.keys,Attention_check.corr,Each_session_loop.thisRepN,Each_session_loop.thisTrialN,Each_session_loop.thisN,Each_session_loop.thisIndex,Each_session_loop.ran,Attention_check.rt,Num_sessions.thisRepN,Num_sessions.thisTrialN,Num_sessions.thisN,Num_sessions.thisIndex,Num_sessions.ran
False,space,25.4181,right,4.3732,right,1.79,right,3.2066,right,2.1784,right,6.9079,right,9.7786,right,5.8061,a,5.0273,right,3.477,0.05,right,1.812,r,3.0575,0.0,0.0,0.0,0.0,1.0,Stimuli/psy_flexible_rotation_30_objects_occ0.7_0.9s/images/train/n04379243_8/n02883344_-1/img_glass_table_woven_box_2006_gray.jpg,n04379243_8,n02883344_-1,flexible,0.796465,n02883344_-1,Stimuli/psy_flexible_rotation_30_objects_occ0.7_0.9s/images/train/n04379243_8/n02883344_-1/img_glass_table_woven_box_2006-3_gray.png,foreground,same as foreground,n04379243_8,n02933112_4,Stimuli/canonical view 2/img_n04379243_8_gray.jpg,Stimuli/canonical view 2/img_n02933112_4_gray.jpg,random,left,Experiments/experiment_28/1000.jpg,Experiments/experiment_28/1001.jpg,Experiments/experiment_28/1002.jpg,Experiments/experiment_28/1003.jpg,137,1,2023-05-26_10h08.47.417,Occlusion_Psychophysics,2022.1.4,Win32,60.11421701,,,,,,,,,,,,,,,,,,,
,,,,,,,,,,,,,,,,,,,,,0.05,right,1.1861,r,2.4833,0.0,1.0,1.0,1.0,1.0,Stimuli/psy_fixed_rotation_30_objects_occ0.7_0.9s/images/train/n02883344_0/n02883344_15/img_b03_box_microwave_box_2000_gray.jpg,n02883344_0,n02883344_15,fixed,0.879458,n04405907_9,Stimuli/psy_fixed_rotation_30_objects_occ0.7_0.9s/images/train/n02818832_3/n04405907_9/img_b05_ccm_contemporary_bed_max2013_vray_004_2012-3_gray.png,random,fixed,n02883344_0,n02883344_15,Stimuli/canonical view 2/img_n02883344_0_gray.jpg,Stimuli/canonical view 2/img_n02883344_15_gray.jpg,foreground,left,Experiments/experiment_28/1004.jpg,Experiments/experiment_28/1005.jpg,Experiments/experiment_28/1006.jpg,Experiments/experiment_28/1007.jpg,137,1,2023-05-26_10h08.47.417,Occlusion_Psychophysics,2022.1.4,Win32,60.11421701,,,,,,,,,,,,,,,,,,,
,,,,,,,,,,,,,,,,,,,,,0.025,right,0.9896,r,2.7159,0.0,2.0,2.0,2.0,1.0,Stimuli/psy_flexible_rotation_30_objects_occ0.7_0.9s/images/train/n04256520_9/n03928116_10/img_napoleon_iii_sofa_ydp_103_r_2012__vray_2011_gray.jpg,n04256520_9,n03928116_10,flexible,0.738286,n03928116_0,Stimuli/psy_flexible_rotation_30_objects_occ0.7_0.9s/images/train/n02818832_9/n03928116_0/img_bed01_blue_b02_piano_2003-3_gray.png,random,flexible,n04256520_9,n03928116_10,Stimuli/canonical view 2/img_n04256520_9_gray.jpg,Stimuli/canonical view 2/img_n03928116_10_gray.jpg,foreground,left,Experiments/experiment_28/1008.jpg,Experiments/experiment_28/1009.jpg,Experiments/experiment_28/1010.jpg,Experiments/experiment_28/1011.jpg,137,1,2023-05-26_10h08.47.417,Occlusion_Psychophysics,2022.1.4,Win32,60.11421701,,,,,,,,,,,,,,,,,,,
,,,,,,,,,,,,,,,,,,,,,0.025,right,1.8931,r,2.0607,0.0,3.0,3.0,3.0,1.0,Stimuli/psy_fixed_rotation_30_objects_occ0.7_0.9s/images/train/n02933112_-2/n02818832_9/img_sink_base_white_wood_bed01_blue_2008_gray.jpg,n02933112_-2,n02818832_9,fixed,0.81857,n02818832_3,Stimuli/psy_fixed_rotation_30_objects_occ0.7_0.9s/images/train/n02883344_-1/n02818832_3/img_woven_box_b05_ccm_contemporary_bed_max2013_2000-3_gray.png,random,fixed,n02933112_-2,n02883344_-1,Stimuli/canonical view 2/img_n02933112_-2_gray.jpg,Stimuli/canonical view 2/img_n02883344_-1_gray.jpg,random,right,Experiments/experiment_28/1012.jpg,Experiments/experiment_28/1013.jpg,Experiments/experiment_28/1014.jpg,Experiments/experiment_28/1015.jpg,137,1,2023-05-26_10h08.47.417,Occlusion_Psychophysics,2022.1.4,Win32,60.11421701,,,,,,,,,,,,,,,,,,,
,,,,,,,,,,,,,,,,,,,,,0.05,right,1.042,r,2.1055,0.0,4.0,4.0,4.0,1.0,Stimuli/psy_fixed_rotation_30_objects_occ0.7_0.9s/images/train/n04405907_8/n02883344_-1/img_stylized_tv_woven_box_2014_gray.jpg,n04405907_8,n02883344_-1,fixed,0.753242,n02883344_-1,Stimuli/psy_fixed_rotation_30_objects_occ0.7_0.9s/images/train/n04405907_8/n02883344_-1/img_stylized_tv_woven_box_2014-3_gray.png,foreground,same as foreground,n04405907_8,n02883344_-1,Stimuli/canonical view 2/img_n04405907_8_gray.jpg,Stimuli/canonical view 2/img_n02883344_-1_gray.jpg,foreground,left,Experiments/experiment_28/1016.jpg,Experiments/experiment_28/1017.jpg,Experiments/experiment_28/1018.jpg,Experiments/experiment_28/1019.jpg,137,1,2023-05-26_10h08.47.417,Occlusion_Psychophysics,2022.1.4,Win32,60.11421701,,,,,,,,,,,,,,,,,,,
,,,,,,,,,,,,,,,,,,,,,0.05,left,1.1296,r,2.5985,0.0,5.0,5.0,5.0,1.0,Stimuli/psy_flexible_rotation_30_objects_occ0.7_0.9s/images/train/n02883344_-1/n04405907_8/img_woven_box_stylized_tv_2002_gray.jpg,n02883344_-1,n04405907_8,flexible,0.803708,n04405907_8,Stimuli/psy_flexible_rotation_30_objects_occ0.7_0.9s/images/train/n02883344_-1/n04405907_8/img_woven_box_stylized_tv_2002-3_gray.png,foreground,same as foreground,n02883344_-1,n03928116_4,Stimuli/canonical view 2/img_n02883344_-1_gray.jpg,Stimuli/canonical view 2/img_n03928116_4_gray.jpg,random,left,Experiments/experiment_28/1020.jpg,Experiments/experiment_28/1021.jpg,Experiments/experiment_28/1022.jpg,Experiments/experiment_28/1023.jpg,137,1,2023-05-26_10h08.47.417,Occlusion_Psychophysics,2022.1.4,Win32,60.11421701,,,,,,,,,,,,,,,,,,,
,,,,,,,,,,,,,,,,,,,,,0.05,left,1.2762,r,1.6569,0.0,6.0,6.0,6.0,1.0,Stimuli/psy_fixed_rotation_30_objects_occ0.7_0.9s/images/train/n02933112_-18/n02883344_15/img_cgaxis_models_48_26_vray_composite_microwave_box_2011_gray.jpg,n02933112_-18,n02883344_15,fixed,0.709392,n02828884_3,Stimuli/psy_flexible_rotation_30_objects_occ0.7_0.9s/images/train/n02828884_4/n02828884_3/img_b05_c-5_classic_series_bench-2012_b04_wood_metal_park_bench_2005-3_gray.png,random,flexible,n02933112_-18,n02883344_15,Stimuli/canonical view 2/img_n02933112_-18_gray.jpg,Stimuli/canonical view 2/img_n02883344_15_gray.jpg,foreground,right,Experiments/experiment_28/1024.jpg,Experiments/experiment_28/1025.jpg,Experiments/experiment_28/1026.jpg,Experiments/experiment_28/1027.jpg,137,1,2023-05-26_10h08.47.417,Occlusion_Psychophysics,2022.1.4,Win32,60.11421701,,,,,,,,,,,,,,,,,,,
,,,,,,,,,,,,,,,,,,,,,0.05,left,1.135,r,1.4032,0.0,7.0,7.0,7.0,1.0,Stimuli/psy_flexible_rotation_30_objects_occ0.7_0.9s/images/train/n03001627_8/n03001627_9/img_chair_billiani_doll_chair_eames_plastic_armchair_2012_gray.jpg,n03001627_8,n03001627_9,flexible,0.721983,n04256520_4,Stimuli/psy_fixed_rotation_30_objects_occ0.7_0.9s/images/train/n04256520_5/n04256520_4/img_meridiani_belmondo_bench_sofa_club_house_italia_nautilus_sofa_2008-3_gray.png,random,fixed,n03001627_8,n03001627_9,Stimuli/canonical view 2/img_n03001627_8_gray.jpg,Stimuli/canonical view 2/img_n03001627_9_gray.jpg,foreground,right,Experiments/experiment_28/1028.jpg,Experiments/experiment_28/1029.jpg,Experiments/experiment_28/1030.jpg,Experiments/experiment_28/1031.jpg,137,1,2023-05-26_10h08.47.417,Occlusion_Psychophysics,2022.1.4,Win32,60.11421701,,,,,,,,,,,,,,,,,,,
,,,,,,,,,,,,,,,,,,,,,0.05,left,1.5061,r,2.4192,0.0,8.0,8.0,8.0,1.0,Stimuli/psy_flexible_rotation_30_objects_occ0.7_0.9s/images/train/n04379243_-7/n04405907_5/img_quatre_dining_table_samsung_40_uhd_smart_tv_2011_2012_gray.jpg,n04379243_-7,n04405907_5,flexible,0.703503,n04379243_8,Stimuli/psy_fixed_rotation_30_objects_occ0.7_0.9s/images/train/n02818832_0/n04379243_8/img_b03_the_sofa_and_chair_company_-_stanley_bed_2014_glass_table_2011-3_gray.png,random,fixed,n04379243_-7,n04405907_8,Stimuli/canonical view 2/img_n04379243_-7_gray.jpg,Stimuli/canonical view 2/img_n04405907_8_gray.jpg,random,right,Experiments/experiment_28/1032.jpg,Experiments/experiment_28/1033.jpg,Experiments/experiment_28/1034.jpg,Experiments/experiment_28/1035.jpg,137,1,2023-05-26_10h08.47.417,Occlusion_Psychophysics,2022.1.4,Win32,60.11421701,,,,,,,,,,,,,,,,,,,
,,,,,,,,,,,,,,,,,,,,,0.05,right,0.8375,r,1.8312,0.0,9.0,9.0,9.0,1.0,Stimuli/psy_flexible_rotation_30_objects_occ0.7_0.9s/images/train/n03001627_8/n04405907_8/img_chair_billiani_doll_stylized_tv_2008_gray.jpg,n03001627_8,n04405907_8,flexible,0.73252,n03928116_0,Stimuli/psy_fixed_rotation_30_objects_occ0.7_0.9s/images/train/n03928116_10/n03928116_0/img_ydp_103_r_2012__vray_b02_piano_2000-3_gray.png,random,fixed,n03001627_8,n04405907_8,Stimuli/canonical view 2/img_n03001627_8_gray.jpg,Stimuli/canonical view 2/img_n04405907_8_gray.jpg,foreground,left,Experiments/experiment_28/1036.jpg,Experiments/experiment_28/1037.jpg,Experiments/experiment_28/1038.jpg,Experiments/experiment_28/1039.jpg,137,1,2023-05-26_10h08.47.417,Occlusion_Psychophysics,2022.1.4,Win32,60.11421701,,,,,,,,,,,,,,,,,,,
,,,,,,,,,,,,,,,,,,,,,0.025,left,1.0828,a,2.9436,0.0,10.0,10.0,10.0,1.0,Stimuli/psy_flexible_rotation_30_objects_occ0.7_0.9s/images/train/n02828884_3/n02933112_-2/img_b04_wood_metal_park_bench_sink_base_white_wood_2009_gray.jpg,n02828884_3,n02933112_-2,flexible,0.780194,n02933112_-2,Stimuli/psy_flexible_rotation_30_objects_occ0.7_0.9s/images/train/n02828884_3/n02933112_-2/img_b04_wood_metal_park_bench_sink_base_white_wood_2009-3_gray.png,foreground,same as foreground,n02828884_3,n04405907_8,Stimuli/canonical view 2/img_n02828884_3_gray.jpg,Stimuli/canonical view 2/img_n04405907_8_gray.jpg,random,right,Experiments/experiment_28/1040.jpg,Experiments/experiment_28/1041.jpg,Experiments/experiment_28/1042.jpg,Experiments/experiment_28/1043.jpg,137,1,2023-05-26_10h08.47.417,Occlusion_Psychophysics,2022.1.4,Win32,60.11421701,,,,,,,,,,,,,,,,,,,
,,,,,,,,,,,,,,,,,,,,,0.025,,,,,,,,,,Stimuli/psy_fixed_rotation_30_objects_occ0.7_0.9s/images/train/n03928116_10/n02818832_9/img_ydp_103_r_2012__vray_bed01_blue_2008_gray.jpg,n03928116_10,n02818832_9,fixed,0.755562,n02818832_9,Stimuli/psy_fixed_rotation_30_objects_occ0.7_0.9s/images/train/n03928116_10/n02818832_9/img_ydp_103_r_2012__vray_bed01_blue_2008-3_gray.png,foreground,same as foreground,n03928116_10,n02818832_9,Stimuli/canonical view 2/img_n03928116_10_gray.jpg,Stimuli/canonical view 2/img_n02818832_9_gray.jpg,foreground,left,Experiments/experiment_28/0.jpg,Experiments/experiment_28/1.jpg,Experiments/experiment_28/2.jpg,Experiments/experiment_28/3.jpg,137,1,2023-05-26_10h08.47.417,Occlusion_Psychophysics,2022.1.4,Win32,60.11421701,a,1.9218,right,"[""right""]",[2.627200000047708],False,,0.0,0.0,0.0,0.0,0.0,1.0,,,,,,
,,,,,,,,,,,,,,,,,,,,,0.025,,,,,,,,,,Stimuli/psy_flexible_rotation_30_objects_occ0.7_0.9s/images/train/n04405907_9/n04256520_4/img_vray_004_club_house_italia_nautilus_sofa_2010_gray.jpg,n04405907_9,n04256520_4,flexible,0.827999,n04256520_4,Stimuli/psy_flexible_rotation_30_objects_occ0.7_0.9s/images/train/n04405907_9/n04256520_4/img_vray_004_club_house_italia_nautilus_sofa_2010-3_gray.png,foreground,same as foreground,n04405907_9,n02818832_9,Stimuli/canonical view 2/img_n04405907_9_gray.jpg,Stimuli/canonical view 2/img_n02818832_9_gray.jpg,random,right,Experiments/experiment_28/4.jpg,Experiments/experiment_28/5.jpg,Experiments/experiment_28/6.jpg,Experiments/experiment_28/7.jpg,137,1,2023-05-26_10h08.47.417,Occlusion_Psychophysics,2022.1.4,Win32,60.11421701,,,left,"[""left""]",[1.1840999999046176],False,,0.0,0.0,1.0,1.0,1.0,1.0,,,,,,
,,,,,,,,,,,,,,,,,,,,,0.025,,,,,,,,,,Stimuli/psy_flexible_rotation_30_objects_occ0.7_0.9s/images/train/n04405907_8/n04405907_9/img_stylized_tv_vray_004_2004_gray.jpg,n04405907_8,n04405907_9,flexible,0.712743,n04405907_9,Stimuli/psy_flexible_rotation_30_objects_occ0.7_0.9s/images/train/n04405907_8/n04405907_9/img_stylized_tv_vray_004_2004-3_gray.png,foreground,same as foreground,n04405907_8,n04405907_9,Stimuli/canonical view 2/img_n04405907_8_gray.jpg,Stimuli/canonical view 2/img_n04405907_9_gray.jpg,foreground,right,Experiments/experiment_28/8.jpg,Experiments/experiment_28/9.jpg,Experiments/experiment_28/10.jpg,Experiments/experiment_28/11.jpg,137,1,2023-05-26_10h08.47.417,Occlusion_Psychophysics,2022.1.4,Win32,60.11421701,,,left,"[""left""]",[1.3347999999522813],False,,0.0,0.0,2.0,2.0,2.0,1.0,,,,,,
,,,,,,,,,,,,,,,,,,,,,0.05,,,,,,,,,,Stimuli/psy_fixed_rotation_30_objects_occ0.7_0.9s/images/train/n04256520_5/n02818832_9/img_meridiani_belmondo_bench_sofa_bed01_blue_2009_gray.jpg,n04256520_5,n02818832_9,fixed,0.738319,n02818832_3,Stimuli/psy_flexible_rotation_30_objects_occ0.7_0.9s/images/train/n02883344_0/n02818832_3/img_b03_box_b05_ccm_contemporary_bed_max2013_2002-3_gray.png,random,flexible,n04256520_5,n02818832_9,Stimuli/canonical view 2/img_n04256520_5_gray.jpg,Stimuli/canonical view 2/img_n02818832_9_gray.jpg,foreground,left,Experiments/experiment_28/12.jpg,Experiments/experiment_28/13.jpg,Experiments/experiment_28/14.jpg,Experiments/experiment_28/15.jpg,137,1,2023-05-26_10h08.47.417,Occlusion_Psychophysics,2022.1.4,Win32,60.11421701,,,right,"[""right""]",[1.790099999904669],False,,0.0,0.0,3.0,3.0,3.0,1.0,,,,,,
,,,,,,,,,,,,,,,,,,,,,0.05,,,,,,,,,,Stimuli/psy_fixed_rotation_30_objects_occ0.7_0.9s/images/train/n02933112_-18/n02818832_9/img_cgaxis_models_48_26_vray_composite_bed01_blue_2001_gray.jpg,n02933112_-18,n02818832_9,fixed,0.831008,n04405907_5,Stimuli/psy_flexible_rotation_30_objects_occ0.7_0.9s/images/train/n04405907_5/n04405907_5/img_samsung_40_uhd_smart_tv_2011_samsung_40_uhd_smart_tv_2011_2002-3_gray.png,random,flexible,n02933112_-18,n02883344_-1,Stimuli/canonical view 2/img_n02933112_-18_gray.jpg,Stimuli/canonical view 2/img_n02883344_-1_gray.jpg,random,right,Experiments/experiment_28/16.jpg,Experiments/experiment_28/17.jpg,Experiments/experiment_28/18.jpg,Experiments/experiment_28/19.jpg,137,1,2023-05-26_10h08.47.417,Occlusion_Psychophysics,2022.1.4,Win32,60.11421701,,,right,"[""right""]",[1.0510999999046362],False,,0.0,0.0,4.0,4.0,4.0,1.0,,,,,,
,,,,,,,,,,,,,,,,,,,,,0.05,,,,,,,,,,Stimuli/psy_flexible_rotation_30_objects_occ0.7_0.9s/images/train/n03001627_8/n04405907_5/img_chair_billiani_doll_samsung_40_uhd_smart_tv_2011_2009_gray.jpg,n03001627_8,n04405907_5,flexible,0.777278,n04405907_5,Stimuli/psy_flexible_rotation_30_objects_occ0.7_0.9s/images/train/n03001627_8/n04405907_5/img_chair_billiani_doll_samsung_40_uhd_smart_tv_2011_2009-3_gray.png,foreground,same as foreground,n03001627_8,n04405907_5,Stimuli/canonical view 2/img_n03001627_8_gray.jpg,Stimuli/canonical view 2/img_n04405907_5_gray.jpg,foreground,right,Experiments/experiment_28/20.jpg,Experiments/experiment_28/21.jpg,Experiments/experiment_28/22.jpg,Experiments/experiment_28/23.jpg,137,1,2023-05-26_10h08.47.417,Occlusion_Psychophysics,2022.1.4,Win32,60.11421701,,,right,"[""right""]",[0.7010999999046135],False,,0.0,0.0,5.0,5.0,5.0,1.0,,,,,,
,,,,,,,,,,,,,,,,,,,,,0.05,,,,,,,,,,Stimuli/psy_flexible_rotation_30_objects_occ0.7_0.9s/images/train/n04405907_8/n02883344_15/img_stylized_tv_microwave_box_2011_gray.jpg,n04405907_8,n02883344_15,flexible,0.887286,n04379243_0,Stimuli/psy_flexible_rotation_30_objects_occ0.7_0.9s/images/train/n02828884_4/n04379243_0/img_b05_c-5_classic_series_bench-2012_17th_c._monastery_dining_table_2010_2003-3_gray.png,random,flexible,n04405907_8,n02883344_15,Stimuli/canonical view 2/img_n04405907_8_gray.jpg,Stimuli/canonical view 2/img_n02883344_15_gray.jpg,foreground,right,Experiments/experiment_28/24.jpg,Experiments/experiment_28/25.jpg,Experiments/experiment_28/26.jpg,Experiments/experiment_28/27.jpg,137,1,2023-05-26_10h08.47.417,Occlusion_Psychophysics,2022.1.4,Win32,60.11421701,,,left,"[""left""]",[1.4334000000953324],False,,0.0,0.0,6.0,6.0,6.0,1.0,,,,,,
,,,,,,,,,,,,,,,,,,,,,0.05,,,,,,,,,,Stimuli/psy_flexible_rotation_30_objects_occ0.7_0.9s/images/train/n03001627_9/n04256520_4/img_chair_eames_plastic_armchair_club_house_italia_nautilus_sofa_2002_gray.jpg,n03001627_9,n04256520_4,flexible,0.711718,n04256520_4,Stimuli/psy_flexible_rotation_30_objects_occ0.7_0.9s/images/train/n03001627_9/n04256520_4/img_chair_eames_plastic_armchair_club_house_italia_nautilus_sofa_2002-3_gray.png,foreground,same as foreground,n03001627_9,n04379243_0,Stimuli/canonical view 2/img_n03001627_9_gray.jpg,Stimuli/canonical view 2/img_n04379243_0_gray.jpg,random,right,Experiments/experiment_28/28.jpg,Experiments/experiment_28/29.jpg,Experiments/experiment_28/30.jpg,Experiments/experiment_28/31.jpg,137,1,2023-05-26_10h08.47.417,Occlusion_Psychophysics,2022.1.4,Win32,60.11421701,,,right,"[""left""]",[1.317299999952354],False,,0.0,0.0,7.0,7.0,7.0,1.0,,,,,,
,,,,,,,,,,,,,,,,,,,,,0.05,,,,,,,,,,Stimuli/psy_flexible_rotation_30_objects_occ0.7_0.9s/images/train/n03001627_9/n02828884_3/img_chair_eames_plastic_armchair_b04_wood_metal_park_bench_2006_gray.jpg,n03001627_9,n02828884_3,flexible,0.701443,n02828884_3,Stimuli/psy_flexible_rotation_30_objects_occ0.7_0.9s/images/train/n03001627_9/n02828884_3/img_chair_eames_plastic_armchair_b04_wood_metal_park_bench_2006-3_gray.png,foreground,same as foreground,n03001627_9,n03001627_-2,Stimuli/canonical view 2/img_n03001627_9_gray.jpg,Stimuli/canonical view 2/img_n03001627_-2_gray.jpg,random,right,Experiments/experiment_28/32.jpg,Experiments/experiment_28/33.jpg,Experiments/experiment_28/34.jpg,Experiments/experiment_28/35.jpg,137,1,2023-05-26_10h08.47.417,Occlusion_Psychophysics,2022.1.4,Win32,60.11421701,,,right,"[""right""]",[0.8485000000000014],False,,0.0,0.0,8.0,8.0,8.0,1.0,,,,,,
,,,,,,,,,,,,,,,,,,,,,0.05,,,,,,,,,,Stimuli/psy_fixed_rotation_30_objects_occ0.7_0.9s/images/train/n04379243_0/n04256520_9/img_17th_c._monastery_dining_table_2010_napoleon_iii_sofa_2014_gray.jpg,n04379243_0,n04256520_9,fixed,0.708238,n04256520_9,Stimuli/psy_fixed_rotation_30_objects_occ0.7_0.9s/images/train/n04379243_0/n04256520_9/img_17th_c._monastery_dining_table_2010_napoleon_iii_sofa_2014-3_gray.png,foreground,same as foreground,n04379243_0,n04379243_8,Stimuli/canonical view 2/img_n04379243_0_gray.jpg,Stimuli/canonical view 2/img_n04379243_8_gray.jpg,random,right,Experiments/experiment_28/36.jpg,Experiments/experiment_28/37.jpg,Experiments/experiment_28/38.jpg,Experiments/experiment_28/39.jpg,137,1,2023-05-26_10h08.47.417,Occlusion_Psychophysics,2022.1.4,Win32,60.11421701,,,left,"[""right""]",[0.9830999999046526],True,left,1.0,0.0,9.0,9.0,9.0,1.0,0.9716,,,,,
,,,,,,,,,,,,,,,,,,,,,0.05,,,,,,,,,,Stimuli/psy_flexible_rotation_30_objects_occ0.7_0.9s/images/train/n02883344_0/n03928116_10/img_b03_box_ydp_103_r_2012__vray_2006_gray.jpg,n02883344_0,n03928116_10,flexible,0.746407,n04405907_9,Stimuli/psy_fixed_rotation_30_objects_occ0.7_0.9s/images/train/n02818832_0/n04405907_9/img_b03_the_sofa_and_chair_company_-_stanley_bed_2014_vray_004_2015-3_gray.png,random,fixed,n02883344_0,n04256520_4,Stimuli/canonical view 2/img_n02883344_0_gray.jpg,Stimuli/canonical view 2/img_n04256520_4_gray.jpg,random,right,Experiments/experiment_28/40.jpg,Experiments/experiment_28/41.jpg,Experiments/experiment_28/42.jpg,Experiments/experiment_28/43.jpg,137,1,2023-05-26_10h08.47.417,Occlusion_Psychophysics,2022.1.4,Win32,60.11421701,,,right,"[""right""]",[0.7487999999523254],False,,0.0,0.0,10.0,10.0,10.0,1.0,,,,,,
,,,,,,,,,,,,,,,,,,,,,0.025,,,,,,,,,,Stimuli/psy_fixed_rotation_30_objects_occ0.7_0.9s/images/train/n04405907_9/n02883344_0/img_vray_004_b03_box_2006_gray.jpg,n04405907_9,n02883344_0,fixed,0.715865,n02883344_0,Stimuli/psy_fixed_rotation_30_objects_occ0.7_0.9s/images/train/n04405907_9/n02883344_0/img_vray_004_b03_box_2006-3_gray.png,foreground,same as foreground,n04405907_9,n03928116_10,Stimuli/canonical view 2/img_n04405907_9_gray.jpg,Stimuli/canonical view 2/img_n03928116_10_gray.jpg,random,left,Experiments/experiment_28/44.jpg,Experiments/experiment_28/45.jpg,Experiments/experiment_28/46.jpg,Experiments/experiment_28/47.jpg,137,1,2023-05-26_10h08.47.417,Occlusion_Psychophysics,2022.1.4,Win32,60.11421701,,,right,"[""right""]",[1.0052000000476937],False,,0.0,0.0,11.0,11.0,11.0,1.0,,,,,,
,,,,,,,,,,,,,,,,,,,,,0.025,,,,,,,,,,Stimuli/psy_flexible_rotation_30_objects_occ0.7_0.9s/images/train/n02883344_-1/n02828884_3/img_woven_box_b04_wood_metal_park_bench_2006_gray.jpg,n02883344_-1,n02828884_3,flexible,0.700541,n03928116_0,Stimuli/psy_flexible_rotation_30_objects_occ0.7_0.9s/images/train/n03001627_9/n03928116_0/img_chair_eames_plastic_armchair_b02_piano_2013-3_gray.png,random,flexible,n02883344_-1,n02828884_3,Stimuli/canonical view 2/img_n02883344_-1_gray.jpg,Stimuli/canonical view 2/img_n02828884_3_gray.jpg,foreground,right,Experiments/experiment_28/48.jpg,Experiments/experiment_28/49.jpg,Experiments/experiment_28/50.jpg,Experiments/experiment_28/51.jpg,137,1,2023-05-26_10h08.47.417,Occlusion_Psychophysics,2022.1.4,Win32,60.11421701,,,left,"[""left""]",[0.6481000001430175],False,,0.0,0.0,12.0,12.0,12.0,1.0,,,,,,
,,,,,,,,,,,,,,,,,,,,,0.05,,,,,,,,,,Stimuli/psy_flexible_rotation_30_objects_occ0.7_0.9s/images/train/n04379243_-7/n04256520_5/img_quatre_dining_table_meridiani_belmondo_bench_sofa_2011_gray.jpg,n04379243_-7,n04256520_5,flexible,0.871631,n02883344_0,Stimuli/psy_flexible_rotation_30_objects_occ0.7_0.9s/images/train/n02818832_9/n02883344_0/img_bed01_blue_b03_box_2001-3_gray.png,random,flexible,n04379243_-7,n04256520_5,Stimuli/canonical view 2/img_n04379243_-7_gray.jpg,Stimuli/canonical view 2/img_n04256520_5_gray.jpg,foreground,left,Experiments/experiment_28/52.jpg,Experiments/experiment_28/53.jpg,Experiments/experiment_28/54.jpg,Experiments/experiment_28/55.jpg,137,1,2023-05-26_10h08.47.417,Occlusion_Psychophysics,2022.1.4,Win32,60.11421701,,,left,"[""left""]",[1.0270000000000437],True,left,1.0,0.0,13.0,13.0,13.0,1.0,0.7714,,,,,
,,,,,,,,,,,,,,,,,,,,,0.025,,,,,,,,,,Stimuli/psy_flexible_rotation_30_objects_occ0.7_0.9s/images/train/n02818832_9/n02883344_0/img_bed01_blue_b03_box_2011_gray.jpg,n02818832_9,n02883344_0,flexible,0.741142,n04379243_-7,Stimuli/psy_flexible_rotation_30_objects_occ0.7_0.9s/images/train/n04256520_5/n04379243_-7/img_meridiani_belmondo_bench_sofa_quatre_dining_table_2004-3_gray.png,random,flexible,n02818832_9,n03928116_10,Stimuli/canonical view 2/img_n02818832_9_gray.jpg,Stimuli/canonical view 2/img_n03928116_10_gray.jpg,random,right,Experiments/experiment_28/56.jpg,Experiments/experiment_28/57.jpg,Experiments/experiment_28/58.jpg,Experiments/experiment_28/59.jpg,137,1,2023-05-26_10h08.47.417,Occlusion_Psychophysics,2022.1.4,Win32,60.11421701,,,left,"[""left""]",[0.7509000000953847],False,,0.0,0.0,14.0,14.0,14.0,1.0,,,,,,
,,,,,,,,,,,,,,,,,,,,,0.05,,,,,,,,,,Stimuli/psy_flexible_rotation_30_objects_occ0.7_0.9s/images/train/n03001627_9/n03928116_10/img_chair_eames_plastic_armchair_ydp_103_r_2012__vray_2013_gray.jpg,n03001627_9,n03928116_10,flexible,0.738536,n03928116_10,Stimuli/psy_flexible_rotation_30_objects_occ0.7_0.9s/images/train/n03001627_9/n03928116_10/img_chair_eames_plastic_armchair_ydp_103_r_2012__vray_2013-3_gray.png,foreground,same as foreground,n03001627_9,n03928116_10,Stimuli/canonical view 2/img_n03001627_9_gray.jpg,Stimuli/canonical view 2/img_n03928116_10_gray.jpg,foreground,right,Experiments/experiment_28/60.jpg,Experiments/experiment_28/61.jpg,Experiments/experiment_28/62.jpg,Experiments/experiment_28/63.jpg,137,1,2023-05-26_10h08.47.417,Occlusion_Psychophysics,2022.1.4,Win32,60.11421701,,,left,"[""left""]",[0.5691000001430666],False,,0.0,0.0,15.0,15.0,15.0,1.0,,,,,,
,,,,,,,,,,,,,,,,,,,,,0.05,,,,,,,,,,Stimuli/psy_flexible_rotation_30_objects_occ0.7_0.9s/images/train/n04379243_8/n02818832_0/img_glass_table_b03_the_sofa_and_chair_company_-_stanley_bed_2014_2004_gray.jpg,n04379243_8,n02818832_0,flexible,0.721147,n02818832_0,Stimuli/psy_flexible_rotation_30_objects_occ0.7_0.9s/images/train/n04379243_8/n02818832_0/img_glass_table_b03_the_sofa_and_chair_company_-_stanley_bed_2014_2004-3_gray.png,foreground,same as foreground,n04379243_8,n02818832_0,Stimuli/canonical view 2/img_n04379243_8_gray.jpg,Stimuli/canonical view 2/img_n02818832_0_gray.jpg,foreground,left,Experiments/experiment_28/64.jpg,Experiments/experiment_28/65.jpg,Experiments/experiment_28/66.jpg,Experiments/experiment_28/67.jpg,137,1,2023-05-26_10h08.47.417,Occlusion_Psychophysics,2022.1.4,Win32,60.11421701,,,left,"[""left""]",[0.7162999999524118],False,,0.0,0.0,16.0,16.0,16.0,1.0,,,,,,
,,,,,,,,,,,,,,,,,,,,,0.05,,,,,,,,,,Stimuli/psy_flexible_rotation_30_objects_occ0.7_0.9s/images/train/n02818832_3/n04405907_9/img_b05_ccm_contemporary_bed_max2013_vray_004_2014_gray.jpg,n02818832_3,n04405907_9,flexible,0.846608,n04405907_9,Stimuli/psy_flexible_rotation_30_objects_occ0.7_0.9s/images/train/n02818832_3/n04405907_9/img_b05_ccm_contemporary_bed_max2013_vray_004_2014-3_gray.png,foreground,same as foreground,n02818832_3,n04405907_9,Stimuli/canonical view 2/img_n02818832_3_gray.jpg,Stimuli/canonical view 2/img_n04405907_9_gray.jpg,foreground,left,Experiments/experiment_28/68.jpg,Experiments/experiment_28/69.jpg,Experiments/experiment_28/70.jpg,Experiments/experiment_28/71.jpg,137,1,2023-05-26_10h08.47.417,Occlusion_Psychophysics,2022.1.4,Win32,60.11421701,,,left,"[""left""]",[1.0677000000476937],False,,0.0,0.0,17.0,17.0,17.0,1.0,,,,,,
,,,,,,,,,,,,,,,,,,,,,0.025,,,,,,,,,,Stimuli/psy_flexible_rotation_30_objects_occ0.7_0.9s/images/train/n02828884_9/n04256520_4/img_cr-96_bench_club_house_italia_nautilus_sofa_2003_gray.jpg,n02828884_9,n04256520_4,flexible,0.86496,n04256520_4,Stimuli/psy_flexible_rotation_30_objects_occ0.7_0.9s/images/train/n02828884_9/n04256520_4/img_cr-96_bench_club_house_italia_nautilus_sofa_2003-3_gray.png,foreground,same as foreground,n02828884_9,n04256520_4,Stimuli/canonical view 2/img_n02828884_9_gray.jpg,Stimuli/canonical view 2/img_n04256520_4_gray.jpg,foreground,left,Experiments/experiment_28/72.jpg,Experiments/experiment_28/73.jpg,Experiments/experiment_28/74.jpg,Experiments/experiment_28/75.jpg,137,1,2023-05-26_10h08.47.417,Occlusion_Psychophysics,2022.1.4,Win32,60.11421701,,,right,"[""left""]",[0.6607000000476546],False,,0.0,0.0,18.0,18.0,18.0,1.0,,,,,,
,,,,,,,,,,,,,,,,,,,,,0.025,,,,,,,,,,Stimuli/psy_fixed_rotation_30_objects_occ0.7_0.9s/images/train/n02933112_-18/n02933112_4/img_cgaxis_models_48_26_vray_composite_buffet_2011_gray.jpg,n02933112_-18,n02933112_4,fixed,0.715896,n02818832_3,Stimuli/psy_flexible_rotation_30_objects_occ0.7_0.9s/images/train/n02883344_-1/n02818832_3/img_woven_box_b05_ccm_contemporary_bed_max2013_2002-3_gray.png,random,flexible,n02933112_-18,n02933112_4,Stimuli/canonical view 2/img_n02933112_-18_gray.jpg,Stimuli/canonical view 2/img_n02933112_4_gray.jpg,foreground,right,Experiments/experiment_28/76.jpg,Experiments/experiment_28/77.jpg,Experiments/experiment_28/78.jpg,Experiments/experiment_28/79.jpg,137,1,2023-05-26_10h08.47.417,Occlusion_Psychophysics,2022.1.4,Win32,60.11421701,,,right,"[""left""]",[0.9141999998092842],False,,0.0,0.0,19.0,19.0,19.0,1.0,,,,,,
,,,,,,,,,,,,,,,,,,,,,0.05,,,,,,,,,,Stimuli/psy_flexible_rotation_30_objects_occ0.7_0.9s/images/train/n04379243_8/n02818832_0/img_glass_table_b03_the_sofa_and_chair_company_-_stanley_bed_2014_2003_gray.jpg,n04379243_8,n02818832_0,flexible,0.737369,n03001627_-2,Stimuli/psy_fixed_rotation_30_objects_occ0.7_0.9s/images/train/n03001627_-2/n03001627_-2/img_wood_chair_wood_chair_2003-3_gray.png,random,fixed,n04379243_8,n03928116_4,Stimuli/canonical view 2/img_n04379243_8_gray.jpg,Stimuli/canonical view 2/img_n03928116_4_gray.jpg,random,right,Experiments/experiment_28/80.jpg,Experiments/experiment_28/81.jpg,Experiments/experiment_28/82.jpg,Experiments/experiment_28/83.jpg,137,1,2023-05-26_10h08.47.417,Occlusion_Psychophysics,2022.1.4,Win32,60.11421701,,,right,"[""right""]",[0.6667000000477401],False,,0.0,0.0,20.0,20.0,20.0,1.0,,,,,,
,,,,,,,,,,,,,,,,,,,,,0.025,,,,,,,,,,Stimuli/psy_flexible_rotation_30_objects_occ0.7_0.9s/images/train/n02818832_3/n04379243_0/img_b05_ccm_contemporary_bed_max2013_17th_c._monastery_dining_table_2010_2009_gray.jpg,n02818832_3,n04379243_0,flexible,0.793033,n04379243_0,Stimuli/psy_flexible_rotation_30_objects_occ0.7_0.9s/images/train/n02818832_3/n04379243_0/img_b05_ccm_contemporary_bed_max2013_17th_c._monastery_dining_table_2010_2009-3_gray.png,foreground,same as foreground,n02818832_3,n04379243_0,Stimuli/canonical view 2/img_n02818832_3_gray.jpg,Stimuli/canonical view 2/img_n04379243_0_gray.jpg,foreground,left,Experiments/experiment_28/84.jpg,Experiments/experiment_28/85.jpg,Experiments/experiment_28/86.jpg,Experiments/experiment_28/87.jpg,137,1,2023-05-26_10h08.47.417,Occlusion_Psychophysics,2022.1.4,Win32,60.11421701,,,right,"[""right""]",[0.962299999952279],False,,0.0,0.0,21.0,21.0,21.0,1.0,,,,,,
,,,,,,,,,,,,,,,,,,,,,0.025,,,,,,,,,,Stimuli/psy_flexible_rotation_30_objects_occ0.7_0.9s/images/train/n03928116_4/n02818832_3/img_dp_33_b_2013__vray_b05_ccm_contemporary_bed_max2013_2013_gray.jpg,n03928116_4,n02818832_3,flexible,0.737799,n03928116_0,Stimuli/psy_fixed_rotation_30_objects_occ0.7_0.9s/images/train/n02933112_4/n03928116_0/img_buffet_b02_piano_2008-3_gray.png,random,fixed,n03928116_4,n02818832_3,Stimuli/canonical view 2/img_n03928116_4_gray.jpg,Stimuli/canonical view 2/img_n02818832_3_gray.jpg,foreground,right,Experiments/experiment_28/88.jpg,Experiments/experiment_28/89.jpg,Experiments/experiment_28/90.jpg,Experiments/experiment_28/91.jpg,137,1,2023-05-26_10h08.47.417,Occlusion_Psychophysics,2022.1.4,Win32,60.11421701,,,left,"[""right""]",[0.8659999999999854],False,,0.0,0.0,22.0,22.0,22.0,1.0,,,,,,
,,,,,,,,,,,,,,,,,,,,,0.025,,,,,,,,,,Stimuli/psy_flexible_rotation_30_objects_occ0.7_0.9s/images/train/n02818832_3/n02933112_4/img_b05_ccm_contemporary_bed_max2013_buffet_2015_gray.jpg,n02818832_3,n02933112_4,flexible,0.745802,n02933112_4,Stimuli/psy_flexible_rotation_30_objects_occ0.7_0.9s/images/train/n02818832_3/n02933112_4/img_b05_ccm_contemporary_bed_max2013_buffet_2015-3_gray.png,foreground,same as foreground,n02818832_3,n03928116_4,Stimuli/canonical view 2/img_n02818832_3_gray.jpg,Stimuli/canonical view 2/img_n03928116_4_gray.jpg,random,left,Experiments/experiment_28/92.jpg,Experiments/experiment_28/93.jpg,Experiments/experiment_28/94.jpg,Experiments/experiment_28/95.jpg,137,1,2023-05-26_10h08.47.417,Occlusion_Psychophysics,2022.1.4,Win32,60.11421701,,,right,"[""right""]",[0.5572999999523063],False,,0.0,0.0,23.0,23.0,23.0,1.0,,,,,,
,,,,,,,,,,,,,,,,,,,,,0.05,,,,,,,,,,Stimuli/psy_fixed_rotation_30_objects_occ0.7_0.9s/images/train/n04405907_9/n04256520_4/img_vray_004_club_house_italia_nautilus_sofa_2008_gray.jpg,n04405907_9,n04256520_4,fixed,0.831805,n04256520_4,Stimuli/psy_fixed_rotation_30_objects_occ0.7_0.9s/images/train/n04405907_9/n04256520_4/img_vray_004_club_house_italia_nautilus_sofa_2008-3_gray.png,foreground,same as foreground,n04405907_9,n02818832_0,Stimuli/canonical view 2/img_n04405907_9_gray.jpg,Stimuli/canonical view 2/img_n02818832_0_gray.jpg,random,left,Experiments/experiment_28/96.jpg,Experiments/experiment_28/97.jpg,Experiments/experiment_28/98.jpg,Experiments/experiment_28/99.jpg,137,1,2023-05-26_10h08.47.417,Occlusion_Psychophysics,2022.1.4,Win32,60.11421701,,,left,"[""left""]",[0.8870999999046489],False,,0.0,0.0,24.0,24.0,24.0,1.0,,,,,,
,,,,,,,,,,,,,,,,,,,,,0.05,,,,,,,,,,Stimuli/psy_flexible_rotation_30_objects_occ0.7_0.9s/images/train/n02818832_0/n04256520_5/img_b03_the_sofa_and_chair_company_-_stanley_bed_2014_meridiani_belmondo_bench_sofa_2002_gray.jpg,n02818832_0,n04256520_5,flexible,0.708472,n04405907_8,Stimuli/psy_fixed_rotation_30_objects_occ0.7_0.9s/images/train/n03001627_8/n04405907_8/img_chair_billiani_doll_stylized_tv_2015-3_gray.png,random,fixed,n02818832_0,n02933112_-18,Stimuli/canonical view 2/img_n02818832_0_gray.jpg,Stimuli/canonical view 2/img_n02933112_-18_gray.jpg,random,left,Experiments/experiment_28/100.jpg,Experiments/experiment_28/101.jpg,Experiments/experiment_28/102.jpg,Experiments/experiment_28/103.jpg,137,1,2023-05-26_10h08.47.417,Occlusion_Psychophysics,2022.1.4,Win32,60.11421701,,,left,"[""left""]",[0.60349999999994],False,,0.0,0.0,25.0,25.0,25.0,1.0,,,,,,
,,,,,,,,,,,,,,,,,,,,,0.05,,,,,,,,,,Stimuli/psy_fixed_rotation_30_objects_occ0.7_0.9s/images/train/n04256520_4/n03928116_10/img_club_house_italia_nautilus_sofa_ydp_103_r_2012__vray_2000_gray.jpg,n04256520_4,n03928116_10,fixed,0.70298,n03928116_10,Stimuli/psy_fixed_rotation_30_objects_occ0.7_0.9s/images/train/n04256520_4/n03928116_10/img_club_house_italia_nautilus_sofa_ydp_103_r_2012__vray_2000-3_gray.png,foreground,same as foreground,n04256520_4,n03001627_8,Stimuli/canonical view 2/img_n04256520_4_gray.jpg,Stimuli/canonical view 2/img_n03001627_8_gray.jpg,random,left,Experiments/experiment_28/104.jpg,Experiments/experiment_28/105.jpg,Experiments/experiment_28/106.jpg,Experiments/experiment_28/107.jpg,137,1,2023-05-26_10h08.47.417,Occlusion_Psychophysics,2022.1.4,Win32,60.11421701,,,right,"[""left""]",[0.6125999999046599],False,,0.0,0.0,26.0,26.0,26.0,1.0,,,,,,
,,,,,,,,,,,,,,,,,,,,,0.025,,,,,,,,,,Stimuli/psy_flexible_rotation_30_objects_occ0.7_0.9s/images/train/n04405907_5/n03928116_10/img_samsung_40_uhd_smart_tv_2011_ydp_103_r_2012__vray_2008_gray.jpg,n04405907_5,n03928116_10,flexible,0.756913,n02883344_-1,Stimuli/psy_fixed_rotation_30_objects_occ0.7_0.9s/images/train/n03001627_9/n02883344_-1/img_chair_eames_plastic_armchair_woven_box_2007-3_gray.png,random,fixed,n04405907_5,n03928116_10,Stimuli/canonical view 2/img_n04405907_5_gray.jpg,Stimuli/canonical view 2/img_n03928116_10_gray.jpg,foreground,left,Experiments/experiment_28/108.jpg,Experiments/experiment_28/109.jpg,Experiments/experiment_28/110.jpg,Experiments/experiment_28/111.jpg,137,1,2023-05-26_10h08.47.417,Occlusion_Psychophysics,2022.1.4,Win32,60.11421701,,,left,"[""left""]",[0.6232999999523372],False,,0.0,0.0,27.0,27.0,27.0,1.0,,,,,,
,,,,,,,,,,,,,,,,,,,,,0.025,,,,,,,,,,Stimuli/psy_flexible_rotation_30_objects_occ0.7_0.9s/images/train/n04256520_4/n02933112_-2/img_club_house_italia_nautilus_sofa_sink_base_white_wood_2006_gray.jpg,n04256520_4,n02933112_-2,flexible,0.789567,n02933112_-2,Stimuli/psy_flexible_rotation_30_objects_occ0.7_0.9s/images/train/n04256520_4/n02933112_-2/img_club_house_italia_nautilus_sofa_sink_base_white_wood_2006-3_gray.png,foreground,same as foreground,n04256520_4,n02933112_-2,Stimuli/canonical view 2/img_n04256520_4_gray.jpg,Stimuli/canonical view 2/img_n02933112_-2_gray.jpg,foreground,left,Experiments/experiment_28/112.jpg,Experiments/experiment_28/113.jpg,Experiments/experiment_28/114.jpg,Experiments/experiment_28/115.jpg,137,1,2023-05-26_10h08.47.417,Occlusion_Psychophysics,2022.1.4,Win32,60.11421701,,,left,"[""left""]",[0.6625999999046144],False,,0.0,0.0,28.0,28.0,28.0,1.0,,,,,,
,,,,,,,,,,,,,,,,,,,,,0.025,,,,,,,,,,Stimuli/psy_fixed_rotation_30_objects_occ0.7_0.9s/images/train/n02818832_9/n03928116_10/img_bed01_blue_ydp_103_r_2012__vray_2000_gray.jpg,n02818832_9,n03928116_10,fixed,0.761038,n04405907_9,Stimuli/psy_fixed_rotation_30_objects_occ0.7_0.9s/images/train/n02933112_-18/n04405907_9/img_cgaxis_models_48_26_vray_composite_vray_004_2000-3_gray.png,random,fixed,n02818832_9,n03928116_10,Stimuli/canonical view 2/img_n02818832_9_gray.jpg,Stimuli/canonical view 2/img_n03928116_10_gray.jpg,foreground,right,Experiments/experiment_28/116.jpg,Experiments/experiment_28/117.jpg,Experiments/experiment_28/118.jpg,Experiments/experiment_28/119.jpg,137,1,2023-05-26_10h08.47.417,Occlusion_Psychophysics,2022.1.4,Win32,60.11421701,,,left,"[""left""]",[0.6499000000953856],False,,0.0,0.0,29.0,29.0,29.0,1.0,,,,,,
,,,,,,,,,,,,,,,,,,,,,0.05,,,,,,,,,,Stimuli/psy_fixed_rotation_30_objects_occ0.7_0.9s/images/train/n02828884_3/n04405907_5/img_b04_wood_metal_park_bench_samsung_40_uhd_smart_tv_2011_2001_gray.jpg,n02828884_3,n04405907_5,fixed,0.84376,n04256520_5,Stimuli/psy_flexible_rotation_30_objects_occ0.7_0.9s/images/train/n04379243_0/n04256520_5/img_17th_c._monastery_dining_table_2010_meridiani_belmondo_bench_sofa_2011-3_gray.png,random,flexible,n02828884_3,n04405907_5,Stimuli/canonical view 2/img_n02828884_3_gray.jpg,Stimuli/canonical view 2/img_n04405907_5_gray.jpg,foreground,right,Experiments/experiment_28/120.jpg,Experiments/experiment_28/121.jpg,Experiments/experiment_28/122.jpg,Experiments/experiment_28/123.jpg,137,1,2023-05-26_10h08.47.417,Occlusion_Psychophysics,2022.1.4,Win32,60.11421701,,,right,"[""right""]",[0.9160999999046453],False,,0.0,0.0,30.0,30.0,30.0,1.0,,,,,,
,,,,,,,,,,,,,,,,,,,,,0.025,,,,,,,,,,Stimuli/psy_flexible_rotation_30_objects_occ0.7_0.9s/images/train/n02883344_0/n04256520_9/img_b03_box_napoleon_iii_sofa_2015_gray.jpg,n02883344_0,n04256520_9,flexible,0.717337,n02933112_-2,Stimuli/psy_flexible_rotation_30_objects_occ0.7_0.9s/images/train/n03001627_-2/n02933112_-2/img_wood_chair_sink_base_white_wood_2006-3_gray.png,random,flexible,n02883344_0,n03928116_10,Stimuli/canonical view 2/img_n02883344_0_gray.jpg,Stimuli/canonical view 2/img_n03928116_10_gray.jpg,random,right,Experiments/experiment_28/124.jpg,Experiments/experiment_28/125.jpg,Experiments/experiment_28/126.jpg,Experiments/experiment_28/127.jpg,137,1,2023-05-26_10h08.47.417,Occlusion_Psychophysics,2022.1.4,Win32,60.11421701,,,left,"[""left""]",[1.283099999904607],False,,0.0,0.0,31.0,31.0,31.0,1.0,,,,,,
,,,,,,,,,,,,,,,,,,,,,0.025,,,,,,,,,,Stimuli/psy_fixed_rotation_30_objects_occ0.7_0.9s/images/train/n02828884_9/n04256520_4/img_cr-96_bench_club_house_italia_nautilus_sofa_2000_gray.jpg,n02828884_9,n04256520_4,fixed,0.722004,n02883344_-1,Stimuli/psy_flexible_rotation_30_objects_occ0.7_0.9s/images/train/n04379243_0/n02883344_-1/img_17th_c._monastery_dining_table_2010_woven_box_2012-3_gray.png,random,flexible,n02828884_9,n04256520_4,Stimuli/canonical view 2/img_n02828884_9_gray.jpg,Stimuli/canonical view 2/img_n04256520_4_gray.jpg,foreground,right,Experiments/experiment_28/128.jpg,Experiments/experiment_28/129.jpg,Experiments/experiment_28/130.jpg,Experiments/experiment_28/131.jpg,137,1,2023-05-26_10h08.47.417,Occlusion_Psychophysics,2022.1.4,Win32,60.11421701,,,right,"[""right""]",[0.7928000001908231],False,,0.0,0.0,32.0,32.0,32.0,1.0,,,,,,
,,,,,,,,,,,,,,,,,,,,,0.025,,,,,,,,,,Stimuli/psy_flexible_rotation_30_objects_occ0.7_0.9s/images/train/n02883344_-1/n04405907_9/img_woven_box_vray_004_2001_gray.jpg,n02883344_-1,n04405907_9,flexible,0.766708,n04405907_9,Stimuli/psy_flexible_rotation_30_objects_occ0.7_0.9s/images/train/n02883344_-1/n04405907_9/img_woven_box_vray_004_2001-3_gray.png,foreground,same as foreground,n02883344_-1,n03928116_0,Stimuli/canonical view 2/img_n02883344_-1_gray.jpg,Stimuli/canonical view 2/img_n03928116_0_gray.jpg,random,right,Experiments/experiment_28/132.jpg,Experiments/experiment_28/133.jpg,Experiments/experiment_28/134.jpg,Experiments/experiment_28/135.jpg,137,1,2023-05-26_10h08.47.417,Occlusion_Psychophysics,2022.1.4,Win32,60.11421701,,,right,"[""right""]",[0.6877000000476983],False,,0.0,0.0,33.0,33.0,33.0,1.0,,,,,,
,,,,,,,,,,,,,,,,,,,,,0.05,,,,,,,,,,Stimuli/psy_flexible_rotation_30_objects_occ0.7_0.9s/images/train/n03928116_4/n04256520_9/img_dp_33_b_2013__vray_napoleon_iii_sofa_2009_gray.jpg,n03928116_4,n04256520_9,flexible,0.758094,n04256520_9,Stimuli/psy_flexible_rotation_30_objects_occ0.7_0.9s/images/train/n03928116_4/n04256520_9/img_dp_33_b_2013__vray_napoleon_iii_sofa_2009-3_gray.png,foreground,same as foreground,n03928116_4,n02828884_3,Stimuli/canonical view 2/img_n03928116_4_gray.jpg,Stimuli/canonical view 2/img_n02828884_3_gray.jpg,random,left,Experiments/experiment_28/136.jpg,Experiments/experiment_28/137.jpg,Experiments/experiment_28/138.jpg,Experiments/experiment_28/139.jpg,137,1,2023-05-26_10h08.47.417,Occlusion_Psychophysics,2022.1.4,Win32,60.11421701,,,right,"[""right""]",[0.7972000000477237],False,,0.0,0.0,34.0,34.0,34.0,1.0,,,,,,
,,,,,,,,,,,,,,,,,,,,,0.05,,,,,,,,,,Stimuli/psy_flexible_rotation_30_objects_occ0.7_0.9s/images/train/n02818832_3/n02828884_3/img_b05_ccm_contemporary_bed_max2013_b04_wood_metal_park_bench_2002_gray.jpg,n02818832_3,n02828884_3,flexible,0.737526,n04405907_8,Stimuli/psy_fixed_rotation_30_objects_occ0.7_0.9s/images/train/n02818832_3/n04405907_8/img_b05_ccm_contemporary_bed_max2013_stylized_tv_2015-3_gray.png,random,fixed,n02818832_3,n04256520_9,Stimuli/canonical view 2/img_n02818832_3_gray.jpg,Stimuli/canonical view 2/img_n04256520_9_gray.jpg,random,left,Experiments/experiment_28/140.jpg,Experiments/experiment_28/141.jpg,Experiments/experiment_28/142.jpg,Experiments/experiment_28/143.jpg,137,1,2023-05-26_10h08.47.417,Occlusion_Psychophysics,2022.1.4,Win32,60.11421701,,,left,"[""right""]",[1.0196000001431003],False,,0.0,0.0,35.0,35.0,35.0,1.0,,,,,,
,,,,,,,,,,,,,,,,,,,,,0.025,,,,,,,,,,Stimuli/psy_flexible_rotation_30_objects_occ0.7_0.9s/images/train/n04256520_5/n04379243_8/img_meridiani_belmondo_bench_sofa_glass_table_2003_gray.jpg,n04256520_5,n04379243_8,flexible,0.748689,n04379243_8,Stimuli/psy_flexible_rotation_30_objects_occ0.7_0.9s/images/train/n04256520_5/n04379243_8/img_meridiani_belmondo_bench_sofa_glass_table_2003-3_gray.png,foreground,same as foreground,n04256520_5,n02828884_4,Stimuli/canonical view 2/img_n04256520_5_gray.jpg,Stimuli/canonical view 2/img_n02828884_4_gray.jpg,random,left,Experiments/experiment_28/144.jpg,Experiments/experiment_28/145.jpg,Experiments/experiment_28/146.jpg,Experiments/experiment_28/147.jpg,137,1,2023-05-26_10h08.47.417,Occlusion_Psychophysics,2022.1.4,Win32,60.11421701,,,right,"[""right""]",[0.8527999999522535],False,,0.0,0.0,36.0,36.0,36.0,1.0,,,,,,
,,,,,,,,,,,,,,,,,,,,,0.05,,,,,,,,,,Stimuli/psy_flexible_rotation_30_objects_occ0.7_0.9s/images/train/n04405907_9/n02883344_0/img_vray_004_b03_box_2001_gray.jpg,n04405907_9,n02883344_0,flexible,0.834678,n02883344_0,Stimuli/psy_flexible_rotation_30_objects_occ0.7_0.9s/images/train/n04405907_9/n02883344_0/img_vray_004_b03_box_2001-3_gray.png,foreground,same as foreground,n04405907_9,n02883344_0,Stimuli/canonical view 2/img_n04405907_9_gray.jpg,Stimuli/canonical view 2/img_n02883344_0_gray.jpg,foreground,left,Experiments/experiment_28/148.jpg,Experiments/experiment_28/149.jpg,Experiments/experiment_28/150.jpg,Experiments/experiment_28/151.jpg,137,1,2023-05-26_10h08.47.417,Occlusion_Psychophysics,2022.1.4,Win32,60.11421701,,,right,"[""left""]",[1.29849999999999],False,,0.0,0.0,37.0,37.0,37.0,1.0,,,,,,
,,,,,,,,,,,,,,,,,,,,,0.05,,,,,,,,,,Stimuli/psy_fixed_rotation_30_objects_occ0.7_0.9s/images/train/n02818832_9/n02818832_3/img_bed01_blue_b05_ccm_contemporary_bed_max2013_2009_gray.jpg,n02818832_9,n02818832_3,fixed,0.721884,n02818832_3,Stimuli/psy_fixed_rotation_30_objects_occ0.7_0.9s/images/train/n02818832_9/n02818832_3/img_bed01_blue_b05_ccm_contemporary_bed_max2013_2009-3_gray.png,foreground,same as foreground,n02818832_9,n02818832_3,Stimuli/canonical view 2/img_n02818832_9_gray.jpg,Stimuli/canonical view 2/img_n02818832_3_gray.jpg,foreground,right,Experiments/experiment_28/152.jpg,Experiments/experiment_28/153.jpg,Experiments/experiment_28/154.jpg,Experiments/experiment_28/155.jpg,137,1,2023-05-26_10h08.47.417,Occlusion_Psychophysics,2022.1.4,Win32,60.11421701,,,left,"[""left""]",[0.95150000000001],True,right,1.0,0.0,38.0,38.0,38.0,1.0,0.7571,,,,,
,,,,,,,,,,,,,,,,,,,,,0.05,,,,,,,,,,Stimuli/psy_fixed_rotation_30_objects_occ0.7_0.9s/images/train/n03001627_9/n02883344_15/img_chair_eames_plastic_armchair_microwave_box_2004_gray.jpg,n03001627_9,n02883344_15,fixed,0.758616,n02883344_15,Stimuli/psy_fixed_rotation_30_objects_occ0.7_0.9s/images/train/n03001627_9/n02883344_15/img_chair_eames_plastic_armchair_microwave_box_2004-3_gray.png,foreground,same as foreground,n03001627_9,n02818832_0,Stimuli/canonical view 2/img_n03001627_9_gray.jpg,Stimuli/canonical view 2/img_n02818832_0_gray.jpg,random,right,Experiments/experiment_28/156.jpg,Experiments/experiment_28/157.jpg,Experiments/experiment_28/158.jpg,Experiments/experiment_28/159.jpg,137,1,2023-05-26_10h08.47.417,Occlusion_Psychophysics,2022.1.4,Win32,60.11421701,,,left,"[""left""]",[0.6012999999524027],False,,0.0,0.0,39.0,39.0,39.0,1.0,,,,,,
,,,,,,,,,,,,,,,,,,,,,0.05,,,,,,,,,,Stimuli/psy_fixed_rotation_30_objects_occ0.7_0.9s/images/train/n02828884_4/n04256520_9/img_b05_c-5_classic_series_bench-2012_napoleon_iii_sofa_2009_gray.jpg,n02828884_4,n04256520_9,fixed,0.724896,n04256520_9,Stimuli/psy_fixed_rotation_30_objects_occ0.7_0.9s/images/train/n02828884_4/n04256520_9/img_b05_c-5_classic_series_bench-2012_napoleon_iii_sofa_2009-3_gray.png,foreground,same as foreground,n02828884_4,n04256520_9,Stimuli/canonical view 2/img_n02828884_4_gray.jpg,Stimuli/canonical view 2/img_n04256520_9_gray.jpg,foreground,right,Experiments/experiment_28/160.jpg,Experiments/experiment_28/161.jpg,Experiments/experiment_28/162.jpg,Experiments/experiment_28/163.jpg,137,1,2023-05-26_10h08.47.417,Occlusion_Psychophysics,2022.1.4,Win32,60.11421701,,,right,"[""right""]",[0.6449999999999818],False,,0.0,0.0,40.0,40.0,40.0,1.0,,,,,,
,,,,,,,,,,,,,,,,,,,,,0.05,,,,,,,,,,Stimuli/psy_flexible_rotation_30_objects_occ0.7_0.9s/images/train/n03928116_10/n03928116_0/img_ydp_103_r_2012__vray_b02_piano_2008_gray.jpg,n03928116_10,n03928116_0,flexible,0.81691,n03001627_8,Stimuli/psy_flexible_rotation_30_objects_occ0.7_0.9s/images/train/n03001627_-2/n03001627_8/img_wood_chair_chair_billiani_doll_2010-3_gray.png,random,flexible,n03928116_10,n04379243_0,Stimuli/canonical view 2/img_n03928116_10_gray.jpg,Stimuli/canonical view 2/img_n04379243_0_gray.jpg,random,right,Experiments/experiment_28/164.jpg,Experiments/experiment_28/165.jpg,Experiments/experiment_28/166.jpg,Experiments/experiment_28/167.jpg,137,1,2023-05-26_10h08.47.417,Occlusion_Psychophysics,2022.1.4,Win32,60.11421701,,,right,"[""right""]",[0.6700999999046644],False,,0.0,0.0,41.0,41.0,41.0,1.0,,,,,,
,,,,,,,,,,,,,,,,,,,,,0.025,,,,,,,,,,Stimuli/psy_fixed_rotation_30_objects_occ0.7_0.9s/images/train/n02818832_3/n04405907_9/img_b05_ccm_contemporary_bed_max2013_vray_004_2010_gray.jpg,n02818832_3,n04405907_9,fixed,0.861647,n04405907_9,Stimuli/psy_fixed_rotation_30_objects_occ0.7_0.9s/images/train/n02818832_3/n04405907_9/img_b05_ccm_contemporary_bed_max2013_vray_004_2010-3_gray.png,foreground,same as foreground,n02818832_3,n02818832_0,Stimuli/canonical view 2/img_n02818832_3_gray.jpg,Stimuli/canonical view 2/img_n02818832_0_gray.jpg,random,left,Experiments/experiment_28/168.jpg,Experiments/experiment_28/169.jpg,Experiments/experiment_28/170.jpg,Experiments/experiment_28/171.jpg,137,1,2023-05-26_10h08.47.417,Occlusion_Psychophysics,2022.1.4,Win32,60.11421701,,,left,"[""right""]",[0.8500000000000227],False,,0.0,0.0,42.0,42.0,42.0,1.0,,,,,,
,,,,,,,,,,,,,,,,,,,,,0.025,,,,,,,,,,Stimuli/psy_fixed_rotation_30_objects_occ0.7_0.9s/images/train/n02933112_4/n02828884_3/img_buffet_b04_wood_metal_park_bench_2013_gray.jpg,n02933112_4,n02828884_3,fixed,0.725734,n02828884_3,Stimuli/psy_fixed_rotation_30_objects_occ0.7_0.9s/images/train/n02933112_4/n02828884_3/img_buffet_b04_wood_metal_park_bench_2013-3_gray.png,foreground,same as foreground,n02933112_4,n02828884_3,Stimuli/canonical view 2/img_n02933112_4_gray.jpg,Stimuli/canonical view 2/img_n02828884_3_gray.jpg,foreground,left,Experiments/experiment_28/172.jpg,Experiments/experiment_28/173.jpg,Experiments/experiment_28/174.jpg,Experiments/experiment_28/175.jpg,137,1,2023-05-26_10h08.47.417,Occlusion_Psychophysics,2022.1.4,Win32,60.11421701,,,left,"[""right""]",[0.6993999998569507],False,,0.0,0.0,43.0,43.0,43.0,1.0,,,,,,
,,,,,,,,,,,,,,,,,,,,,0.05,,,,,,,,,,Stimuli/psy_fixed_rotation_30_objects_occ0.7_0.9s/images/train/n04256520_4/n02883344_-1/img_club_house_italia_nautilus_sofa_woven_box_2000_gray.jpg,n04256520_4,n02883344_-1,fixed,0.79189,n02883344_-1,Stimuli/psy_fixed_rotation_30_objects_occ0.7_0.9s/images/train/n04256520_4/n02883344_-1/img_club_house_italia_nautilus_sofa_woven_box_2000-3_gray.png,foreground,same as foreground,n04256520_4,n02883344_-1,Stimuli/canonical view 2/img_n04256520_4_gray.jpg,Stimuli/canonical view 2/img_n02883344_-1_gray.jpg,foreground,right,Experiments/experiment_28/176.jpg,Experiments/experiment_28/177.jpg,Experiments/experiment_28/178.jpg,Experiments/experiment_28/179.jpg,137,1,2023-05-26_10h08.47.417,Occlusion_Psychophysics,2022.1.4,Win32,60.11421701,,,left,"[""left""]",[1.1304999999999836],False,,0.0,0.0,44.0,44.0,44.0,1.0,,,,,,
,,,,,,,,,,,,,,,,,,,,,0.05,,,,,,,,,,Stimuli/psy_fixed_rotation_30_objects_occ0.7_0.9s/images/train/n04379243_8/n02933112_-18/img_glass_table_cgaxis_models_48_26_vray_composite_2011_gray.jpg,n04379243_8,n02933112_-18,fixed,0.709071,n02933112_-18,Stimuli/psy_fixed_rotation_30_objects_occ0.7_0.9s/images/train/n04379243_8/n02933112_-18/img_glass_table_cgaxis_models_48_26_vray_composite_2011-3_gray.png,foreground,same as foreground,n04379243_8,n02933112_-18,Stimuli/canonical view 2/img_n04379243_8_gray.jpg,Stimuli/canonical view 2/img_n02933112_-18_gray.jpg,foreground,left,Experiments/experiment_28/180.jpg,Experiments/experiment_28/181.jpg,Experiments/experiment_28/182.jpg,Experiments/experiment_28/183.jpg,137,1,2023-05-26_10h08.47.417,Occlusion_Psychophysics,2022.1.4,Win32,60.11421701,,,right,"[""right""]",[0.5986999998093552],False,,0.0,0.0,45.0,45.0,45.0,1.0,,,,,,
,,,,,,,,,,,,,,,,,,,,,0.05,,,,,,,,,,Stimuli/psy_fixed_rotation_30_objects_occ0.7_0.9s/images/train/n02828884_3/n02933112_-18/img_b04_wood_metal_park_bench_cgaxis_models_48_26_vray_composite_2003_gray.jpg,n02828884_3,n02933112_-18,fixed,0.776795,n02933112_-18,Stimuli/psy_fixed_rotation_30_objects_occ0.7_0.9s/images/train/n02828884_3/n02933112_-18/img_b04_wood_metal_park_bench_cgaxis_models_48_26_vray_composite_2003-3_gray.png,foreground,same as foreground,n02828884_3,n02883344_-1,Stimuli/canonical view 2/img_n02828884_3_gray.jpg,Stimuli/canonical view 2/img_n02883344_-1_gray.jpg,random,right,Experiments/experiment_28/184.jpg,Experiments/experiment_28/185.jpg,Experiments/experiment_28/186.jpg,Experiments/experiment_28/187.jpg,137,1,2023-05-26_10h08.47.417,Occlusion_Psychophysics,2022.1.4,Win32,60.11421701,,,left,"[""left""]",[0.6376000001430384],False,,0.0,0.0,46.0,46.0,46.0,1.0,,,,,,
,,,,,,,,,,,,,,,,,,,,,0.05,,,,,,,,,,Stimuli/psy_flexible_rotation_30_objects_occ0.7_0.9s/images/train/n02818832_0/n02883344_-1/img_b03_the_sofa_and_chair_company_-_stanley_bed_2014_woven_box_2004_gray.jpg,n02818832_0,n02883344_-1,flexible,0.74232,n02818832_3,Stimuli/psy_flexible_rotation_30_objects_occ0.7_0.9s/images/train/n03928116_0/n02818832_3/img_b02_piano_b05_ccm_contemporary_bed_max2013_2010-3_gray.png,random,flexible,n02818832_0,n04379243_0,Stimuli/canonical view 2/img_n02818832_0_gray.jpg,Stimuli/canonical view 2/img_n04379243_0_gray.jpg,random,left,Experiments/experiment_28/188.jpg,Experiments/experiment_28/189.jpg,Experiments/experiment_28/190.jpg,Experiments/experiment_28/191.jpg,137,1,2023-05-26_10h08.47.417,Occlusion_Psychophysics,2022.1.4,Win32,60.11421701,,,left,"[""left""]",[0.6658000001907567],False,,0.0,0.0,47.0,47.0,47.0,1.0,,,,,,
,,,,,,,,,,,,,,,,,,,,,0.05,,,,,,,,,,Stimuli/psy_flexible_rotation_30_objects_occ0.7_0.9s/images/train/n03928116_4/n02818832_0/img_dp_33_b_2013__vray_b03_the_sofa_and_chair_company_-_stanley_bed_2014_2013_gray.jpg,n03928116_4,n02818832_0,flexible,0.74611,n02818832_0,Stimuli/psy_flexible_rotation_30_objects_occ0.7_0.9s/images/train/n03928116_4/n02818832_0/img_dp_33_b_2013__vray_b03_the_sofa_and_chair_company_-_stanley_bed_2014_2013-3_gray.png,foreground,same as foreground,n03928116_4,n02818832_0,Stimuli/canonical view 2/img_n03928116_4_gray.jpg,Stimuli/canonical view 2/img_n02818832_0_gray.jpg,foreground,left,Experiments/experiment_28/192.jpg,Experiments/experiment_28/193.jpg,Experiments/experiment_28/194.jpg,Experiments/experiment_28/195.jpg,137,1,2023-05-26_10h08.47.417,Occlusion_Psychophysics,2022.1.4,Win32,60.11421701,,,right,"[""right""]",[0.5297000000476828],False,,0.0,0.0,48.0,48.0,48.0,1.0,,,,,,
,,,,,,,,,,,,,,,,,,,,,0.025,,,,,,,,,,Stimuli/psy_fixed_rotation_30_objects_occ0.7_0.9s/images/train/n02818832_3/n04379243_-7/img_b05_ccm_contemporary_bed_max2013_quatre_dining_table_2004_gray.jpg,n02818832_3,n04379243_-7,fixed,0.718473,n04379243_-7,Stimuli/psy_fixed_rotation_30_objects_occ0.7_0.9s/images/train/n02818832_3/n04379243_-7/img_b05_ccm_contemporary_bed_max2013_quatre_dining_table_2004-3_gray.png,foreground,same as foreground,n02818832_3,n04379243_-7,Stimuli/canonical view 2/img_n02818832_3_gray.jpg,Stimuli/canonical view 2/img_n04379243_-7_gray.jpg,foreground,right,Experiments/experiment_28/196.jpg,Experiments/experiment_28/197.jpg,Experiments/experiment_28/198.jpg,Experiments/experiment_28/199.jpg,137,1,2023-05-26_10h08.47.417,Occlusion_Psychophysics,2022.1.4,Win32,60.11421701,,,left,"[""right""]",[1.6304999999999836],False,,0.0,0.0,49.0,49.0,49.0,1.0,,,,,,
,,,,,,,,,,,,,,,,,,,,,0.05,,,,,,,,,,Stimuli/psy_flexible_rotation_30_objects_occ0.7_0.9s/images/train/n03001627_-2/n04405907_9/img_wood_chair_vray_004_2003_gray.jpg,n03001627_-2,n04405907_9,flexible,0.753741,n02883344_15,Stimuli/psy_flexible_rotation_30_objects_occ0.7_0.9s/images/train/n02828884_9/n02883344_15/img_cr-96_bench_microwave_box_2014-3_gray.png,random,flexible,n03001627_-2,n04379243_8,Stimuli/canonical view 2/img_n03001627_-2_gray.jpg,Stimuli/canonical view 2/img_n04379243_8_gray.jpg,random,left,Experiments/experiment_28/200.jpg,Experiments/experiment_28/201.jpg,Experiments/experiment_28/202.jpg,Experiments/experiment_28/203.jpg,137,1,2023-05-26_10h08.47.417,Occlusion_Psychophysics,2022.1.4,Win32,60.11421701,,,right,"[""right""]",[0.7993000001906694],False,,0.0,0.0,50.0,50.0,50.0,1.0,,,,,,
,,,,,,,,,,,,,,,,,,,,,0.05,,,,,,,,,,Stimuli/psy_fixed_rotation_30_objects_occ0.7_0.9s/images/train/n04379243_-7/n02883344_15/img_quatre_dining_table_microwave_box_2006_gray.jpg,n04379243_-7,n02883344_15,fixed,0.719505,n02883344_15,Stimuli/psy_fixed_rotation_30_objects_occ0.7_0.9s/images/train/n04379243_-7/n02883344_15/img_quatre_dining_table_microwave_box_2006-3_gray.png,foreground,same as foreground,n04379243_-7,n04405907_5,Stimuli/canonical view 2/img_n04379243_-7_gray.jpg,Stimuli/canonical view 2/img_n04405907_5_gray.jpg,random,right,Experiments/experiment_28/204.jpg,Experiments/experiment_28/205.jpg,Experiments/experiment_28/206.jpg,Experiments/experiment_28/207.jpg,137,1,2023-05-26_10h08.47.417,Occlusion_Psychophysics,2022.1.4,Win32,60.11421701,,,left,"[""left""]",[0.706899999856887],False,,0.0,0.0,51.0,51.0,51.0,1.0,,,,,,
,,,,,,,,,,,,,,,,,,,,,0.025,,,,,,,,,,Stimuli/psy_flexible_rotation_30_objects_occ0.7_0.9s/images/train/n04405907_8/n02933112_-2/img_stylized_tv_sink_base_white_wood_2003_gray.jpg,n04405907_8,n02933112_-2,flexible,0.863862,n02883344_-1,Stimuli/psy_fixed_rotation_30_objects_occ0.7_0.9s/images/train/n04070727_3/n02883344_-1/img_b05_db_apps_tech_06_02_2_composite_woven_box_2012-3_gray.png,random,fixed,n04405907_8,n02933112_-2,Stimuli/canonical view 2/img_n04405907_8_gray.jpg,Stimuli/canonical view 2/img_n02933112_-2_gray.jpg,foreground,right,Experiments/experiment_28/208.jpg,Experiments/experiment_28/209.jpg,Experiments/experiment_28/210.jpg,Experiments/experiment_28/211.jpg,137,1,2023-05-26_10h08.47.417,Occlusion_Psychophysics,2022.1.4,Win32,60.11421701,,,left,"[""left""]",[0.8462000000477019],False,,0.0,0.0,52.0,52.0,52.0,1.0,,,,,,
,,,,,,,,,,,,,,,,,,,,,0.025,,,,,,,,,,Stimuli/psy_flexible_rotation_30_objects_occ0.7_0.9s/images/train/n03928116_4/n04256520_9/img_dp_33_b_2013__vray_napoleon_iii_sofa_2006_gray.jpg,n03928116_4,n04256520_9,flexible,0.753216,n04256520_9,Stimuli/psy_flexible_rotation_30_objects_occ0.7_0.9s/images/train/n03928116_4/n04256520_9/img_dp_33_b_2013__vray_napoleon_iii_sofa_2006-3_gray.png,foreground,same as foreground,n03928116_4,n04256520_9,Stimuli/canonical view 2/img_n03928116_4_gray.jpg,Stimuli/canonical view 2/img_n04256520_9_gray.jpg,foreground,left,Experiments/experiment_28/212.jpg,Experiments/experiment_28/213.jpg,Experiments/experiment_28/214.jpg,Experiments/experiment_28/215.jpg,137,1,2023-05-26_10h08.47.417,Occlusion_Psychophysics,2022.1.4,Win32,60.11421701,,,right,"[""left""]",[0.7364999999999782],False,,0.0,0.0,53.0,53.0,53.0,1.0,,,,,,
,,,,,,,,,,,,,,,,,,,,,0.05,,,,,,,,,,Stimuli/psy_flexible_rotation_30_objects_occ0.7_0.9s/images/train/n04256520_9/n02933112_4/img_napoleon_iii_sofa_buffet_2001_gray.jpg,n04256520_9,n02933112_4,flexible,0.765756,n02883344_-1,Stimuli/psy_fixed_rotation_30_objects_occ0.7_0.9s/images/train/n04256520_9/n02883344_-1/img_napoleon_iii_sofa_woven_box_2004-3_gray.png,random,fixed,n04256520_9,n02933112_4,Stimuli/canonical view 2/img_n04256520_9_gray.jpg,Stimuli/canonical view 2/img_n02933112_4_gray.jpg,foreground,left,Experiments/experiment_28/216.jpg,Experiments/experiment_28/217.jpg,Experiments/experiment_28/218.jpg,Experiments/experiment_28/219.jpg,137,1,2023-05-26_10h08.47.417,Occlusion_Psychophysics,2022.1.4,Win32,60.11421701,,,left,"[""left""]",[0.557200000047601],False,,0.0,0.0,54.0,54.0,54.0,1.0,,,,,,
,,,,,,,,,,,,,,,,,,,,,0.05,,,,,,,,,,Stimuli/psy_fixed_rotation_30_objects_occ0.7_0.9s/images/train/n02883344_-1/n02933112_-18/img_woven_box_cgaxis_models_48_26_vray_composite_2004_gray.jpg,n02883344_-1,n02933112_-18,fixed,0.884913,n02818832_9,Stimuli/psy_fixed_rotation_30_objects_occ0.7_0.9s/images/train/n04256520_5/n02818832_9/img_meridiani_belmondo_bench_sofa_bed01_blue_2004-3_gray.png,random,fixed,n02883344_-1,n02933112_-18,Stimuli/canonical view 2/img_n02883344_-1_gray.jpg,Stimuli/canonical view 2/img_n02933112_-18_gray.jpg,foreground,right,Experiments/experiment_28/220.jpg,Experiments/experiment_28/221.jpg,Experiments/experiment_28/222.jpg,Experiments/experiment_28/223.jpg,137,1,2023-05-26_10h08.47.417,Occlusion_Psychophysics,2022.1.4,Win32,60.11421701,,,right,"[""right""]",[0.5725999999045825],False,,0.0,0.0,55.0,55.0,55.0,1.0,,,,,,
,,,,,,,,,,,,,,,,,,,,,0.025,,,,,,,,,,Stimuli/psy_fixed_rotation_30_objects_occ0.7_0.9s/images/train/n04379243_8/n02818832_3/img_glass_table_b05_ccm_contemporary_bed_max2013_2009_gray.jpg,n04379243_8,n02818832_3,fixed,0.860941,n02828884_4,Stimuli/psy_flexible_rotation_30_objects_occ0.7_0.9s/images/train/n04256520_4/n02828884_4/img_club_house_italia_nautilus_sofa_b05_c-5_classic_series_bench-2012_2008-3_gray.png,random,flexible,n04379243_8,n02883344_-1,Stimuli/canonical view 2/img_n04379243_8_gray.jpg,Stimuli/canonical view 2/img_n02883344_-1_gray.jpg,random,right,Experiments/experiment_28/224.jpg,Experiments/experiment_28/225.jpg,Experiments/experiment_28/226.jpg,Experiments/experiment_28/227.jpg,137,1,2023-05-26_10h08.47.417,Occlusion_Psychophysics,2022.1.4,Win32,60.11421701,,,left,"[""left""]",[1.0263999998569489],False,,0.0,0.0,56.0,56.0,56.0,1.0,,,,,,
,,,,,,,,,,,,,,,,,,,,,0.05,,,,,,,,,,Stimuli/psy_fixed_rotation_30_objects_occ0.7_0.9s/images/train/n02933112_4/n04379243_-7/img_buffet_quatre_dining_table_2002_gray.jpg,n02933112_4,n04379243_-7,fixed,0.701121,n02883344_0,Stimuli/psy_fixed_rotation_30_objects_occ0.7_0.9s/images/train/n02818832_9/n02883344_0/img_bed01_blue_b03_box_2009-3_gray.png,random,fixed,n02933112_4,n04256520_4,Stimuli/canonical view 2/img_n02933112_4_gray.jpg,Stimuli/canonical view 2/img_n04256520_4_gray.jpg,random,left,Experiments/experiment_28/228.jpg,Experiments/experiment_28/229.jpg,Experiments/experiment_28/230.jpg,Experiments/experiment_28/231.jpg,137,1,2023-05-26_10h08.47.417,Occlusion_Psychophysics,2022.1.4,Win32,60.11421701,,,right,"[""right""]",[0.724999999999909],False,,0.0,0.0,57.0,57.0,57.0,1.0,,,,,,
,,,,,,,,,,,,,,,,,,,,,0.05,,,,,,,,,,Stimuli/psy_fixed_rotation_30_objects_occ0.7_0.9s/images/train/n04405907_9/n04405907_5/img_vray_004_samsung_40_uhd_smart_tv_2011_2015_gray.jpg,n04405907_9,n04405907_5,fixed,0.769593,n04405907_5,Stimuli/psy_fixed_rotation_30_objects_occ0.7_0.9s/images/train/n04405907_9/n04405907_5/img_vray_004_samsung_40_uhd_smart_tv_2011_2015-3_gray.png,foreground,same as foreground,n04405907_9,n04405907_5,Stimuli/canonical view 2/img_n04405907_9_gray.jpg,Stimuli/canonical view 2/img_n04405907_5_gray.jpg,foreground,left,Experiments/experiment_28/232.jpg,Experiments/experiment_28/233.jpg,Experiments/experiment_28/234.jpg,Experiments/experiment_28/235.jpg,137,1,2023-05-26_10h08.47.417,Occlusion_Psychophysics,2022.1.4,Win32,60.11421701,,,left,"[""left""]",[0.8232000000476773],False,,0.0,0.0,58.0,58.0,58.0,1.0,,,,,,
,,,,,,,,,,,,,,,,,,,,,0.025,,,,,,,,,,Stimuli/psy_flexible_rotation_30_objects_occ0.7_0.9s/images/train/n02818832_0/n04379243_-7/img_b03_the_sofa_and_chair_company_-_stanley_bed_2014_quatre_dining_table_2006_gray.jpg,n02818832_0,n04379243_-7,flexible,0.759261,n04405907_8,Stimuli/psy_flexible_rotation_30_objects_occ0.7_0.9s/images/train/n02828884_3/n04405907_8/img_b04_wood_metal_park_bench_stylized_tv_2004-3_gray.png,random,flexible,n02818832_0,n03928116_0,Stimuli/canonical view 2/img_n02818832_0_gray.jpg,Stimuli/canonical view 2/img_n03928116_0_gray.jpg,random,left,Experiments/experiment_28/236.jpg,Experiments/experiment_28/237.jpg,Experiments/experiment_28/238.jpg,Experiments/experiment_28/239.jpg,137,1,2023-05-26_10h08.47.417,Occlusion_Psychophysics,2022.1.4,Win32,60.11421701,,,right,"[""right""]",[0.7085999999046635],False,,0.0,0.0,59.0,59.0,59.0,1.0,,,,,,
,,,,,,,,,,,,,,,,,,,,,0.025,,,,,,,,,,Stimuli/psy_fixed_rotation_30_objects_occ0.7_0.9s/images/train/n03928116_10/n02933112_-2/img_ydp_103_r_2012__vray_sink_base_white_wood_2002_gray.jpg,n03928116_10,n02933112_-2,fixed,0.746847,n04379243_0,Stimuli/psy_flexible_rotation_30_objects_occ0.7_0.9s/images/train/n02883344_15/n04379243_0/img_microwave_box_17th_c._monastery_dining_table_2010_2010-3_gray.png,random,flexible,n03928116_10,n02933112_-2,Stimuli/canonical view 2/img_n03928116_10_gray.jpg,Stimuli/canonical view 2/img_n02933112_-2_gray.jpg,foreground,right,Experiments/experiment_28/240.jpg,Experiments/experiment_28/241.jpg,Experiments/experiment_28/242.jpg,Experiments/experiment_28/243.jpg,137,1,2023-05-26_10h08.47.417,Occlusion_Psychophysics,2022.1.4,Win32,60.11421701,,,right,"[""right""]",[0.6055000000000064],False,,0.0,0.0,60.0,60.0,60.0,1.0,,,,,,
,,,,,,,,,,,,,,,,,,,,,0.025,,,,,,,,,,Stimuli/psy_flexible_rotation_30_objects_occ0.7_0.9s/images/train/n02883344_15/n02818832_9/img_microwave_box_bed01_blue_2006_gray.jpg,n02883344_15,n02818832_9,flexible,0.826069,n04256520_9,Stimuli/psy_fixed_rotation_30_objects_occ0.7_0.9s/images/train/n02933112_4/n04256520_9/img_buffet_napoleon_iii_sofa_2008-3_gray.png,random,fixed,n02883344_15,n02818832_9,Stimuli/canonical view 2/img_n02883344_15_gray.jpg,Stimuli/canonical view 2/img_n02818832_9_gray.jpg,foreground,left,Experiments/experiment_28/244.jpg,Experiments/experiment_28/245.jpg,Experiments/experiment_28/246.jpg,Experiments/experiment_28/247.jpg,137,1,2023-05-26_10h08.47.417,Occlusion_Psychophysics,2022.1.4,Win32,60.11421701,,,left,"[""left""]",[0.8033000001906885],False,,0.0,0.0,61.0,61.0,61.0,1.0,,,,,,
,,,,,,,,,,,,,,,,,,,,,0.025,,,,,,,,,,Stimuli/psy_flexible_rotation_30_objects_occ0.7_0.9s/images/train/n03001627_8/n02933112_-2/img_chair_billiani_doll_sink_base_white_wood_2015_gray.jpg,n03001627_8,n02933112_-2,flexible,0.791697,n02933112_4,Stimuli/psy_flexible_rotation_30_objects_occ0.7_0.9s/images/train/n04256520_9/n02933112_4/img_napoleon_iii_sofa_buffet_2002-3_gray.png,random,flexible,n03001627_8,n03928116_10,Stimuli/canonical view 2/img_n03001627_8_gray.jpg,Stimuli/canonical view 2/img_n03928116_10_gray.jpg,random,right,Experiments/experiment_28/248.jpg,Experiments/experiment_28/249.jpg,Experiments/experiment_28/250.jpg,Experiments/experiment_28/251.jpg,137,1,2023-05-26_10h08.47.417,Occlusion_Psychophysics,2022.1.4,Win32,60.11421701,,,right,"[""right""]",[0.6884999999999764],False,,0.0,0.0,62.0,62.0,62.0,1.0,,,,,,
,,,,,,,,,,,,,,,,,,,,,0.025,,,,,,,,,,Stimuli/psy_fixed_rotation_30_objects_occ0.7_0.9s/images/train/n04256520_9/n02933112_-2/img_napoleon_iii_sofa_sink_base_white_wood_2005_gray.jpg,n04256520_9,n02933112_-2,fixed,0.868856,n03001627_-2,Stimuli/psy_fixed_rotation_30_objects_occ0.7_0.9s/images/train/n03001627_-2/n03001627_-2/img_wood_chair_wood_chair_2008-3_gray.png,random,fixed,n04256520_9,n02933112_-2,Stimuli/canonical view 2/img_n04256520_9_gray.jpg,Stimuli/canonical view 2/img_n02933112_-2_gray.jpg,foreground,left,Experiments/experiment_28/252.jpg,Experiments/experiment_28/253.jpg,Experiments/experiment_28/254.jpg,Experiments/experiment_28/255.jpg,137,1,2023-05-26_10h08.47.417,Occlusion_Psychophysics,2022.1.4,Win32,60.11421701,,,left,"[""left""]",[0.796400000095332],False,,0.0,0.0,63.0,63.0,63.0,1.0,,,,,,
,,,,,,,,,,,,,,,,,,,,,0.025,,,,,,,,,,Stimuli/psy_fixed_rotation_30_objects_occ0.7_0.9s/images/train/n04256520_9/n04379243_-7/img_napoleon_iii_sofa_quatre_dining_table_2002_gray.jpg,n04256520_9,n04379243_-7,fixed,0.79124,n02818832_0,Stimuli/psy_flexible_rotation_30_objects_occ0.7_0.9s/images/train/n02818832_9/n02818832_0/img_bed01_blue_b03_the_sofa_and_chair_company_-_stanley_bed_2014_2010-3_gray.png,random,flexible,n04256520_9,n02933112_4,Stimuli/canonical view 2/img_n04256520_9_gray.jpg,Stimuli/canonical view 2/img_n02933112_4_gray.jpg,random,left,Experiments/experiment_28/256.jpg,Experiments/experiment_28/257.jpg,Experiments/experiment_28/258.jpg,Experiments/experiment_28/259.jpg,137,1,2023-05-26_10h08.47.417,Occlusion_Psychophysics,2022.1.4,Win32,60.11421701,,,left,"[""left""]",[0.9130999999047162],False,,0.0,0.0,64.0,64.0,64.0,1.0,,,,,,
,,,,,,,,,,,,,,,,,,,,,0.025,,,,,,,,,,Stimuli/psy_fixed_rotation_30_objects_occ0.7_0.9s/images/train/n04256520_4/n04405907_9/img_club_house_italia_nautilus_sofa_vray_004_2006_gray.jpg,n04256520_4,n04405907_9,fixed,0.898923,n04405907_9,Stimuli/psy_fixed_rotation_30_objects_occ0.7_0.9s/images/train/n04256520_4/n04405907_9/img_club_house_italia_nautilus_sofa_vray_004_2006-3_gray.png,foreground,same as foreground,n04256520_4,n02828884_9,Stimuli/canonical view 2/img_n04256520_4_gray.jpg,Stimuli/canonical view 2/img_n02828884_9_gray.jpg,random,left,Experiments/experiment_28/260.jpg,Experiments/experiment_28/261.jpg,Experiments/experiment_28/262.jpg,Experiments/experiment_28/263.jpg,137,1,2023-05-26_10h08.47.417,Occlusion_Psychophysics,2022.1.4,Win32,60.11421701,,,right,"[""right""]",[1.0484000000953984],False,,0.0,0.0,65.0,65.0,65.0,1.0,,,,,,
,,,,,,,,,,,,,,,,,,,,,0.025,,,,,,,,,,Stimuli/psy_fixed_rotation_30_objects_occ0.7_0.9s/images/train/n02818832_9/n02818832_0/img_bed01_blue_b03_the_sofa_and_chair_company_-_stanley_bed_2014_2003_gray.jpg,n02818832_9,n02818832_0,fixed,0.758432,n02818832_0,Stimuli/psy_fixed_rotation_30_objects_occ0.7_0.9s/images/train/n02818832_9/n02818832_0/img_bed01_blue_b03_the_sofa_and_chair_company_-_stanley_bed_2014_2003-3_gray.png,foreground,same as foreground,n02818832_9,n02818832_0,Stimuli/canonical view 2/img_n02818832_9_gray.jpg,Stimuli/canonical view 2/img_n02818832_0_gray.jpg,foreground,right,Experiments/experiment_28/264.jpg,Experiments/experiment_28/265.jpg,Experiments/experiment_28/266.jpg,Experiments/experiment_28/267.jpg,137,1,2023-05-26_10h08.47.417,Occlusion_Psychophysics,2022.1.4,Win32,60.11421701,,,right,"[""right""]",[0.7077000000476801],False,,0.0,0.0,66.0,66.0,66.0,1.0,,,,,,
,,,,,,,,,,,,,,,,,,,,,0.05,,,,,,,,,,Stimuli/psy_fixed_rotation_30_objects_occ0.7_0.9s/images/train/n04405907_9/n02883344_-1/img_vray_004_woven_box_2010_gray.jpg,n04405907_9,n02883344_-1,fixed,0.818892,n02883344_-1,Stimuli/psy_fixed_rotation_30_objects_occ0.7_0.9s/images/train/n04405907_9/n02883344_-1/img_vray_004_woven_box_2010-3_gray.png,foreground,same as foreground,n04405907_9,n02883344_15,Stimuli/canonical view 2/img_n04405907_9_gray.jpg,Stimuli/canonical view 2/img_n02883344_15_gray.jpg,random,right,Experiments/experiment_28/268.jpg,Experiments/experiment_28/269.jpg,Experiments/experiment_28/270.jpg,Experiments/experiment_28/271.jpg,137,1,2023-05-26_10h08.47.417,Occlusion_Psychophysics,2022.1.4,Win32,60.11421701,,,left,"[""left""]",[0.5897999999523336],False,,0.0,0.0,67.0,67.0,67.0,1.0,,,,,,
,,,,,,,,,,,,,,,,,,,,,0.05,,,,,,,,,,Stimuli/psy_fixed_rotation_30_objects_occ0.7_0.9s/images/train/n04405907_9/n04379243_8/img_vray_004_glass_table_2004_gray.jpg,n04405907_9,n04379243_8,fixed,0.746461,n04379243_-7,Stimuli/psy_flexible_rotation_30_objects_occ0.7_0.9s/images/train/n04070727_3/n04379243_-7/img_b05_db_apps_tech_06_02_2_composite_quatre_dining_table_2004-3_gray.png,random,flexible,n04405907_9,n04379243_8,Stimuli/canonical view 2/img_n04405907_9_gray.jpg,Stimuli/canonical view 2/img_n04379243_8_gray.jpg,foreground,left,Experiments/experiment_28/272.jpg,Experiments/experiment_28/273.jpg,Experiments/experiment_28/274.jpg,Experiments/experiment_28/275.jpg,137,1,2023-05-26_10h08.47.417,Occlusion_Psychophysics,2022.1.4,Win32,60.11421701,,,left,"[""left""]",[0.44939999985695067],False,,0.0,0.0,68.0,68.0,68.0,1.0,,,,,,
,,,,,,,,,,,,,,,,,,,,,0.025,,,,,,,,,,Stimuli/psy_fixed_rotation_30_objects_occ0.7_0.9s/images/train/n02818832_0/n04405907_5/img_b03_the_sofa_and_chair_company_-_stanley_bed_2014_samsung_40_uhd_smart_tv_2011_2000_gray.jpg,n02818832_0,n04405907_5,fixed,0.721403,n04256520_5,Stimuli/psy_flexible_rotation_30_objects_occ0.7_0.9s/images/train/n04379243_0/n04256520_5/img_17th_c._monastery_dining_table_2010_meridiani_belmondo_bench_sofa_2011-3_gray.png,random,flexible,n02818832_0,n04405907_5,Stimuli/canonical view 2/img_n02818832_0_gray.jpg,Stimuli/canonical view 2/img_n04405907_5_gray.jpg,foreground,left,Experiments/experiment_28/276.jpg,Experiments/experiment_28/277.jpg,Experiments/experiment_28/278.jpg,Experiments/experiment_28/279.jpg,137,1,2023-05-26_10h08.47.417,Occlusion_Psychophysics,2022.1.4,Win32,60.11421701,,,right,"[""right""]",[0.6282999999523327],False,,0.0,0.0,69.0,69.0,69.0,1.0,,,,,,
,,,,,,,,,,,,,,,,,,,,,0.025,,,,,,,,,,Stimuli/psy_flexible_rotation_30_objects_occ0.7_0.9s/images/train/n03001627_8/n03001627_9/img_chair_billiani_doll_chair_eames_plastic_armchair_2014_gray.jpg,n03001627_8,n03001627_9,flexible,0.812185,n03001627_9,Stimuli/psy_flexible_rotation_30_objects_occ0.7_0.9s/images/train/n03001627_8/n03001627_9/img_chair_billiani_doll_chair_eames_plastic_armchair_2014-3_gray.png,foreground,same as foreground,n03001627_8,n03001627_9,Stimuli/canonical view 2/img_n03001627_8_gray.jpg,Stimuli/canonical view 2/img_n03001627_9_gray.jpg,foreground,right,Experiments/experiment_28/280.jpg,Experiments/experiment_28/281.jpg,Experiments/experiment_28/282.jpg,Experiments/experiment_28/283.jpg,137,1,2023-05-26_10h08.47.417,Occlusion_Psychophysics,2022.1.4,Win32,60.11421701,,,right,"[""right""]",[0.6974999999999909],False,,0.0,0.0,70.0,70.0,70.0,1.0,,,,,,
,,,,,,,,,,,,,,,,,,,,,0.025,,,,,,,,,,Stimuli/psy_fixed_rotation_30_objects_occ0.7_0.9s/images/train/n02818832_9/n02818832_3/img_bed01_blue_b05_ccm_contemporary_bed_max2013_2007_gray.jpg,n02818832_9,n02818832_3,fixed,0.837687,n02818832_3,Stimuli/psy_fixed_rotation_30_objects_occ0.7_0.9s/images/train/n02818832_9/n02818832_3/img_bed01_blue_b05_ccm_contemporary_bed_max2013_2007-3_gray.png,foreground,same as foreground,n02818832_9,n02818832_3,Stimuli/canonical view 2/img_n02818832_9_gray.jpg,Stimuli/canonical view 2/img_n02818832_3_gray.jpg,foreground,left,Experiments/experiment_28/284.jpg,Experiments/experiment_28/285.jpg,Experiments/experiment_28/286.jpg,Experiments/experiment_28/287.jpg,137,1,2023-05-26_10h08.47.417,Occlusion_Psychophysics,2022.1.4,Win32,60.11421701,,,right,"[""right""]",[0.6362000000476655],False,,0.0,0.0,71.0,71.0,71.0,1.0,,,,,,
,,,,,,,,,,,,,,,,,,,,,0.05,,,,,,,,,,Stimuli/psy_fixed_rotation_30_objects_occ0.7_0.9s/images/train/n02933112_-18/n02933112_-2/img_cgaxis_models_48_26_vray_composite_sink_base_white_wood_2009_gray.jpg,n02933112_-18,n02933112_-2,fixed,0.882361,n02818832_3,Stimuli/psy_flexible_rotation_30_objects_occ0.7_0.9s/images/train/n02818832_0/n02818832_3/img_b03_the_sofa_and_chair_company_-_stanley_bed_2014_b05_ccm_contemporary_bed_max2013_2014-3_gray.png,random,flexible,n02933112_-18,n02933112_-2,Stimuli/canonical view 2/img_n02933112_-18_gray.jpg,Stimuli/canonical view 2/img_n02933112_-2_gray.jpg,foreground,right,Experiments/experiment_28/288.jpg,Experiments/experiment_28/289.jpg,Experiments/experiment_28/290.jpg,Experiments/experiment_28/291.jpg,137,1,2023-05-26_10h08.47.417,Occlusion_Psychophysics,2022.1.4,Win32,60.11421701,,,left,"[""left""]",[0.5354999999999563],False,,0.0,0.0,72.0,72.0,72.0,1.0,,,,,,
,,,,,,,,,,,,,,,,,,,,,0.025,,,,,,,,,,Stimuli/psy_fixed_rotation_30_objects_occ0.7_0.9s/images/train/n02828884_4/n03928116_0/img_b05_c-5_classic_series_bench-2012_b02_piano_2009_gray.jpg,n02828884_4,n03928116_0,fixed,0.728249,n03928116_0,Stimuli/psy_fixed_rotation_30_objects_occ0.7_0.9s/images/train/n02828884_4/n03928116_0/img_b05_c-5_classic_series_bench-2012_b02_piano_2009-3_gray.png,foreground,same as foreground,n02828884_4,n03928116_0,Stimuli/canonical view 2/img_n02828884_4_gray.jpg,Stimuli/canonical view 2/img_n03928116_0_gray.jpg,foreground,right,Experiments/experiment_28/292.jpg,Experiments/experiment_28/293.jpg,Experiments/experiment_28/294.jpg,Experiments/experiment_28/295.jpg,137,1,2023-05-26_10h08.47.417,Occlusion_Psychophysics,2022.1.4,Win32,60.11421701,,,left,"[""left""]",[0.5029999999999291],False,,0.0,0.0,73.0,73.0,73.0,1.0,,,,,,
,,,,,,,,,,,,,,,,,,,,,0.025,,,,,,,,,,Stimuli/psy_flexible_rotation_30_objects_occ0.7_0.9s/images/train/n04256520_5/n03928116_0/img_meridiani_belmondo_bench_sofa_b02_piano_2010_gray.jpg,n04256520_5,n03928116_0,flexible,0.825618,n03928116_0,Stimuli/psy_flexible_rotation_30_objects_occ0.7_0.9s/images/train/n04256520_5/n03928116_0/img_meridiani_belmondo_bench_sofa_b02_piano_2010-3_gray.png,foreground,same as foreground,n04256520_5,n03928116_0,Stimuli/canonical view 2/img_n04256520_5_gray.jpg,Stimuli/canonical view 2/img_n03928116_0_gray.jpg,foreground,left,Experiments/experiment_28/296.jpg,Experiments/experiment_28/297.jpg,Experiments/experiment_28/298.jpg,Experiments/experiment_28/299.jpg,137,1,2023-05-26_10h08.47.417,Occlusion_Psychophysics,2022.1.4,Win32,60.11421701,,,left,"[""left""]",[0.7060000000000173],False,,0.0,0.0,74.0,74.0,74.0,1.0,,,,,,
,,,,,,,,,,,,,,,,,,,,,0.05,,,,,,,,,,Stimuli/psy_flexible_rotation_30_objects_occ0.7_0.9s/images/train/n02828884_3/n02818832_0/img_b04_wood_metal_park_bench_b03_the_sofa_and_chair_company_-_stanley_bed_2014_2012_gray.jpg,n02828884_3,n02818832_0,flexible,0.783465,n03928116_0,Stimuli/psy_fixed_rotation_30_objects_occ0.7_0.9s/images/train/n02818832_9/n03928116_0/img_bed01_blue_b02_piano_2015-3_gray.png,random,fixed,n02828884_3,n02818832_0,Stimuli/canonical view 2/img_n02828884_3_gray.jpg,Stimuli/canonical view 2/img_n02818832_0_gray.jpg,foreground,right,Experiments/experiment_28/300.jpg,Experiments/experiment_28/301.jpg,Experiments/experiment_28/302.jpg,Experiments/experiment_28/303.jpg,137,1,2023-05-26_10h08.47.417,Occlusion_Psychophysics,2022.1.4,Win32,60.11421701,,,right,"[""right""]",[0.7655999999046799],False,,0.0,0.0,75.0,75.0,75.0,1.0,,,,,,
,,,,,,,,,,,,,,,,,,,,,0.05,,,,,,,,,,Stimuli/psy_fixed_rotation_30_objects_occ0.7_0.9s/images/train/n02883344_15/n04256520_4/img_microwave_box_club_house_italia_nautilus_sofa_2006_gray.jpg,n02883344_15,n04256520_4,fixed,0.718842,n04256520_4,Stimuli/psy_fixed_rotation_30_objects_occ0.7_0.9s/images/train/n02883344_15/n04256520_4/img_microwave_box_club_house_italia_nautilus_sofa_2006-3_gray.png,foreground,same as foreground,n02883344_15,n04256520_4,Stimuli/canonical view 2/img_n02883344_15_gray.jpg,Stimuli/canonical view 2/img_n04256520_4_gray.jpg,foreground,left,Experiments/experiment_28/304.jpg,Experiments/experiment_28/305.jpg,Experiments/experiment_28/306.jpg,Experiments/experiment_28/307.jpg,137,1,2023-05-26_10h08.47.417,Occlusion_Psychophysics,2022.1.4,Win32,60.11421701,,,right,"[""right""]",[0.5327000000476119],False,,0.0,0.0,76.0,76.0,76.0,1.0,,,,,,
,,,,,,,,,,,,,,,,,,,,,0.025,,,,,,,,,,Stimuli/psy_fixed_rotation_30_objects_occ0.7_0.9s/images/train/n02818832_9/n04379243_0/img_bed01_blue_17th_c._monastery_dining_table_2010_2008_gray.jpg,n02818832_9,n04379243_0,fixed,0.742092,n02883344_-1,Stimuli/psy_flexible_rotation_30_objects_occ0.7_0.9s/images/train/n04379243_-7/n02883344_-1/img_quatre_dining_table_woven_box_2012-3_gray.png,random,flexible,n02818832_9,n03001627_8,Stimuli/canonical view 2/img_n02818832_9_gray.jpg,Stimuli/canonical view 2/img_n03001627_8_gray.jpg,random,left,Experiments/experiment_28/308.jpg,Experiments/experiment_28/309.jpg,Experiments/experiment_28/310.jpg,Experiments/experiment_28/311.jpg,137,1,2023-05-26_10h08.47.417,Occlusion_Psychophysics,2022.1.4,Win32,60.11421701,,,left,"[""left""]",[0.9639000000953502],False,,0.0,0.0,77.0,77.0,77.0,1.0,,,,,,
,,,,,,,,,,,,,,,,,,,,,0.025,,,,,,,,,,Stimuli/psy_fixed_rotation_30_objects_occ0.7_0.9s/images/train/n03001627_-2/n02883344_15/img_wood_chair_microwave_box_2009_gray.jpg,n03001627_-2,n02883344_15,fixed,0.726469,n02883344_15,Stimuli/psy_fixed_rotation_30_objects_occ0.7_0.9s/images/train/n03001627_-2/n02883344_15/img_wood_chair_microwave_box_2009-3_gray.png,foreground,same as foreground,n03001627_-2,n02883344_15,Stimuli/canonical view 2/img_n03001627_-2_gray.jpg,Stimuli/canonical view 2/img_n02883344_15_gray.jpg,foreground,right,Experiments/experiment_28/312.jpg,Experiments/experiment_28/313.jpg,Experiments/experiment_28/314.jpg,Experiments/experiment_28/315.jpg,137,1,2023-05-26_10h08.47.417,Occlusion_Psychophysics,2022.1.4,Win32,60.11421701,,,right,"[""right""]",[0.5687999999523754],False,,0.0,0.0,78.0,78.0,78.0,1.0,,,,,,
,,,,,,,,,,,,,,,,,,,,,0.025,,,,,,,,,,Stimuli/psy_flexible_rotation_30_objects_occ0.7_0.9s/images/train/n02818832_0/n02933112_4/img_b03_the_sofa_and_chair_company_-_stanley_bed_2014_buffet_2000_gray.jpg,n02818832_0,n02933112_4,flexible,0.764757,n02933112_-18,Stimuli/psy_fixed_rotation_30_objects_occ0.7_0.9s/images/train/n03001627_9/n02933112_-18/img_chair_eames_plastic_armchair_cgaxis_models_48_26_vray_composite_2008-3_gray.png,random,fixed,n02818832_0,n02933112_4,Stimuli/canonical view 2/img_n02818832_0_gray.jpg,Stimuli/canonical view 2/img_n02933112_4_gray.jpg,foreground,left,Experiments/experiment_28/316.jpg,Experiments/experiment_28/317.jpg,Experiments/experiment_28/318.jpg,Experiments/experiment_28/319.jpg,137,1,2023-05-26_10h08.47.417,Occlusion_Psychophysics,2022.1.4,Win32,60.11421701,,,right,"[""right""]",[0.5543000001907785],False,,0.0,0.0,79.0,79.0,79.0,1.0,,,,,,
,,,,,,,,,,,,,,,,,,,,,0.025,,,,,,,,,,Stimuli/psy_flexible_rotation_30_objects_occ0.7_0.9s/images/train/n03001627_9/n04256520_4/img_chair_eames_plastic_armchair_club_house_italia_nautilus_sofa_2002_gray.jpg,n03001627_9,n04256520_4,flexible,0.711718,n04256520_4,Stimuli/psy_flexible_rotation_30_objects_occ0.7_0.9s/images/train/n03001627_9/n04256520_4/img_chair_eames_plastic_armchair_club_house_italia_nautilus_sofa_2002-3_gray.png,foreground,same as foreground,n03001627_9,n04256520_4,Stimuli/canonical view 2/img_n03001627_9_gray.jpg,Stimuli/canonical view 2/img_n04256520_4_gray.jpg,foreground,left,Experiments/experiment_28/320.jpg,Experiments/experiment_28/321.jpg,Experiments/experiment_28/322.jpg,Experiments/experiment_28/323.jpg,137,1,2023-05-26_10h08.47.417,Occlusion_Psychophysics,2022.1.4,Win32,60.11421701,,,right,"[""right""]",[0.6335999999047317],False,,0.0,0.0,80.0,80.0,80.0,1.0,,,,,,
,,,,,,,,,,,,,,,,,,,,,0.05,,,,,,,,,,Stimuli/psy_fixed_rotation_30_objects_occ0.7_0.9s/images/train/n02828884_3/n02933112_-18/img_b04_wood_metal_park_bench_cgaxis_models_48_26_vray_composite_2001_gray.jpg,n02828884_3,n02933112_-18,fixed,0.892145,n04379243_-7,Stimuli/psy_flexible_rotation_30_objects_occ0.7_0.9s/images/train/n03928116_0/n04379243_-7/img_b02_piano_quatre_dining_table_2002-3_gray.png,random,flexible,n02828884_3,n02933112_-18,Stimuli/canonical view 2/img_n02828884_3_gray.jpg,Stimuli/canonical view 2/img_n02933112_-18_gray.jpg,foreground,left,Experiments/experiment_28/324.jpg,Experiments/experiment_28/325.jpg,Experiments/experiment_28/326.jpg,Experiments/experiment_28/327.jpg,137,1,2023-05-26_10h08.47.417,Occlusion_Psychophysics,2022.1.4,Win32,60.11421701,,,left,"[""left""]",[0.6855000000000473],False,,0.0,0.0,81.0,81.0,81.0,1.0,,,,,,
,,,,,,,,,,,,,,,,,,,,,0.05,,,,,,,,,,Stimuli/psy_fixed_rotation_30_objects_occ0.7_0.9s/images/train/n02828884_3/n02883344_-1/img_b04_wood_metal_park_bench_woven_box_2009_gray.jpg,n02828884_3,n02883344_-1,fixed,0.888548,n04379243_0,Stimuli/psy_flexible_rotation_30_objects_occ0.7_0.9s/images/train/n02818832_9/n04379243_0/img_bed01_blue_17th_c._monastery_dining_table_2010_2011-3_gray.png,random,flexible,n02828884_3,n02828884_9,Stimuli/canonical view 2/img_n02828884_3_gray.jpg,Stimuli/canonical view 2/img_n02828884_9_gray.jpg,random,right,Experiments/experiment_28/328.jpg,Experiments/experiment_28/329.jpg,Experiments/experiment_28/330.jpg,Experiments/experiment_28/331.jpg,137,1,2023-05-26_10h08.47.417,Occlusion_Psychophysics,2022.1.4,Win32,60.11421701,,,right,"[""right""]",[0.9812000000476928],False,,0.0,0.0,82.0,82.0,82.0,1.0,,,,,,
,,,,,,,,,,,,,,,,,,,,,0.05,,,,,,,,,,Stimuli/psy_flexible_rotation_30_objects_occ0.7_0.9s/images/train/n04379243_-7/n02933112_4/img_quatre_dining_table_buffet_2004_gray.jpg,n04379243_-7,n02933112_4,flexible,0.779603,n02933112_4,Stimuli/psy_flexible_rotation_30_objects_occ0.7_0.9s/images/train/n04379243_-7/n02933112_4/img_quatre_dining_table_buffet_2004-3_gray.png,foreground,same as foreground,n04379243_-7,n02818832_9,Stimuli/canonical view 2/img_n04379243_-7_gray.jpg,Stimuli/canonical view 2/img_n02818832_9_gray.jpg,random,left,Experiments/experiment_28/332.jpg,Experiments/experiment_28/333.jpg,Experiments/experiment_28/334.jpg,Experiments/experiment_28/335.jpg,137,1,2023-05-26_10h08.47.417,Occlusion_Psychophysics,2022.1.4,Win32,60.11421701,,,left,"[""left""]",[0.5995999999046262],False,,0.0,0.0,83.0,83.0,83.0,1.0,,,,,,
,,,,,,,,,,,,,,,,,,,,,0.05,,,,,,,,,,Stimuli/psy_fixed_rotation_30_objects_occ0.7_0.9s/images/train/n04405907_9/n04256520_5/img_vray_004_meridiani_belmondo_bench_sofa_2011_gray.jpg,n04405907_9,n04256520_5,fixed,0.819894,n04256520_5,Stimuli/psy_fixed_rotation_30_objects_occ0.7_0.9s/images/train/n04405907_9/n04256520_5/img_vray_004_meridiani_belmondo_bench_sofa_2011-3_gray.png,foreground,same as foreground,n04405907_9,n02828884_9,Stimuli/canonical view 2/img_n04405907_9_gray.jpg,Stimuli/canonical view 2/img_n02828884_9_gray.jpg,random,left,Experiments/experiment_28/336.jpg,Experiments/experiment_28/337.jpg,Experiments/experiment_28/338.jpg,Experiments/experiment_28/339.jpg,137,1,2023-05-26_10h08.47.417,Occlusion_Psychophysics,2022.1.4,Win32,60.11421701,,,right,"[""right""]",[0.9127999999523126],False,,0.0,0.0,84.0,84.0,84.0,1.0,,,,,,
,,,,,,,,,,,,,,,,,,,,,0.05,,,,,,,,,,Stimuli/psy_flexible_rotation_30_objects_occ0.7_0.9s/images/train/n04256520_5/n02933112_-2/img_meridiani_belmondo_bench_sofa_sink_base_white_wood_2015_gray.jpg,n04256520_5,n02933112_-2,flexible,0.791558,n02933112_-2,Stimuli/psy_flexible_rotation_30_objects_occ0.7_0.9s/images/train/n04256520_5/n02933112_-2/img_meridiani_belmondo_bench_sofa_sink_base_white_wood_2015-3_gray.png,foreground,same as foreground,n04256520_5,n03928116_4,Stimuli/canonical view 2/img_n04256520_5_gray.jpg,Stimuli/canonical view 2/img_n03928116_4_gray.jpg,random,right,Experiments/experiment_28/340.jpg,Experiments/experiment_28/341.jpg,Experiments/experiment_28/342.jpg,Experiments/experiment_28/343.jpg,137,1,2023-05-26_10h08.47.417,Occlusion_Psychophysics,2022.1.4,Win32,60.11421701,,,right,"[""right""]",[0.9284999999999854],False,,0.0,0.0,85.0,85.0,85.0,1.0,,,,,,
,,,,,,,,,,,,,,,,,,,,,0.025,,,,,,,,,,Stimuli/psy_flexible_rotation_30_objects_occ0.7_0.9s/images/train/n04256520_5/n02883344_0/img_meridiani_belmondo_bench_sofa_b03_box_2001_gray.jpg,n04256520_5,n02883344_0,flexible,0.75076,n02883344_0,Stimuli/psy_flexible_rotation_30_objects_occ0.7_0.9s/images/train/n04256520_5/n02883344_0/img_meridiani_belmondo_bench_sofa_b03_box_2001-3_gray.png,foreground,same as foreground,n04256520_5,n02883344_0,Stimuli/canonical view 2/img_n04256520_5_gray.jpg,Stimuli/canonical view 2/img_n02883344_0_gray.jpg,foreground,left,Experiments/experiment_28/344.jpg,Experiments/experiment_28/345.jpg,Experiments/experiment_28/346.jpg,Experiments/experiment_28/347.jpg,137,1,2023-05-26_10h08.47.417,Occlusion_Psychophysics,2022.1.4,Win32,60.11421701,,,right,"[""right""]",[0.7729999999999109],False,,0.0,0.0,86.0,86.0,86.0,1.0,,,,,,
,,,,,,,,,,,,,,,,,,,,,0.025,,,,,,,,,,Stimuli/psy_fixed_rotation_30_objects_occ0.7_0.9s/images/train/n03928116_0/n02883344_0/img_b02_piano_b03_box_2005_gray.jpg,n03928116_0,n02883344_0,fixed,0.701008,n02883344_-1,Stimuli/psy_flexible_rotation_30_objects_occ0.7_0.9s/images/train/n02828884_9/n02883344_-1/img_cr-96_bench_woven_box_2013-3_gray.png,random,flexible,n03928116_0,n02883344_0,Stimuli/canonical view 2/img_n03928116_0_gray.jpg,Stimuli/canonical view 2/img_n02883344_0_gray.jpg,foreground,right,Experiments/experiment_28/348.jpg,Experiments/experiment_28/349.jpg,Experiments/experiment_28/350.jpg,Experiments/experiment_28/351.jpg,137,1,2023-05-26_10h08.47.417,Occlusion_Psychophysics,2022.1.4,Win32,60.11421701,,,right,"[""right""]",[0.5912000000475928],True,right,1.0,0.0,87.0,87.0,87.0,1.0,0.6537,,,,,
,,,,,,,,,,,,,,,,,,,,,0.025,,,,,,,,,,Stimuli/psy_fixed_rotation_30_objects_occ0.7_0.9s/images/train/n04256520_5/n03928116_0/img_meridiani_belmondo_bench_sofa_b02_piano_2003_gray.jpg,n04256520_5,n03928116_0,fixed,0.707181,n04256520_4,Stimuli/psy_flexible_rotation_30_objects_occ0.7_0.9s/images/train/n03001627_9/n04256520_4/img_chair_eames_plastic_armchair_club_house_italia_nautilus_sofa_2007-3_gray.png,random,flexible,n04256520_5,n03928116_0,Stimuli/canonical view 2/img_n04256520_5_gray.jpg,Stimuli/canonical view 2/img_n03928116_0_gray.jpg,foreground,left,Experiments/experiment_28/352.jpg,Experiments/experiment_28/353.jpg,Experiments/experiment_28/354.jpg,Experiments/experiment_28/355.jpg,137,1,2023-05-26_10h08.47.417,Occlusion_Psychophysics,2022.1.4,Win32,60.11421701,,,left,"[""left""]",[0.7469999999999573],False,,0.0,0.0,88.0,88.0,88.0,1.0,,,,,,
,,,,,,,,,,,,,,,,,,,,,0.05,,,,,,,,,,Stimuli/psy_flexible_rotation_30_objects_occ0.7_0.9s/images/train/n03928116_4/n02818832_9/img_dp_33_b_2013__vray_bed01_blue_2009_gray.jpg,n03928116_4,n02818832_9,flexible,0.722881,n04379243_8,Stimuli/psy_flexible_rotation_30_objects_occ0.7_0.9s/images/train/n04379243_0/n04379243_8/img_17th_c._monastery_dining_table_2010_glass_table_2012-3_gray.png,random,flexible,n03928116_4,n02818832_9,Stimuli/canonical view 2/img_n03928116_4_gray.jpg,Stimuli/canonical view 2/img_n02818832_9_gray.jpg,foreground,left,Experiments/experiment_28/356.jpg,Experiments/experiment_28/357.jpg,Experiments/experiment_28/358.jpg,Experiments/experiment_28/359.jpg,137,1,2023-05-26_10h08.47.417,Occlusion_Psychophysics,2022.1.4,Win32,60.11421701,,,left,"[""left""]",[1.0638999998569716],False,,0.0,0.0,89.0,89.0,89.0,1.0,,,,,,
,,,,,,,,,,,,,,,,,,,,,0.025,,,,,,,,,,Stimuli/psy_flexible_rotation_30_objects_occ0.7_0.9s/images/train/n02828884_4/n04256520_5/img_b05_c-5_classic_series_bench-2012_meridiani_belmondo_bench_sofa_2006_gray.jpg,n02828884_4,n04256520_5,flexible,0.702146,n02933112_-18,Stimuli/psy_fixed_rotation_30_objects_occ0.7_0.9s/images/train/n03001627_-2/n02933112_-18/img_wood_chair_cgaxis_models_48_26_vray_composite_2005-3_gray.png,random,fixed,n02828884_4,n04256520_5,Stimuli/canonical view 2/img_n02828884_4_gray.jpg,Stimuli/canonical view 2/img_n04256520_5_gray.jpg,foreground,right,Experiments/experiment_28/360.jpg,Experiments/experiment_28/361.jpg,Experiments/experiment_28/362.jpg,Experiments/experiment_28/363.jpg,137,1,2023-05-26_10h08.47.417,Occlusion_Psychophysics,2022.1.4,Win32,60.11421701,,,left,"[""left""]",[0.666800000190733],False,,0.0,0.0,90.0,90.0,90.0,1.0,,,,,,
,,,,,,,,,,,,,,,,,,,,,0.05,,,,,,,,,,Stimuli/psy_flexible_rotation_30_objects_occ0.7_0.9s/images/train/n02828884_9/n02883344_15/img_cr-96_bench_microwave_box_2010_gray.jpg,n02828884_9,n02883344_15,flexible,0.789657,n02883344_15,Stimuli/psy_flexible_rotation_30_objects_occ0.7_0.9s/images/train/n02828884_9/n02883344_15/img_cr-96_bench_microwave_box_2010-3_gray.png,foreground,same as foreground,n02828884_9,n02883344_15,Stimuli/canonical view 2/img_n02828884_9_gray.jpg,Stimuli/canonical view 2/img_n02883344_15_gray.jpg,foreground,left,Experiments/experiment_28/364.jpg,Experiments/experiment_28/365.jpg,Experiments/experiment_28/366.jpg,Experiments/experiment_28/367.jpg,137,1,2023-05-26_10h08.47.417,Occlusion_Psychophysics,2022.1.4,Win32,60.11421701,,,right,"[""right""]",[0.7524999999999409],False,,0.0,0.0,91.0,91.0,91.0,1.0,,,,,,
,,,,,,,,,,,,,,,,,,,,,0.05,,,,,,,,,,Stimuli/psy_fixed_rotation_30_objects_occ0.7_0.9s/images/train/n03001627_8/n03928116_0/img_chair_billiani_doll_b02_piano_2001_gray.jpg,n03001627_8,n03928116_0,fixed,0.72776,n02828884_3,Stimuli/psy_fixed_rotation_30_objects_occ0.7_0.9s/images/train/n04405907_9/n02828884_3/img_vray_004_b04_wood_metal_park_bench_2010-3_gray.png,random,fixed,n03001627_8,n03928116_0,Stimuli/canonical view 2/img_n03001627_8_gray.jpg,Stimuli/canonical view 2/img_n03928116_0_gray.jpg,foreground,left,Experiments/experiment_28/368.jpg,Experiments/experiment_28/369.jpg,Experiments/experiment_28/370.jpg,Experiments/experiment_28/371.jpg,137,1,2023-05-26_10h08.47.417,Occlusion_Psychophysics,2022.1.4,Win32,60.11421701,,,left,"[""left""]",[0.49670000004766734],False,,0.0,0.0,92.0,92.0,92.0,1.0,,,,,,
,,,,,,,,,,,,,,,,,,,,,0.05,,,,,,,,,,Stimuli/psy_fixed_rotation_30_objects_occ0.7_0.9s/images/train/n02883344_15/n02883344_-1/img_microwave_box_woven_box_2004_gray.jpg,n02883344_15,n02883344_-1,fixed,0.85538,n02883344_-1,Stimuli/psy_fixed_rotation_30_objects_occ0.7_0.9s/images/train/n02883344_15/n02883344_-1/img_microwave_box_woven_box_2004-3_gray.png,foreground,same as foreground,n02883344_15,n02883344_-1,Stimuli/canonical view 2/img_n02883344_15_gray.jpg,Stimuli/canonical view 2/img_n02883344_-1_gray.jpg,foreground,right,Experiments/experiment_28/372.jpg,Experiments/experiment_28/373.jpg,Experiments/experiment_28/374.jpg,Experiments/experiment_28/375.jpg,137,1,2023-05-26_10h08.47.417,Occlusion_Psychophysics,2022.1.4,Win32,60.11421701,,,right,"[""right""]",[0.6496000001430957],False,,0.0,0.0,93.0,93.0,93.0,1.0,,,,,,
,,,,,,,,,,,,,,,,,,,,,0.05,,,,,,,,,,Stimuli/psy_flexible_rotation_30_objects_occ0.7_0.9s/images/train/n02818832_0/n04256520_9/img_b03_the_sofa_and_chair_company_-_stanley_bed_2014_napoleon_iii_sofa_2004_gray.jpg,n02818832_0,n04256520_9,flexible,0.771451,n02818832_0,Stimuli/psy_fixed_rotation_30_objects_occ0.7_0.9s/images/train/n04070727_3/n02818832_0/img_b05_db_apps_tech_06_02_2_composite_b03_the_sofa_and_chair_company_-_stanley_bed_2014_2015-3_gray.png,random,fixed,n02818832_0,n04256520_9,Stimuli/canonical view 2/img_n02818832_0_gray.jpg,Stimuli/canonical view 2/img_n04256520_9_gray.jpg,foreground,left,Experiments/experiment_28/376.jpg,Experiments/experiment_28/377.jpg,Experiments/experiment_28/378.jpg,Experiments/experiment_28/379.jpg,137,1,2023-05-26_10h08.47.417,Occlusion_Psychophysics,2022.1.4,Win32,60.11421701,,,left,"[""right""]",[0.6909000000954393],False,,0.0,0.0,94.0,94.0,94.0,1.0,,,,,,
,,,,,,,,,,,,,,,,,,,,,0.05,,,,,,,,,,Stimuli/psy_fixed_rotation_30_objects_occ0.7_0.9s/images/train/n04405907_9/n02818832_3/img_vray_004_b05_ccm_contemporary_bed_max2013_2002_gray.jpg,n04405907_9,n02818832_3,fixed,0.723922,n02933112_4,Stimuli/psy_flexible_rotation_30_objects_occ0.7_0.9s/images/train/n02818832_3/n02933112_4/img_b05_ccm_contemporary_bed_max2013_buffet_2001-3_gray.png,random,flexible,n04405907_9,n02828884_9,Stimuli/canonical view 2/img_n04405907_9_gray.jpg,Stimuli/canonical view 2/img_n02828884_9_gray.jpg,random,left,Experiments/experiment_28/380.jpg,Experiments/experiment_28/381.jpg,Experiments/experiment_28/382.jpg,Experiments/experiment_28/383.jpg,137,1,2023-05-26_10h08.47.417,Occlusion_Psychophysics,2022.1.4,Win32,60.11421701,,,left,"[""left""]",[0.4882999999522326],False,,0.0,0.0,95.0,95.0,95.0,1.0,,,,,,
,,,,,,,,,,,,,,,,,,,,,0.05,,,,,,,,,,Stimuli/psy_fixed_rotation_30_objects_occ0.7_0.9s/images/train/n04405907_9/n03928116_4/img_vray_004_dp_33_b_2013__vray_2001_gray.jpg,n04405907_9,n03928116_4,fixed,0.764842,n04379243_0,Stimuli/psy_fixed_rotation_30_objects_occ0.7_0.9s/images/train/n04405907_5/n04379243_0/img_samsung_40_uhd_smart_tv_2011_17th_c._monastery_dining_table_2010_2001-3_gray.png,random,fixed,n04405907_9,n03928116_4,Stimuli/canonical view 2/img_n04405907_9_gray.jpg,Stimuli/canonical view 2/img_n03928116_4_gray.jpg,foreground,right,Experiments/experiment_28/384.jpg,Experiments/experiment_28/385.jpg,Experiments/experiment_28/386.jpg,Experiments/experiment_28/387.jpg,137,1,2023-05-26_10h08.47.417,Occlusion_Psychophysics,2022.1.4,Win32,60.11421701,,,right,"[""right""]",[0.7175000000000864],False,,0.0,0.0,96.0,96.0,96.0,1.0,,,,,,
,,,,,,,,,,,,,,,,,,,,,0.05,,,,,,,,,,Stimuli/psy_fixed_rotation_30_objects_occ0.7_0.9s/images/train/n03928116_4/n03928116_10/img_dp_33_b_2013__vray_ydp_103_r_2012__vray_2005_gray.jpg,n03928116_4,n03928116_10,fixed,0.723333,n02818832_9,Stimuli/psy_fixed_rotation_30_objects_occ0.7_0.9s/images/train/n04379243_8/n02818832_9/img_glass_table_bed01_blue_2008-3_gray.png,random,fixed,n03928116_4,n03928116_10,Stimuli/canonical view 2/img_n03928116_4_gray.jpg,Stimuli/canonical view 2/img_n03928116_10_gray.jpg,foreground,left,Experiments/experiment_28/388.jpg,Experiments/experiment_28/389.jpg,Experiments/experiment_28/390.jpg,Experiments/experiment_28/391.jpg,137,1,2023-05-26_10h08.47.417,Occlusion_Psychophysics,2022.1.4,Win32,60.11421701,,,left,"[""right""]",[1.2952000000476573],False,,0.0,0.0,97.0,97.0,97.0,1.0,,,,,,
,,,,,,,,,,,,,,,,,,,,,0.025,,,,,,,,,,Stimuli/psy_flexible_rotation_30_objects_occ0.7_0.9s/images/train/n04256520_5/n04256520_9/img_meridiani_belmondo_bench_sofa_napoleon_iii_sofa_2009_gray.jpg,n04256520_5,n04256520_9,flexible,0.756218,n04256520_9,Stimuli/psy_flexible_rotation_30_objects_occ0.7_0.9s/images/train/n04256520_5/n04256520_9/img_meridiani_belmondo_bench_sofa_napoleon_iii_sofa_2009-3_gray.png,foreground,same as foreground,n04256520_5,n04256520_9,Stimuli/canonical view 2/img_n04256520_5_gray.jpg,Stimuli/canonical view 2/img_n04256520_9_gray.jpg,foreground,left,Experiments/experiment_28/392.jpg,Experiments/experiment_28/393.jpg,Experiments/experiment_28/394.jpg,Experiments/experiment_28/395.jpg,137,1,2023-05-26_10h08.47.417,Occlusion_Psychophysics,2022.1.4,Win32,60.11421701,,,left,"[""left""]",[0.9658999998569016],False,,0.0,0.0,98.0,98.0,98.0,1.0,,,,,,
,,,,,,,,,,,,,,,,,,,,,0.025,,,,,,,,,,Stimuli/psy_fixed_rotation_30_objects_occ0.7_0.9s/images/train/n04379243_-7/n04256520_4/img_quatre_dining_table_club_house_italia_nautilus_sofa_2014_gray.jpg,n04379243_-7,n04256520_4,fixed,0.703596,n04256520_4,Stimuli/psy_fixed_rotation_30_objects_occ0.7_0.9s/images/train/n04379243_-7/n04256520_4/img_quatre_dining_table_club_house_italia_nautilus_sofa_2014-3_gray.png,foreground,same as foreground,n04379243_-7,n04256520_4,Stimuli/canonical view 2/img_n04379243_-7_gray.jpg,Stimuli/canonical view 2/img_n04256520_4_gray.jpg,foreground,right,Experiments/experiment_28/396.jpg,Experiments/experiment_28/397.jpg,Experiments/experiment_28/398.jpg,Experiments/experiment_28/399.jpg,137,1,2023-05-26_10h08.47.417,Occlusion_Psychophysics,2022.1.4,Win32,60.11421701,,,right,"[""right""]",[0.6331000001430311],True,left,1.0,0.0,99.0,99.0,99.0,1.0,0.728,,,,,
,,,,,,,,,,,,,,,,,,,,,,,,,,,,,,,,,,,,,,,,,,,,,,,,,,137,1,2023-05-26_10h08.47.417,Occlusion_Psychophysics,2022.1.4,Win32,60.11421701,,,,,,,,,,,,,,,0.0,0.0,0.0,0.0,1.0
,,,,,,,,,,,,,,,,,,,,,0.025,,,,,,,,,,Stimuli/psy_fixed_rotation_30_objects_occ0.7_0.9s/images/train/n04256520_9/n02818832_3/img_napoleon_iii_sofa_b05_ccm_contemporary_bed_max2013_2012_gray.jpg,n04256520_9,n02818832_3,fixed,0.812779,n02818832_3,Stimuli/psy_fixed_rotation_30_objects_occ0.7_0.9s/images/train/n04256520_9/n02818832_3/img_napoleon_iii_sofa_b05_ccm_contemporary_bed_max2013_2012-3_gray.png,foreground,same as foreground,n04256520_9,n02818832_3,Stimuli/canonical view 2/img_n04256520_9_gray.jpg,Stimuli/canonical view 2/img_n02818832_3_gray.jpg,foreground,right,Experiments/experiment_28/400.jpg,Experiments/experiment_28/401.jpg,Experiments/experiment_28/402.jpg,Experiments/experiment_28/403.jpg,137,1,2023-05-26_10h08.47.417,Occlusion_Psychophysics,2022.1.4,Win32,60.11421701,,,left,"[""left""]",[0.9285999999045771],False,,0.0,0.0,0.0,0.0,0.0,1.0,,,,,,
,,,,,,,,,,,,,,,,,,,,,0.025,,,,,,,,,,Stimuli/psy_fixed_rotation_30_objects_occ0.7_0.9s/images/train/n02933112_-18/n02933112_4/img_cgaxis_models_48_26_vray_composite_buffet_2008_gray.jpg,n02933112_-18,n02933112_4,fixed,0.708375,n02933112_4,Stimuli/psy_fixed_rotation_30_objects_occ0.7_0.9s/images/train/n02933112_-18/n02933112_4/img_cgaxis_models_48_26_vray_composite_buffet_2008-3_gray.png,foreground,same as foreground,n02933112_-18,n02933112_4,Stimuli/canonical view 2/img_n02933112_-18_gray.jpg,Stimuli/canonical view 2/img_n02933112_4_gray.jpg,foreground,right,Experiments/experiment_28/404.jpg,Experiments/experiment_28/405.jpg,Experiments/experiment_28/406.jpg,Experiments/experiment_28/407.jpg,137,1,2023-05-26_10h08.47.417,Occlusion_Psychophysics,2022.1.4,Win32,60.11421701,,,left,"[""left""]",[0.8486000001430511],False,,0.0,0.0,1.0,1.0,1.0,1.0,,,,,,
,,,,,,,,,,,,,,,,,,,,,0.05,,,,,,,,,,Stimuli/psy_fixed_rotation_30_objects_occ0.7_0.9s/images/train/n02933112_-18/n04405907_9/img_cgaxis_models_48_26_vray_composite_vray_004_2015_gray.jpg,n02933112_-18,n04405907_9,fixed,0.753573,n04405907_9,Stimuli/psy_fixed_rotation_30_objects_occ0.7_0.9s/images/train/n02933112_-18/n04405907_9/img_cgaxis_models_48_26_vray_composite_vray_004_2015-3_gray.png,foreground,same as foreground,n02933112_-18,n04256520_5,Stimuli/canonical view 2/img_n02933112_-18_gray.jpg,Stimuli/canonical view 2/img_n04256520_5_gray.jpg,random,left,Experiments/experiment_28/408.jpg,Experiments/experiment_28/409.jpg,Experiments/experiment_28/410.jpg,Experiments/experiment_28/411.jpg,137,1,2023-05-26_10h08.47.417,Occlusion_Psychophysics,2022.1.4,Win32,60.11421701,,,right,"[""right""]",[1.0424000000954265],False,,0.0,0.0,2.0,2.0,2.0,1.0,,,,,,
,,,,,,,,,,,,,,,,,,,,,0.05,,,,,,,,,,Stimuli/psy_flexible_rotation_30_objects_occ0.7_0.9s/images/train/n04256520_9/n04379243_0/img_napoleon_iii_sofa_17th_c._monastery_dining_table_2010_2006_gray.jpg,n04256520_9,n04379243_0,flexible,0.710389,n03928116_10,Stimuli/psy_flexible_rotation_30_objects_occ0.7_0.9s/images/train/n04256520_4/n03928116_10/img_club_house_italia_nautilus_sofa_ydp_103_r_2012__vray_2006-3_gray.png,random,flexible,n04256520_9,n04405907_9,Stimuli/canonical view 2/img_n04256520_9_gray.jpg,Stimuli/canonical view 2/img_n04405907_9_gray.jpg,random,right,Experiments/experiment_28/412.jpg,Experiments/experiment_28/413.jpg,Experiments/experiment_28/414.jpg,Experiments/experiment_28/415.jpg,137,1,2023-05-26_10h08.47.417,Occlusion_Psychophysics,2022.1.4,Win32,60.11421701,,,right,"[""right""]",[0.6232999999522235],False,,0.0,0.0,3.0,3.0,3.0,1.0,,,,,,
