in_color,Instructions_key.keys,Instructions_key.rt,Tutorial_instruction_key.keys,Tutorial_instruction_key.rt,Tutorial_fixation_ley.keys,Tutorial_fixation_ley.rt,Tutorial_single_img_key.keys,Tutorial_single_img_key.rt,Tutorial_intra_trial_fixation_key.keys,Tutorial_intra_trial_fixation_key.rt,Tutorial_stimulus_key.keys,Tutorial_stimulus_key.rt,Tutorial_response_key.keys,Tutorial_response_key.rt,Tutorial_attention_check_key.keys,Tutorial_attention_check_key.rt,advance_or_repeat.keys,advance_or_repeat.rt,Practice_instructions_key.keys,Practice_instructions_key.rt,intra_trial_duration,Practice_key_response.keys,Practice_key_response.rt,Practice_react_key.keys,Practice_react_key.rt,Practice_loop.thisRepN,Practice_loop.thisTrialN,Practice_loop.thisN,Practice_loop.thisIndex,Practice_loop.ran,multi_object_filepath,background_id,foreground_id,multi_object_rotation,occlusion_level,single_object_id,single_object_filepath,single_is_foreground_or_random,single_object_rotation,background_choice_id,alt_choice_id,background_option_filepath,alternative_option_filepath,alternative_is_foreground_or_random,location_of_correct_answer,multi_object_exp_filename,single_object_exp_filename,background_option_exp_filename,alternative_option_exp_filename,participant,session,date,expName,psychopyVersion,OS,frameRate,Practice_end_key.keys,Practice_end_key.rt,correct_answer,Input_selection.keys,Input_selection.rt,Was_attention_check,Attention_check.keys,Attention_check.corr,Each_session_loop.thisRepN,Each_session_loop.thisTrialN,Each_session_loop.thisN,Each_session_loop.thisIndex,Each_session_loop.ran,Attention_check.rt,Num_sessions.thisRepN,Num_sessions.thisTrialN,Num_sessions.thisN,Num_sessions.thisIndex,Num_sessions.ran
False,right,26.593,right,3.543,right,3.694,right,4.115,right,2.119,right,10.707,right,8.604,right,7.29,a,5.597,a,4.237,0.025,left,1.511,r,5.613,0.0,0.0,0.0,0.0,1.0,Stimuli/psy_fixed_rotation_30_objects_occ0.7_0.9s/images/train/n02883344_15/n02883344_-1/img_microwave_box_woven_box_2003_gray.jpg,n02883344_15,n02883344_-1,fixed,0.72264,n02883344_-1,Stimuli/psy_fixed_rotation_30_objects_occ0.7_0.9s/images/train/n02883344_15/n02883344_-1/img_microwave_box_woven_box_2003-3_gray.png,foreground,same as foreground,n02883344_15,n02883344_-1,Stimuli/canonical view 2/img_n02883344_15_gray.jpg,Stimuli/canonical view 2/img_n02883344_-1_gray.jpg,foreground,left,Experiments/experiment_20/1000.jpg,Experiments/experiment_20/1001.jpg,Experiments/experiment_20/1002.jpg,Experiments/experiment_20/1003.jpg,167,1,2023-06-28_14h21.02.691,Occlusion_Psychophysics,2022.1.4,Linux x86_64,19.51600312,,,,,,,,,,,,,,,,,,,
,,,,,,,,,,,,,,,,,,,,,0.05,right,1.581,r,2.939,0.0,1.0,1.0,1.0,1.0,Stimuli/psy_fixed_rotation_30_objects_occ0.7_0.9s/images/train/n04256520_9/n04405907_8/img_napoleon_iii_sofa_stylized_tv_2006_gray.jpg,n04256520_9,n04405907_8,fixed,0.773384,n03928116_0,Stimuli/psy_flexible_rotation_30_objects_occ0.7_0.9s/images/train/n04070727_5/n03928116_0/img_b05_db_apps_tech_06_13_composite_b02_piano_2007-3_gray.png,random,flexible,n04256520_9,n04405907_8,Stimuli/canonical view 2/img_n04256520_9_gray.jpg,Stimuli/canonical view 2/img_n04405907_8_gray.jpg,foreground,left,Experiments/experiment_20/1004.jpg,Experiments/experiment_20/1005.jpg,Experiments/experiment_20/1006.jpg,Experiments/experiment_20/1007.jpg,167,1,2023-06-28_14h21.02.691,Occlusion_Psychophysics,2022.1.4,Linux x86_64,19.51600312,,,,,,,,,,,,,,,,,,,
,,,,,,,,,,,,,,,,,,,,,0.025,right,2.535,a,2.113,0.0,2.0,2.0,2.0,1.0,Stimuli/psy_fixed_rotation_30_objects_occ0.7_0.9s/images/train/n04379243_0/n03928116_4/img_17th_c._monastery_dining_table_2010_dp_33_b_2013__vray_2010_gray.jpg,n04379243_0,n03928116_4,fixed,0.724469,n03928116_10,Stimuli/psy_fixed_rotation_30_objects_occ0.7_0.9s/images/train/n02818832_9/n03928116_10/img_bed01_blue_ydp_103_r_2012__vray_2010-3_gray.png,random,fixed,n04379243_0,n02883344_15,Stimuli/canonical view 2/img_n04379243_0_gray.jpg,Stimuli/canonical view 2/img_n02883344_15_gray.jpg,random,left,Experiments/experiment_20/1008.jpg,Experiments/experiment_20/1009.jpg,Experiments/experiment_20/1010.jpg,Experiments/experiment_20/1011.jpg,167,1,2023-06-28_14h21.02.691,Occlusion_Psychophysics,2022.1.4,Linux x86_64,19.51600312,,,,,,,,,,,,,,,,,,,
,,,,,,,,,,,,,,,,,,,,,0.025,,,,,,,,,,Stimuli/psy_flexible_rotation_30_objects_occ0.7_0.9s/images/train/n04256520_4/n02828884_4/img_club_house_italia_nautilus_sofa_b05_c-5_classic_series_bench-2012_2015_gray.jpg,n04256520_4,n02828884_4,flexible,0.754986,n02933112_4,Stimuli/psy_fixed_rotation_30_objects_occ0.7_0.9s/images/train/n04405907_9/n02933112_4/img_vray_004_buffet_2009-3_gray.png,random,fixed,n04256520_4,n02828884_4,Stimuli/canonical view 2/img_n04256520_4_gray.jpg,Stimuli/canonical view 2/img_n02828884_4_gray.jpg,foreground,right,Experiments/experiment_20/0.jpg,Experiments/experiment_20/1.jpg,Experiments/experiment_20/2.jpg,Experiments/experiment_20/3.jpg,167,1,2023-06-28_14h21.02.691,Occlusion_Psychophysics,2022.1.4,Linux x86_64,19.51600312,right,1.816,left,"[""left""]",[1.5810000000000173],False,,0.0,0.0,0.0,0.0,0.0,1.0,,,,,,
,,,,,,,,,,,,,,,,,,,,,0.05,,,,,,,,,,Stimuli/psy_fixed_rotation_30_objects_occ0.7_0.9s/images/train/n04405907_9/n02883344_0/img_vray_004_b03_box_2006_gray.jpg,n04405907_9,n02883344_0,fixed,0.715865,n02883344_0,Stimuli/psy_fixed_rotation_30_objects_occ0.7_0.9s/images/train/n04405907_9/n02883344_0/img_vray_004_b03_box_2006-3_gray.png,foreground,same as foreground,n04405907_9,n03928116_10,Stimuli/canonical view 2/img_n04405907_9_gray.jpg,Stimuli/canonical view 2/img_n03928116_10_gray.jpg,random,left,Experiments/experiment_20/4.jpg,Experiments/experiment_20/5.jpg,Experiments/experiment_20/6.jpg,Experiments/experiment_20/7.jpg,167,1,2023-06-28_14h21.02.691,Occlusion_Psychophysics,2022.1.4,Linux x86_64,19.51600312,,,left,"[""right""]",[2.600999999999999],False,,0.0,0.0,1.0,1.0,1.0,1.0,,,,,,
,,,,,,,,,,,,,,,,,,,,,0.05,,,,,,,,,,Stimuli/psy_flexible_rotation_30_objects_occ0.7_0.9s/images/train/n04256520_5/n04379243_-7/img_meridiani_belmondo_bench_sofa_quatre_dining_table_2001_gray.jpg,n04256520_5,n04379243_-7,flexible,0.897146,n04256520_4,Stimuli/psy_fixed_rotation_30_objects_occ0.7_0.9s/images/train/n02883344_15/n04256520_4/img_microwave_box_club_house_italia_nautilus_sofa_2012-3_gray.png,random,fixed,n04256520_5,n02883344_15,Stimuli/canonical view 2/img_n04256520_5_gray.jpg,Stimuli/canonical view 2/img_n02883344_15_gray.jpg,random,right,Experiments/experiment_20/8.jpg,Experiments/experiment_20/9.jpg,Experiments/experiment_20/10.jpg,Experiments/experiment_20/11.jpg,167,1,2023-06-28_14h21.02.691,Occlusion_Psychophysics,2022.1.4,Linux x86_64,19.51600312,,,right,"[""left""]",[2.1359999999999673],True,right,1.0,0.0,2.0,2.0,2.0,1.0,1.073,,,,,
,,,,,,,,,,,,,,,,,,,,,0.025,,,,,,,,,,Stimuli/psy_fixed_rotation_30_objects_occ0.7_0.9s/images/train/n03001627_-2/n02933112_4/img_wood_chair_buffet_2002_gray.jpg,n03001627_-2,n02933112_4,fixed,0.712202,n02933112_4,Stimuli/psy_fixed_rotation_30_objects_occ0.7_0.9s/images/train/n03001627_-2/n02933112_4/img_wood_chair_buffet_2002-3_gray.png,foreground,same as foreground,n03001627_-2,n03001627_8,Stimuli/canonical view 2/img_n03001627_-2_gray.jpg,Stimuli/canonical view 2/img_n03001627_8_gray.jpg,random,right,Experiments/experiment_20/12.jpg,Experiments/experiment_20/13.jpg,Experiments/experiment_20/14.jpg,Experiments/experiment_20/15.jpg,167,1,2023-06-28_14h21.02.691,Occlusion_Psychophysics,2022.1.4,Linux x86_64,19.51600312,,,right,"[""right""]",[1.70799999999997],False,,0.0,0.0,3.0,3.0,3.0,1.0,,,,,,
,,,,,,,,,,,,,,,,,,,,,0.025,,,,,,,,,,Stimuli/psy_fixed_rotation_30_objects_occ0.7_0.9s/images/train/n02933112_-2/n04405907_9/img_sink_base_white_wood_vray_004_2005_gray.jpg,n02933112_-2,n04405907_9,fixed,0.804052,n02883344_15,Stimuli/psy_fixed_rotation_30_objects_occ0.7_0.9s/images/train/n04070727_5/n02883344_15/img_b05_db_apps_tech_06_13_composite_microwave_box_2013-3_gray.png,random,fixed,n02933112_-2,n04405907_9,Stimuli/canonical view 2/img_n02933112_-2_gray.jpg,Stimuli/canonical view 2/img_n04405907_9_gray.jpg,foreground,right,Experiments/experiment_20/16.jpg,Experiments/experiment_20/17.jpg,Experiments/experiment_20/18.jpg,Experiments/experiment_20/19.jpg,167,1,2023-06-28_14h21.02.691,Occlusion_Psychophysics,2022.1.4,Linux x86_64,19.51600312,,,right,"[""right""]",[2.4629999999999654],False,,0.0,0.0,4.0,4.0,4.0,1.0,,,,,,
,,,,,,,,,,,,,,,,,,,,,0.025,,,,,,,,,,Stimuli/psy_flexible_rotation_30_objects_occ0.7_0.9s/images/train/n02883344_-1/n04405907_5/img_woven_box_samsung_40_uhd_smart_tv_2011_2004_gray.jpg,n02883344_-1,n04405907_5,flexible,0.763932,n02828884_3,Stimuli/psy_fixed_rotation_30_objects_occ0.7_0.9s/images/train/n03928116_10/n02828884_3/img_ydp_103_r_2012__vray_b04_wood_metal_park_bench_2004-3_gray.png,random,fixed,n02883344_-1,n04405907_5,Stimuli/canonical view 2/img_n02883344_-1_gray.jpg,Stimuli/canonical view 2/img_n04405907_5_gray.jpg,foreground,left,Experiments/experiment_20/20.jpg,Experiments/experiment_20/21.jpg,Experiments/experiment_20/22.jpg,Experiments/experiment_20/23.jpg,167,1,2023-06-28_14h21.02.691,Occlusion_Psychophysics,2022.1.4,Linux x86_64,19.51600312,,,left,"[""left""]",[1.280999999999949],False,,0.0,0.0,5.0,5.0,5.0,1.0,,,,,,
,,,,,,,,,,,,,,,,,,,,,0.05,,,,,,,,,,Stimuli/psy_flexible_rotation_30_objects_occ0.7_0.9s/images/train/n02883344_0/n03928116_0/img_b03_box_b02_piano_2004_gray.jpg,n02883344_0,n03928116_0,flexible,0.849292,n02818832_3,Stimuli/psy_flexible_rotation_30_objects_occ0.7_0.9s/images/train/n04405907_8/n02818832_3/img_stylized_tv_b05_ccm_contemporary_bed_max2013_2006-3_gray.png,random,flexible,n02883344_0,n03928116_0,Stimuli/canonical view 2/img_n02883344_0_gray.jpg,Stimuli/canonical view 2/img_n03928116_0_gray.jpg,foreground,left,Experiments/experiment_20/24.jpg,Experiments/experiment_20/25.jpg,Experiments/experiment_20/26.jpg,Experiments/experiment_20/27.jpg,167,1,2023-06-28_14h21.02.691,Occlusion_Psychophysics,2022.1.4,Linux x86_64,19.51600312,,,left,,,False,,0.0,0.0,6.0,6.0,6.0,1.0,,,,,,
,,,,,,,,,,,,,,,,,,,,,0.05,,,,,,,,,,Stimuli/psy_fixed_rotation_30_objects_occ0.7_0.9s/images/train/n02883344_-1/n04379243_-7/img_woven_box_quatre_dining_table_2001_gray.jpg,n02883344_-1,n04379243_-7,fixed,0.792106,n04405907_8,Stimuli/psy_fixed_rotation_30_objects_occ0.7_0.9s/images/train/n04256520_4/n04405907_8/img_club_house_italia_nautilus_sofa_stylized_tv_2008-3_gray.png,random,fixed,n02883344_-1,n02828884_3,Stimuli/canonical view 2/img_n02883344_-1_gray.jpg,Stimuli/canonical view 2/img_n02828884_3_gray.jpg,random,left,Experiments/experiment_20/28.jpg,Experiments/experiment_20/29.jpg,Experiments/experiment_20/30.jpg,Experiments/experiment_20/31.jpg,167,1,2023-06-28_14h21.02.691,Occlusion_Psychophysics,2022.1.4,Linux x86_64,19.51600312,,,right,"[""right""]",[1.8960000000000719],False,,0.0,0.0,7.0,7.0,7.0,1.0,,,,,,
,,,,,,,,,,,,,,,,,,,,,0.05,,,,,,,,,,Stimuli/psy_flexible_rotation_30_objects_occ0.7_0.9s/images/train/n02828884_4/n02818832_3/img_b05_c-5_classic_series_bench-2012_b05_ccm_contemporary_bed_max2013_2015_gray.jpg,n02828884_4,n02818832_3,flexible,0.71024,n02883344_0,Stimuli/psy_fixed_rotation_30_objects_occ0.7_0.9s/images/train/n04256520_9/n02883344_0/img_napoleon_iii_sofa_b03_box_2001-3_gray.png,random,fixed,n02828884_4,n03001627_-2,Stimuli/canonical view 2/img_n02828884_4_gray.jpg,Stimuli/canonical view 2/img_n03001627_-2_gray.jpg,random,right,Experiments/experiment_20/32.jpg,Experiments/experiment_20/33.jpg,Experiments/experiment_20/34.jpg,Experiments/experiment_20/35.jpg,167,1,2023-06-28_14h21.02.691,Occlusion_Psychophysics,2022.1.4,Linux x86_64,19.51600312,,,left,"[""left""]",[1.9409999999999172],False,,0.0,0.0,8.0,8.0,8.0,1.0,,,,,,
,,,,,,,,,,,,,,,,,,,,,0.05,,,,,,,,,,Stimuli/psy_fixed_rotation_30_objects_occ0.7_0.9s/images/train/n02883344_15/n04379243_-7/img_microwave_box_quatre_dining_table_2003_gray.jpg,n02883344_15,n04379243_-7,fixed,0.712308,n04379243_8,Stimuli/psy_fixed_rotation_30_objects_occ0.7_0.9s/images/train/n02828884_4/n04379243_8/img_b05_c-5_classic_series_bench-2012_glass_table_2006-3_gray.png,random,fixed,n02883344_15,n02933112_4,Stimuli/canonical view 2/img_n02883344_15_gray.jpg,Stimuli/canonical view 2/img_n02933112_4_gray.jpg,random,right,Experiments/experiment_20/36.jpg,Experiments/experiment_20/37.jpg,Experiments/experiment_20/38.jpg,Experiments/experiment_20/39.jpg,167,1,2023-06-28_14h21.02.691,Occlusion_Psychophysics,2022.1.4,Linux x86_64,19.51600312,,,left,"[""right""]",[1.6680000000000064],False,,0.0,0.0,9.0,9.0,9.0,1.0,,,,,,
,,,,,,,,,,,,,,,,,,,,,0.05,,,,,,,,,,Stimuli/psy_flexible_rotation_30_objects_occ0.7_0.9s/images/train/n02828884_4/n04405907_8/img_b05_c-5_classic_series_bench-2012_stylized_tv_2010_gray.jpg,n02828884_4,n04405907_8,flexible,0.716842,n04379243_-7,Stimuli/psy_flexible_rotation_30_objects_occ0.7_0.9s/images/train/n02883344_-1/n04379243_-7/img_woven_box_quatre_dining_table_2008-3_gray.png,random,flexible,n02828884_4,n03001627_-2,Stimuli/canonical view 2/img_n02828884_4_gray.jpg,Stimuli/canonical view 2/img_n03001627_-2_gray.jpg,random,left,Experiments/experiment_20/40.jpg,Experiments/experiment_20/41.jpg,Experiments/experiment_20/42.jpg,Experiments/experiment_20/43.jpg,167,1,2023-06-28_14h21.02.691,Occlusion_Psychophysics,2022.1.4,Linux x86_64,19.51600312,,,right,"[""left""]",[1.2439999999999145],False,,0.0,0.0,10.0,10.0,10.0,1.0,,,,,,
,,,,,,,,,,,,,,,,,,,,,0.05,,,,,,,,,,Stimuli/psy_fixed_rotation_30_objects_occ0.7_0.9s/images/train/n02933112_-18/n04405907_8/img_cgaxis_models_48_26_vray_composite_stylized_tv_2013_gray.jpg,n02933112_-18,n04405907_8,fixed,0.717534,n02828884_3,Stimuli/psy_fixed_rotation_30_objects_occ0.7_0.9s/images/train/n02883344_-1/n02828884_3/img_woven_box_b04_wood_metal_park_bench_2006-3_gray.png,random,fixed,n02933112_-18,n04405907_8,Stimuli/canonical view 2/img_n02933112_-18_gray.jpg,Stimuli/canonical view 2/img_n04405907_8_gray.jpg,foreground,right,Experiments/experiment_20/44.jpg,Experiments/experiment_20/45.jpg,Experiments/experiment_20/46.jpg,Experiments/experiment_20/47.jpg,167,1,2023-06-28_14h21.02.691,Occlusion_Psychophysics,2022.1.4,Linux x86_64,19.51600312,,,left,"[""left""]",[1.7930000000000064],False,,0.0,0.0,11.0,11.0,11.0,1.0,,,,,,
,,,,,,,,,,,,,,,,,,,,,0.05,,,,,,,,,,Stimuli/psy_flexible_rotation_30_objects_occ0.7_0.9s/images/train/n02883344_0/n04256520_4/img_b03_box_club_house_italia_nautilus_sofa_2011_gray.jpg,n02883344_0,n04256520_4,flexible,0.802312,n04256520_4,Stimuli/psy_flexible_rotation_30_objects_occ0.7_0.9s/images/train/n02883344_0/n04256520_4/img_b03_box_club_house_italia_nautilus_sofa_2011-3_gray.png,foreground,same as foreground,n02883344_0,n02933112_4,Stimuli/canonical view 2/img_n02883344_0_gray.jpg,Stimuli/canonical view 2/img_n02933112_4_gray.jpg,random,right,Experiments/experiment_20/48.jpg,Experiments/experiment_20/49.jpg,Experiments/experiment_20/50.jpg,Experiments/experiment_20/51.jpg,167,1,2023-06-28_14h21.02.691,Occlusion_Psychophysics,2022.1.4,Linux x86_64,19.51600312,,,right,"[""right""]",[1.8410000000000082],True,right,1.0,0.0,12.0,12.0,12.0,1.0,1.164,,,,,
,,,,,,,,,,,,,,,,,,,,,0.05,,,,,,,,,,Stimuli/psy_fixed_rotation_30_objects_occ0.7_0.9s/images/train/n02818832_0/n02933112_-2/img_b03_the_sofa_and_chair_company_-_stanley_bed_2014_sink_base_white_wood_2015_gray.jpg,n02818832_0,n02933112_-2,fixed,0.882211,n02933112_-2,Stimuli/psy_fixed_rotation_30_objects_occ0.7_0.9s/images/train/n02818832_0/n02933112_-2/img_b03_the_sofa_and_chair_company_-_stanley_bed_2014_sink_base_white_wood_2015-3_gray.png,foreground,same as foreground,n02818832_0,n02933112_-2,Stimuli/canonical view 2/img_n02818832_0_gray.jpg,Stimuli/canonical view 2/img_n02933112_-2_gray.jpg,foreground,left,Experiments/experiment_20/52.jpg,Experiments/experiment_20/53.jpg,Experiments/experiment_20/54.jpg,Experiments/experiment_20/55.jpg,167,1,2023-06-28_14h21.02.691,Occlusion_Psychophysics,2022.1.4,Linux x86_64,19.51600312,,,left,"[""right""]",[2.899000000000001],False,,0.0,0.0,13.0,13.0,13.0,1.0,,,,,,
,,,,,,,,,,,,,,,,,,,,,0.025,,,,,,,,,,Stimuli/psy_fixed_rotation_30_objects_occ0.7_0.9s/images/train/n02883344_0/n02883344_15/img_b03_box_microwave_box_2010_gray.jpg,n02883344_0,n02883344_15,fixed,0.809079,n02883344_-1,Stimuli/psy_fixed_rotation_30_objects_occ0.7_0.9s/images/train/n04405907_9/n02883344_-1/img_vray_004_woven_box_2008-3_gray.png,random,fixed,n02883344_0,n02883344_15,Stimuli/canonical view 2/img_n02883344_0_gray.jpg,Stimuli/canonical view 2/img_n02883344_15_gray.jpg,foreground,right,Experiments/experiment_20/56.jpg,Experiments/experiment_20/57.jpg,Experiments/experiment_20/58.jpg,Experiments/experiment_20/59.jpg,167,1,2023-06-28_14h21.02.691,Occlusion_Psychophysics,2022.1.4,Linux x86_64,19.51600312,,,left,"[""right""]",[1.9519999999999982],False,,0.0,0.0,14.0,14.0,14.0,1.0,,,,,,
,,,,,,,,,,,,,,,,,,,,,0.05,,,,,,,,,,Stimuli/psy_flexible_rotation_30_objects_occ0.7_0.9s/images/train/n02828884_4/n04379243_8/img_b05_c-5_classic_series_bench-2012_glass_table_2012_gray.jpg,n02828884_4,n04379243_8,flexible,0.752904,n04379243_8,Stimuli/psy_flexible_rotation_30_objects_occ0.7_0.9s/images/train/n02828884_4/n04379243_8/img_b05_c-5_classic_series_bench-2012_glass_table_2012-3_gray.png,foreground,same as foreground,n02828884_4,n04405907_8,Stimuli/canonical view 2/img_n02828884_4_gray.jpg,Stimuli/canonical view 2/img_n04405907_8_gray.jpg,random,right,Experiments/experiment_20/60.jpg,Experiments/experiment_20/61.jpg,Experiments/experiment_20/62.jpg,Experiments/experiment_20/63.jpg,167,1,2023-06-28_14h21.02.691,Occlusion_Psychophysics,2022.1.4,Linux x86_64,19.51600312,,,right,"[""left""]",[1.1370000000000573],False,,0.0,0.0,15.0,15.0,15.0,1.0,,,,,,
,,,,,,,,,,,,,,,,,,,,,0.025,,,,,,,,,,Stimuli/psy_fixed_rotation_30_objects_occ0.7_0.9s/images/train/n03928116_4/n04379243_-7/img_dp_33_b_2013__vray_quatre_dining_table_2007_gray.jpg,n03928116_4,n04379243_-7,fixed,0.736107,n03928116_10,Stimuli/psy_flexible_rotation_30_objects_occ0.7_0.9s/images/train/n04379243_8/n03928116_10/img_glass_table_ydp_103_r_2012__vray_2000-3_gray.png,random,flexible,n03928116_4,n04379243_-7,Stimuli/canonical view 2/img_n03928116_4_gray.jpg,Stimuli/canonical view 2/img_n04379243_-7_gray.jpg,foreground,left,Experiments/experiment_20/64.jpg,Experiments/experiment_20/65.jpg,Experiments/experiment_20/66.jpg,Experiments/experiment_20/67.jpg,167,1,2023-06-28_14h21.02.691,Occlusion_Psychophysics,2022.1.4,Linux x86_64,19.51600312,,,right,"[""left""]",[1.3679999999999382],False,,0.0,0.0,16.0,16.0,16.0,1.0,,,,,,
,,,,,,,,,,,,,,,,,,,,,0.025,,,,,,,,,,Stimuli/psy_fixed_rotation_30_objects_occ0.7_0.9s/images/train/n02818832_9/n02818832_3/img_bed01_blue_b05_ccm_contemporary_bed_max2013_2011_gray.jpg,n02818832_9,n02818832_3,fixed,0.787143,n02883344_15,Stimuli/psy_flexible_rotation_30_objects_occ0.7_0.9s/images/train/n04379243_-7/n02883344_15/img_quatre_dining_table_microwave_box_2010-3_gray.png,random,flexible,n02818832_9,n04405907_5,Stimuli/canonical view 2/img_n02818832_9_gray.jpg,Stimuli/canonical view 2/img_n04405907_5_gray.jpg,random,right,Experiments/experiment_20/68.jpg,Experiments/experiment_20/69.jpg,Experiments/experiment_20/70.jpg,Experiments/experiment_20/71.jpg,167,1,2023-06-28_14h21.02.691,Occlusion_Psychophysics,2022.1.4,Linux x86_64,19.51600312,,,left,,,False,,0.0,0.0,17.0,17.0,17.0,1.0,,,,,,
,,,,,,,,,,,,,,,,,,,,,0.025,,,,,,,,,,Stimuli/psy_flexible_rotation_30_objects_occ0.7_0.9s/images/train/n04256520_9/n02818832_3/img_napoleon_iii_sofa_b05_ccm_contemporary_bed_max2013_2002_gray.jpg,n04256520_9,n02818832_3,flexible,0.708299,n02818832_9,Stimuli/psy_flexible_rotation_30_objects_occ0.7_0.9s/images/train/n02933112_-18/n02818832_9/img_cgaxis_models_48_26_vray_composite_bed01_blue_2005-3_gray.png,random,flexible,n04256520_9,n02818832_3,Stimuli/canonical view 2/img_n04256520_9_gray.jpg,Stimuli/canonical view 2/img_n02818832_3_gray.jpg,foreground,right,Experiments/experiment_20/72.jpg,Experiments/experiment_20/73.jpg,Experiments/experiment_20/74.jpg,Experiments/experiment_20/75.jpg,167,1,2023-06-28_14h21.02.691,Occlusion_Psychophysics,2022.1.4,Linux x86_64,19.51600312,,,right,"[""right""]",[1.29200000000003],False,,0.0,0.0,18.0,18.0,18.0,1.0,,,,,,
,,,,,,,,,,,,,,,,,,,,,0.05,,,,,,,,,,Stimuli/psy_flexible_rotation_30_objects_occ0.7_0.9s/images/train/n04256520_4/n02828884_4/img_club_house_italia_nautilus_sofa_b05_c-5_classic_series_bench-2012_2013_gray.jpg,n04256520_4,n02828884_4,flexible,0.725599,n02818832_0,Stimuli/psy_flexible_rotation_30_objects_occ0.7_0.9s/images/train/n04070727_5/n02818832_0/img_b05_db_apps_tech_06_13_composite_b03_the_sofa_and_chair_company_-_stanley_bed_2014_2004-3_gray.png,random,flexible,n04256520_4,n02828884_4,Stimuli/canonical view 2/img_n04256520_4_gray.jpg,Stimuli/canonical view 2/img_n02828884_4_gray.jpg,foreground,right,Experiments/experiment_20/76.jpg,Experiments/experiment_20/77.jpg,Experiments/experiment_20/78.jpg,Experiments/experiment_20/79.jpg,167,1,2023-06-28_14h21.02.691,Occlusion_Psychophysics,2022.1.4,Linux x86_64,19.51600312,,,left,"[""right""]",[1.5670000000000073],False,,0.0,0.0,19.0,19.0,19.0,1.0,,,,,,
,,,,,,,,,,,,,,,,,,,,,0.05,,,,,,,,,,Stimuli/psy_flexible_rotation_30_objects_occ0.7_0.9s/images/train/n02933112_4/n02828884_3/img_buffet_b04_wood_metal_park_bench_2005_gray.jpg,n02933112_4,n02828884_3,flexible,0.720611,n04405907_9,Stimuli/psy_flexible_rotation_30_objects_occ0.7_0.9s/images/train/n03928116_4/n04405907_9/img_dp_33_b_2013__vray_vray_004_2009-3_gray.png,random,flexible,n02933112_4,n02828884_3,Stimuli/canonical view 2/img_n02933112_4_gray.jpg,Stimuli/canonical view 2/img_n02828884_3_gray.jpg,foreground,left,Experiments/experiment_20/80.jpg,Experiments/experiment_20/81.jpg,Experiments/experiment_20/82.jpg,Experiments/experiment_20/83.jpg,167,1,2023-06-28_14h21.02.691,Occlusion_Psychophysics,2022.1.4,Linux x86_64,19.51600312,,,left,"[""right""]",[1.2560000000000855],False,,0.0,0.0,20.0,20.0,20.0,1.0,,,,,,
,,,,,,,,,,,,,,,,,,,,,0.05,,,,,,,,,,Stimuli/psy_fixed_rotation_30_objects_occ0.7_0.9s/images/train/n04379243_0/n02828884_3/img_17th_c._monastery_dining_table_2010_b04_wood_metal_park_bench_2006_gray.jpg,n04379243_0,n02828884_3,fixed,0.798063,n02828884_3,Stimuli/psy_fixed_rotation_30_objects_occ0.7_0.9s/images/train/n04379243_0/n02828884_3/img_17th_c._monastery_dining_table_2010_b04_wood_metal_park_bench_2006-3_gray.png,foreground,same as foreground,n04379243_0,n02828884_3,Stimuli/canonical view 2/img_n04379243_0_gray.jpg,Stimuli/canonical view 2/img_n02828884_3_gray.jpg,foreground,left,Experiments/experiment_20/84.jpg,Experiments/experiment_20/85.jpg,Experiments/experiment_20/86.jpg,Experiments/experiment_20/87.jpg,167,1,2023-06-28_14h21.02.691,Occlusion_Psychophysics,2022.1.4,Linux x86_64,19.51600312,,,right,"[""right""]",[1.7590000000000146],True,left,1.0,0.0,21.0,21.0,21.0,1.0,1.013,,,,,
,,,,,,,,,,,,,,,,,,,,,0.025,,,,,,,,,,Stimuli/psy_fixed_rotation_30_objects_occ0.7_0.9s/images/train/n02933112_-2/n02818832_0/img_sink_base_white_wood_b03_the_sofa_and_chair_company_-_stanley_bed_2014_2010_gray.jpg,n02933112_-2,n02818832_0,fixed,0.772423,n02933112_-18,Stimuli/psy_fixed_rotation_30_objects_occ0.7_0.9s/images/train/n04379243_0/n02933112_-18/img_17th_c._monastery_dining_table_2010_cgaxis_models_48_26_vray_composite_2014-3_gray.png,random,fixed,n02933112_-2,n02818832_0,Stimuli/canonical view 2/img_n02933112_-2_gray.jpg,Stimuli/canonical view 2/img_n02818832_0_gray.jpg,foreground,left,Experiments/experiment_20/88.jpg,Experiments/experiment_20/89.jpg,Experiments/experiment_20/90.jpg,Experiments/experiment_20/91.jpg,167,1,2023-06-28_14h21.02.691,Occlusion_Psychophysics,2022.1.4,Linux x86_64,19.51600312,,,right,"[""right""]",[1.44500000000005],False,,0.0,0.0,22.0,22.0,22.0,1.0,,,,,,
,,,,,,,,,,,,,,,,,,,,,0.025,,,,,,,,,,Stimuli/psy_fixed_rotation_30_objects_occ0.7_0.9s/images/train/n02933112_-2/n02818832_0/img_sink_base_white_wood_b03_the_sofa_and_chair_company_-_stanley_bed_2014_2014_gray.jpg,n02933112_-2,n02818832_0,fixed,0.798193,n03928116_0,Stimuli/psy_fixed_rotation_30_objects_occ0.7_0.9s/images/train/n02828884_4/n03928116_0/img_b05_c-5_classic_series_bench-2012_b02_piano_2005-3_gray.png,random,fixed,n02933112_-2,n02818832_0,Stimuli/canonical view 2/img_n02933112_-2_gray.jpg,Stimuli/canonical view 2/img_n02818832_0_gray.jpg,foreground,right,Experiments/experiment_20/92.jpg,Experiments/experiment_20/93.jpg,Experiments/experiment_20/94.jpg,Experiments/experiment_20/95.jpg,167,1,2023-06-28_14h21.02.691,Occlusion_Psychophysics,2022.1.4,Linux x86_64,19.51600312,,,right,"[""right""]",[1.024000000000001],False,,0.0,0.0,23.0,23.0,23.0,1.0,,,,,,
,,,,,,,,,,,,,,,,,,,,,0.05,,,,,,,,,,Stimuli/psy_fixed_rotation_30_objects_occ0.7_0.9s/images/train/n02933112_-2/n02883344_15/img_sink_base_white_wood_microwave_box_2010_gray.jpg,n02933112_-2,n02883344_15,fixed,0.768768,n02883344_15,Stimuli/psy_fixed_rotation_30_objects_occ0.7_0.9s/images/train/n02933112_-2/n02883344_15/img_sink_base_white_wood_microwave_box_2010-3_gray.png,foreground,same as foreground,n02933112_-2,n02883344_15,Stimuli/canonical view 2/img_n02933112_-2_gray.jpg,Stimuli/canonical view 2/img_n02883344_15_gray.jpg,foreground,right,Experiments/experiment_20/96.jpg,Experiments/experiment_20/97.jpg,Experiments/experiment_20/98.jpg,Experiments/experiment_20/99.jpg,167,1,2023-06-28_14h21.02.691,Occlusion_Psychophysics,2022.1.4,Linux x86_64,19.51600312,,,left,"[""left""]",[0.8589999999999236],False,,0.0,0.0,24.0,24.0,24.0,1.0,,,,,,
,,,,,,,,,,,,,,,,,,,,,0.025,,,,,,,,,,Stimuli/psy_fixed_rotation_30_objects_occ0.7_0.9s/images/train/n04405907_8/n03001627_9/img_stylized_tv_chair_eames_plastic_armchair_2011_gray.jpg,n04405907_8,n03001627_9,fixed,0.74789,n03001627_9,Stimuli/psy_fixed_rotation_30_objects_occ0.7_0.9s/images/train/n04405907_8/n03001627_9/img_stylized_tv_chair_eames_plastic_armchair_2011-3_gray.png,foreground,same as foreground,n04405907_8,n02828884_9,Stimuli/canonical view 2/img_n04405907_8_gray.jpg,Stimuli/canonical view 2/img_n02828884_9_gray.jpg,random,right,Experiments/experiment_20/100.jpg,Experiments/experiment_20/101.jpg,Experiments/experiment_20/102.jpg,Experiments/experiment_20/103.jpg,167,1,2023-06-28_14h21.02.691,Occlusion_Psychophysics,2022.1.4,Linux x86_64,19.51600312,,,left,"[""left""]",[1.6539999999999964],False,,0.0,0.0,25.0,25.0,25.0,1.0,,,,,,
,,,,,,,,,,,,,,,,,,,,,0.05,,,,,,,,,,Stimuli/psy_fixed_rotation_30_objects_occ0.7_0.9s/images/train/n03928116_0/n02933112_-2/img_b02_piano_sink_base_white_wood_2012_gray.jpg,n03928116_0,n02933112_-2,fixed,0.766484,n02933112_-2,Stimuli/psy_fixed_rotation_30_objects_occ0.7_0.9s/images/train/n03928116_0/n02933112_-2/img_b02_piano_sink_base_white_wood_2012-3_gray.png,foreground,same as foreground,n03928116_0,n02933112_-2,Stimuli/canonical view 2/img_n03928116_0_gray.jpg,Stimuli/canonical view 2/img_n02933112_-2_gray.jpg,foreground,right,Experiments/experiment_20/104.jpg,Experiments/experiment_20/105.jpg,Experiments/experiment_20/106.jpg,Experiments/experiment_20/107.jpg,167,1,2023-06-28_14h21.02.691,Occlusion_Psychophysics,2022.1.4,Linux x86_64,19.51600312,,,left,"[""left""]",[0.8730000000000473],False,,0.0,0.0,26.0,26.0,26.0,1.0,,,,,,
,,,,,,,,,,,,,,,,,,,,,0.025,,,,,,,,,,Stimuli/psy_flexible_rotation_30_objects_occ0.7_0.9s/images/train/n04405907_9/n03001627_8/img_vray_004_chair_billiani_doll_2005_gray.jpg,n04405907_9,n03001627_8,flexible,0.730601,n04379243_8,Stimuli/psy_flexible_rotation_30_objects_occ0.7_0.9s/images/train/n04379243_-7/n04379243_8/img_quatre_dining_table_glass_table_2009-3_gray.png,random,flexible,n04405907_9,n03001627_8,Stimuli/canonical view 2/img_n04405907_9_gray.jpg,Stimuli/canonical view 2/img_n03001627_8_gray.jpg,foreground,left,Experiments/experiment_20/108.jpg,Experiments/experiment_20/109.jpg,Experiments/experiment_20/110.jpg,Experiments/experiment_20/111.jpg,167,1,2023-06-28_14h21.02.691,Occlusion_Psychophysics,2022.1.4,Linux x86_64,19.51600312,,,right,"[""right""]",[1.0339999999999918],False,,0.0,0.0,27.0,27.0,27.0,1.0,,,,,,
,,,,,,,,,,,,,,,,,,,,,0.025,,,,,,,,,,Stimuli/psy_fixed_rotation_30_objects_occ0.7_0.9s/images/train/n02933112_4/n04256520_4/img_buffet_club_house_italia_nautilus_sofa_2004_gray.jpg,n02933112_4,n04256520_4,fixed,0.820434,n02883344_0,Stimuli/psy_fixed_rotation_30_objects_occ0.7_0.9s/images/train/n03928116_10/n02883344_0/img_ydp_103_r_2012__vray_b03_box_2009-3_gray.png,random,fixed,n02933112_4,n04379243_-7,Stimuli/canonical view 2/img_n02933112_4_gray.jpg,Stimuli/canonical view 2/img_n04379243_-7_gray.jpg,random,right,Experiments/experiment_20/112.jpg,Experiments/experiment_20/113.jpg,Experiments/experiment_20/114.jpg,Experiments/experiment_20/115.jpg,167,1,2023-06-28_14h21.02.691,Occlusion_Psychophysics,2022.1.4,Linux x86_64,19.51600312,,,right,"[""right""]",[1.4080000000000155],False,,0.0,0.0,28.0,28.0,28.0,1.0,,,,,,
,,,,,,,,,,,,,,,,,,,,,0.025,,,,,,,,,,Stimuli/psy_fixed_rotation_30_objects_occ0.7_0.9s/images/train/n03928116_0/n03001627_9/img_b02_piano_chair_eames_plastic_armchair_2000_gray.jpg,n03928116_0,n03001627_9,fixed,0.740414,n03928116_0,Stimuli/psy_fixed_rotation_30_objects_occ0.7_0.9s/images/train/n02883344_15/n03928116_0/img_microwave_box_b02_piano_2006-3_gray.png,random,fixed,n03928116_0,n02818832_0,Stimuli/canonical view 2/img_n03928116_0_gray.jpg,Stimuli/canonical view 2/img_n02818832_0_gray.jpg,random,right,Experiments/experiment_20/116.jpg,Experiments/experiment_20/117.jpg,Experiments/experiment_20/118.jpg,Experiments/experiment_20/119.jpg,167,1,2023-06-28_14h21.02.691,Occlusion_Psychophysics,2022.1.4,Linux x86_64,19.51600312,,,right,"[""right""]",[1.1920000000000073],False,,0.0,0.0,29.0,29.0,29.0,1.0,,,,,,
,,,,,,,,,,,,,,,,,,,,,0.05,,,,,,,,,,Stimuli/psy_flexible_rotation_30_objects_occ0.7_0.9s/images/train/n04256520_4/n04405907_9/img_club_house_italia_nautilus_sofa_vray_004_2004_gray.jpg,n04256520_4,n04405907_9,flexible,0.769981,n04405907_9,Stimuli/psy_flexible_rotation_30_objects_occ0.7_0.9s/images/train/n04256520_4/n04405907_9/img_club_house_italia_nautilus_sofa_vray_004_2004-3_gray.png,foreground,same as foreground,n04256520_4,n02828884_3,Stimuli/canonical view 2/img_n04256520_4_gray.jpg,Stimuli/canonical view 2/img_n02828884_3_gray.jpg,random,left,Experiments/experiment_20/120.jpg,Experiments/experiment_20/121.jpg,Experiments/experiment_20/122.jpg,Experiments/experiment_20/123.jpg,167,1,2023-06-28_14h21.02.691,Occlusion_Psychophysics,2022.1.4,Linux x86_64,19.51600312,,,left,"[""left""]",[1.705000000000041],True,right,1.0,0.0,30.0,30.0,30.0,1.0,0.893,,,,,
,,,,,,,,,,,,,,,,,,,,,0.025,,,,,,,,,,Stimuli/psy_fixed_rotation_30_objects_occ0.7_0.9s/images/train/n04405907_5/n04379243_0/img_samsung_40_uhd_smart_tv_2011_17th_c._monastery_dining_table_2010_2004_gray.jpg,n04405907_5,n04379243_0,fixed,0.714961,n04256520_5,Stimuli/psy_fixed_rotation_30_objects_occ0.7_0.9s/images/train/n02933112_4/n04256520_5/img_buffet_meridiani_belmondo_bench_sofa_2006-3_gray.png,random,fixed,n04405907_5,n02828884_9,Stimuli/canonical view 2/img_n04405907_5_gray.jpg,Stimuli/canonical view 2/img_n02828884_9_gray.jpg,random,left,Experiments/experiment_20/124.jpg,Experiments/experiment_20/125.jpg,Experiments/experiment_20/126.jpg,Experiments/experiment_20/127.jpg,167,1,2023-06-28_14h21.02.691,Occlusion_Psychophysics,2022.1.4,Linux x86_64,19.51600312,,,right,"[""right""]",[1.245999999999981],False,,0.0,0.0,31.0,31.0,31.0,1.0,,,,,,
,,,,,,,,,,,,,,,,,,,,,0.05,,,,,,,,,,Stimuli/psy_flexible_rotation_30_objects_occ0.7_0.9s/images/train/n04379243_0/n04405907_5/img_17th_c._monastery_dining_table_2010_samsung_40_uhd_smart_tv_2011_2002_gray.jpg,n04379243_0,n04405907_5,flexible,0.826678,n02883344_0,Stimuli/psy_flexible_rotation_30_objects_occ0.7_0.9s/images/train/n04256520_5/n02883344_0/img_meridiani_belmondo_bench_sofa_b03_box_2015-3_gray.png,random,flexible,n04379243_0,n03928116_0,Stimuli/canonical view 2/img_n04379243_0_gray.jpg,Stimuli/canonical view 2/img_n03928116_0_gray.jpg,random,right,Experiments/experiment_20/128.jpg,Experiments/experiment_20/129.jpg,Experiments/experiment_20/130.jpg,Experiments/experiment_20/131.jpg,167,1,2023-06-28_14h21.02.691,Occlusion_Psychophysics,2022.1.4,Linux x86_64,19.51600312,,,right,"[""right""]",[1.7559999999999718],False,,0.0,0.0,32.0,32.0,32.0,1.0,,,,,,
,,,,,,,,,,,,,,,,,,,,,0.025,,,,,,,,,,Stimuli/psy_fixed_rotation_30_objects_occ0.7_0.9s/images/train/n04405907_5/n03928116_4/img_samsung_40_uhd_smart_tv_2011_dp_33_b_2013__vray_2004_gray.jpg,n04405907_5,n03928116_4,fixed,0.744945,n04405907_5,Stimuli/psy_flexible_rotation_30_objects_occ0.7_0.9s/images/train/n02818832_9/n04405907_5/img_bed01_blue_samsung_40_uhd_smart_tv_2011_2005-3_gray.png,random,flexible,n04405907_5,n03928116_4,Stimuli/canonical view 2/img_n04405907_5_gray.jpg,Stimuli/canonical view 2/img_n03928116_4_gray.jpg,foreground,right,Experiments/experiment_20/132.jpg,Experiments/experiment_20/133.jpg,Experiments/experiment_20/134.jpg,Experiments/experiment_20/135.jpg,167,1,2023-06-28_14h21.02.691,Occlusion_Psychophysics,2022.1.4,Linux x86_64,19.51600312,,,left,"[""left""]",[1.717999999999961],False,,0.0,0.0,33.0,33.0,33.0,1.0,,,,,,
,,,,,,,,,,,,,,,,,,,,,0.025,,,,,,,,,,Stimuli/psy_fixed_rotation_30_objects_occ0.7_0.9s/images/train/n02933112_-2/n02883344_-1/img_sink_base_white_wood_woven_box_2001_gray.jpg,n02933112_-2,n02883344_-1,fixed,0.851413,n04405907_8,Stimuli/psy_fixed_rotation_30_objects_occ0.7_0.9s/images/train/n03001627_8/n04405907_8/img_chair_billiani_doll_stylized_tv_2012-3_gray.png,random,fixed,n02933112_-2,n04405907_9,Stimuli/canonical view 2/img_n02933112_-2_gray.jpg,Stimuli/canonical view 2/img_n04405907_9_gray.jpg,random,left,Experiments/experiment_20/136.jpg,Experiments/experiment_20/137.jpg,Experiments/experiment_20/138.jpg,Experiments/experiment_20/139.jpg,167,1,2023-06-28_14h21.02.691,Occlusion_Psychophysics,2022.1.4,Linux x86_64,19.51600312,,,right,"[""right""]",[0.9700000000000273],False,,0.0,0.0,34.0,34.0,34.0,1.0,,,,,,
,,,,,,,,,,,,,,,,,,,,,0.025,,,,,,,,,,Stimuli/psy_flexible_rotation_30_objects_occ0.7_0.9s/images/train/n03928116_4/n04256520_9/img_dp_33_b_2013__vray_napoleon_iii_sofa_2008_gray.jpg,n03928116_4,n04256520_9,flexible,0.716894,n02883344_-1,Stimuli/psy_flexible_rotation_30_objects_occ0.7_0.9s/images/train/n03001627_8/n02883344_-1/img_chair_billiani_doll_woven_box_2009-3_gray.png,random,flexible,n03928116_4,n03001627_-2,Stimuli/canonical view 2/img_n03928116_4_gray.jpg,Stimuli/canonical view 2/img_n03001627_-2_gray.jpg,random,right,Experiments/experiment_20/140.jpg,Experiments/experiment_20/141.jpg,Experiments/experiment_20/142.jpg,Experiments/experiment_20/143.jpg,167,1,2023-06-28_14h21.02.691,Occlusion_Psychophysics,2022.1.4,Linux x86_64,19.51600312,,,left,"[""left""]",[1.5769999999999982],False,,0.0,0.0,35.0,35.0,35.0,1.0,,,,,,
,,,,,,,,,,,,,,,,,,,,,0.05,,,,,,,,,,Stimuli/psy_fixed_rotation_30_objects_occ0.7_0.9s/images/train/n02828884_3/n04379243_8/img_b04_wood_metal_park_bench_glass_table_2013_gray.jpg,n02828884_3,n04379243_8,fixed,0.866397,n02818832_3,Stimuli/psy_fixed_rotation_30_objects_occ0.7_0.9s/images/train/n04379243_0/n02818832_3/img_17th_c._monastery_dining_table_2010_b05_ccm_contemporary_bed_max2013_2009-3_gray.png,random,fixed,n02828884_3,n04379243_8,Stimuli/canonical view 2/img_n02828884_3_gray.jpg,Stimuli/canonical view 2/img_n04379243_8_gray.jpg,foreground,left,Experiments/experiment_20/144.jpg,Experiments/experiment_20/145.jpg,Experiments/experiment_20/146.jpg,Experiments/experiment_20/147.jpg,167,1,2023-06-28_14h21.02.691,Occlusion_Psychophysics,2022.1.4,Linux x86_64,19.51600312,,,right,"[""left""]",[1.663000000000011],False,,0.0,0.0,36.0,36.0,36.0,1.0,,,,,,
,,,,,,,,,,,,,,,,,,,,,0.05,,,,,,,,,,Stimuli/psy_fixed_rotation_30_objects_occ0.7_0.9s/images/train/n02883344_0/n04405907_9/img_b03_box_vray_004_2004_gray.jpg,n02883344_0,n04405907_9,fixed,0.718096,n04405907_9,Stimuli/psy_fixed_rotation_30_objects_occ0.7_0.9s/images/train/n02883344_0/n04405907_9/img_b03_box_vray_004_2004-3_gray.png,foreground,same as foreground,n02883344_0,n03928116_0,Stimuli/canonical view 2/img_n02883344_0_gray.jpg,Stimuli/canonical view 2/img_n03928116_0_gray.jpg,random,right,Experiments/experiment_20/148.jpg,Experiments/experiment_20/149.jpg,Experiments/experiment_20/150.jpg,Experiments/experiment_20/151.jpg,167,1,2023-06-28_14h21.02.691,Occlusion_Psychophysics,2022.1.4,Linux x86_64,19.51600312,,,right,"[""left""]",[1.2450000000000045],False,,0.0,0.0,37.0,37.0,37.0,1.0,,,,,,
,,,,,,,,,,,,,,,,,,,,,0.05,,,,,,,,,,Stimuli/psy_fixed_rotation_30_objects_occ0.7_0.9s/images/train/n02828884_3/n04256520_4/img_b04_wood_metal_park_bench_club_house_italia_nautilus_sofa_2009_gray.jpg,n02828884_3,n04256520_4,fixed,0.718653,n04256520_4,Stimuli/psy_fixed_rotation_30_objects_occ0.7_0.9s/images/train/n02828884_3/n04256520_4/img_b04_wood_metal_park_bench_club_house_italia_nautilus_sofa_2009-3_gray.png,foreground,same as foreground,n02828884_3,n03001627_-2,Stimuli/canonical view 2/img_n02828884_3_gray.jpg,Stimuli/canonical view 2/img_n03001627_-2_gray.jpg,random,left,Experiments/experiment_20/152.jpg,Experiments/experiment_20/153.jpg,Experiments/experiment_20/154.jpg,Experiments/experiment_20/155.jpg,167,1,2023-06-28_14h21.02.691,Occlusion_Psychophysics,2022.1.4,Linux x86_64,19.51600312,,,left,"[""left""]",[1.427000000000021],False,,0.0,0.0,38.0,38.0,38.0,1.0,,,,,,
,,,,,,,,,,,,,,,,,,,,,0.05,,,,,,,,,,Stimuli/psy_flexible_rotation_30_objects_occ0.7_0.9s/images/train/n04405907_9/n02883344_15/img_vray_004_microwave_box_2011_gray.jpg,n04405907_9,n02883344_15,flexible,0.827793,n04379243_-7,Stimuli/psy_fixed_rotation_30_objects_occ0.7_0.9s/images/train/n03928116_0/n04379243_-7/img_b02_piano_quatre_dining_table_2012-3_gray.png,random,fixed,n04405907_9,n02883344_15,Stimuli/canonical view 2/img_n04405907_9_gray.jpg,Stimuli/canonical view 2/img_n02883344_15_gray.jpg,foreground,right,Experiments/experiment_20/156.jpg,Experiments/experiment_20/157.jpg,Experiments/experiment_20/158.jpg,Experiments/experiment_20/159.jpg,167,1,2023-06-28_14h21.02.691,Occlusion_Psychophysics,2022.1.4,Linux x86_64,19.51600312,,,left,"[""left""]",[1.127999999999929],True,right,1.0,0.0,39.0,39.0,39.0,1.0,1.029,,,,,
,,,,,,,,,,,,,,,,,,,,,0.05,,,,,,,,,,Stimuli/psy_fixed_rotation_30_objects_occ0.7_0.9s/images/train/n03928116_4/n02933112_-2/img_dp_33_b_2013__vray_sink_base_white_wood_2007_gray.jpg,n03928116_4,n02933112_-2,fixed,0.800335,n02933112_-2,Stimuli/psy_fixed_rotation_30_objects_occ0.7_0.9s/images/train/n03928116_4/n02933112_-2/img_dp_33_b_2013__vray_sink_base_white_wood_2007-3_gray.png,foreground,same as foreground,n03928116_4,n02933112_-2,Stimuli/canonical view 2/img_n03928116_4_gray.jpg,Stimuli/canonical view 2/img_n02933112_-2_gray.jpg,foreground,left,Experiments/experiment_20/160.jpg,Experiments/experiment_20/161.jpg,Experiments/experiment_20/162.jpg,Experiments/experiment_20/163.jpg,167,1,2023-06-28_14h21.02.691,Occlusion_Psychophysics,2022.1.4,Linux x86_64,19.51600312,,,right,"[""right""]",[1.759999999999991],False,,0.0,0.0,40.0,40.0,40.0,1.0,,,,,,
,,,,,,,,,,,,,,,,,,,,,0.025,,,,,,,,,,Stimuli/psy_flexible_rotation_30_objects_occ0.7_0.9s/images/train/n02818832_3/n04379243_-7/img_b05_ccm_contemporary_bed_max2013_quatre_dining_table_2012_gray.jpg,n02818832_3,n04379243_-7,flexible,0.739651,n02883344_15,Stimuli/psy_flexible_rotation_30_objects_occ0.7_0.9s/images/train/n02883344_15/n02883344_15/img_microwave_box_microwave_box_2014-3_gray.png,random,flexible,n02818832_3,n02933112_-2,Stimuli/canonical view 2/img_n02818832_3_gray.jpg,Stimuli/canonical view 2/img_n02933112_-2_gray.jpg,random,right,Experiments/experiment_20/164.jpg,Experiments/experiment_20/165.jpg,Experiments/experiment_20/166.jpg,Experiments/experiment_20/167.jpg,167,1,2023-06-28_14h21.02.691,Occlusion_Psychophysics,2022.1.4,Linux x86_64,19.51600312,,,left,"[""left""]",[1.6340000000000146],False,,0.0,0.0,41.0,41.0,41.0,1.0,,,,,,
,,,,,,,,,,,,,,,,,,,,,0.05,,,,,,,,,,Stimuli/psy_fixed_rotation_30_objects_occ0.7_0.9s/images/train/n04405907_9/n03928116_4/img_vray_004_dp_33_b_2013__vray_2000_gray.jpg,n04405907_9,n03928116_4,fixed,0.701733,n04379243_8,Stimuli/psy_flexible_rotation_30_objects_occ0.7_0.9s/images/train/n04256520_5/n04379243_8/img_meridiani_belmondo_bench_sofa_glass_table_2011-3_gray.png,random,flexible,n04405907_9,n03928116_4,Stimuli/canonical view 2/img_n04405907_9_gray.jpg,Stimuli/canonical view 2/img_n03928116_4_gray.jpg,foreground,right,Experiments/experiment_20/168.jpg,Experiments/experiment_20/169.jpg,Experiments/experiment_20/170.jpg,Experiments/experiment_20/171.jpg,167,1,2023-06-28_14h21.02.691,Occlusion_Psychophysics,2022.1.4,Linux x86_64,19.51600312,,,right,"[""left""]",[1.9349999999999454],False,,0.0,0.0,42.0,42.0,42.0,1.0,,,,,,
,,,,,,,,,,,,,,,,,,,,,0.025,,,,,,,,,,Stimuli/psy_flexible_rotation_30_objects_occ0.7_0.9s/images/train/n02883344_0/n03928116_0/img_b03_box_b02_piano_2013_gray.jpg,n02883344_0,n03928116_0,flexible,0.763708,n04256520_4,Stimuli/psy_flexible_rotation_30_objects_occ0.7_0.9s/images/train/n02883344_0/n04256520_4/img_b03_box_club_house_italia_nautilus_sofa_2007-3_gray.png,random,flexible,n02883344_0,n02818832_9,Stimuli/canonical view 2/img_n02883344_0_gray.jpg,Stimuli/canonical view 2/img_n02818832_9_gray.jpg,random,right,Experiments/experiment_20/172.jpg,Experiments/experiment_20/173.jpg,Experiments/experiment_20/174.jpg,Experiments/experiment_20/175.jpg,167,1,2023-06-28_14h21.02.691,Occlusion_Psychophysics,2022.1.4,Linux x86_64,19.51600312,,,right,"[""right""]",[1.1649999999999636],False,,0.0,0.0,43.0,43.0,43.0,1.0,,,,,,
,,,,,,,,,,,,,,,,,,,,,0.025,,,,,,,,,,Stimuli/psy_fixed_rotation_30_objects_occ0.7_0.9s/images/train/n04379243_0/n04379243_8/img_17th_c._monastery_dining_table_2010_glass_table_2001_gray.jpg,n04379243_0,n04379243_8,fixed,0.723718,n02933112_-2,Stimuli/psy_fixed_rotation_30_objects_occ0.7_0.9s/images/train/n04379243_-7/n02933112_-2/img_quatre_dining_table_sink_base_white_wood_2002-3_gray.png,random,fixed,n04379243_0,n02818832_0,Stimuli/canonical view 2/img_n04379243_0_gray.jpg,Stimuli/canonical view 2/img_n02818832_0_gray.jpg,random,right,Experiments/experiment_20/176.jpg,Experiments/experiment_20/177.jpg,Experiments/experiment_20/178.jpg,Experiments/experiment_20/179.jpg,167,1,2023-06-28_14h21.02.691,Occlusion_Psychophysics,2022.1.4,Linux x86_64,19.51600312,,,left,"[""left""]",[0.9370000000000118],False,,0.0,0.0,44.0,44.0,44.0,1.0,,,,,,
,,,,,,,,,,,,,,,,,,,,,0.025,,,,,,,,,,Stimuli/psy_flexible_rotation_30_objects_occ0.7_0.9s/images/train/n04379243_8/n03928116_4/img_glass_table_dp_33_b_2013__vray_2007_gray.jpg,n04379243_8,n03928116_4,flexible,0.733067,n02818832_3,Stimuli/psy_flexible_rotation_30_objects_occ0.7_0.9s/images/train/n02883344_0/n02818832_3/img_b03_box_b05_ccm_contemporary_bed_max2013_2007-3_gray.png,random,flexible,n04379243_8,n04379243_0,Stimuli/canonical view 2/img_n04379243_8_gray.jpg,Stimuli/canonical view 2/img_n04379243_0_gray.jpg,random,left,Experiments/experiment_20/180.jpg,Experiments/experiment_20/181.jpg,Experiments/experiment_20/182.jpg,Experiments/experiment_20/183.jpg,167,1,2023-06-28_14h21.02.691,Occlusion_Psychophysics,2022.1.4,Linux x86_64,19.51600312,,,right,"[""right""]",[1.33299999999997],False,,0.0,0.0,45.0,45.0,45.0,1.0,,,,,,
,,,,,,,,,,,,,,,,,,,,,0.025,,,,,,,,,,Stimuli/psy_flexible_rotation_30_objects_occ0.7_0.9s/images/train/n03928116_10/n02933112_4/img_ydp_103_r_2012__vray_buffet_2008_gray.jpg,n03928116_10,n02933112_4,flexible,0.747192,n02933112_4,Stimuli/psy_flexible_rotation_30_objects_occ0.7_0.9s/images/train/n03928116_10/n02933112_4/img_ydp_103_r_2012__vray_buffet_2008-3_gray.png,foreground,same as foreground,n03928116_10,n04256520_9,Stimuli/canonical view 2/img_n03928116_10_gray.jpg,Stimuli/canonical view 2/img_n04256520_9_gray.jpg,random,left,Experiments/experiment_20/184.jpg,Experiments/experiment_20/185.jpg,Experiments/experiment_20/186.jpg,Experiments/experiment_20/187.jpg,167,1,2023-06-28_14h21.02.691,Occlusion_Psychophysics,2022.1.4,Linux x86_64,19.51600312,,,right,"[""right""]",[1.2959999999999354],False,,0.0,0.0,46.0,46.0,46.0,1.0,,,,,,
,,,,,,,,,,,,,,,,,,,,,0.05,,,,,,,,,,Stimuli/psy_flexible_rotation_30_objects_occ0.7_0.9s/images/train/n04256520_9/n04379243_0/img_napoleon_iii_sofa_17th_c._monastery_dining_table_2010_2005_gray.jpg,n04256520_9,n04379243_0,flexible,0.714003,n04379243_0,Stimuli/psy_flexible_rotation_30_objects_occ0.7_0.9s/images/train/n04256520_9/n04379243_0/img_napoleon_iii_sofa_17th_c._monastery_dining_table_2010_2005-3_gray.png,foreground,same as foreground,n04256520_9,n04379243_0,Stimuli/canonical view 2/img_n04256520_9_gray.jpg,Stimuli/canonical view 2/img_n04379243_0_gray.jpg,foreground,right,Experiments/experiment_20/188.jpg,Experiments/experiment_20/189.jpg,Experiments/experiment_20/190.jpg,Experiments/experiment_20/191.jpg,167,1,2023-06-28_14h21.02.691,Occlusion_Psychophysics,2022.1.4,Linux x86_64,19.51600312,,,left,"[""right""]",[1.49899999999991],False,,0.0,0.0,47.0,47.0,47.0,1.0,,,,,,
,,,,,,,,,,,,,,,,,,,,,0.05,,,,,,,,,,Stimuli/psy_fixed_rotation_30_objects_occ0.7_0.9s/images/train/n04256520_4/n04379243_0/img_club_house_italia_nautilus_sofa_17th_c._monastery_dining_table_2010_2007_gray.jpg,n04256520_4,n04379243_0,fixed,0.733181,n04379243_0,Stimuli/psy_fixed_rotation_30_objects_occ0.7_0.9s/images/train/n04256520_4/n04379243_0/img_club_house_italia_nautilus_sofa_17th_c._monastery_dining_table_2010_2007-3_gray.png,foreground,same as foreground,n04256520_4,n03001627_-2,Stimuli/canonical view 2/img_n04256520_4_gray.jpg,Stimuli/canonical view 2/img_n03001627_-2_gray.jpg,random,left,Experiments/experiment_20/192.jpg,Experiments/experiment_20/193.jpg,Experiments/experiment_20/194.jpg,Experiments/experiment_20/195.jpg,167,1,2023-06-28_14h21.02.691,Occlusion_Psychophysics,2022.1.4,Linux x86_64,19.51600312,,,left,"[""left""]",[1.2110000000000127],False,,0.0,0.0,48.0,48.0,48.0,1.0,,,,,,
,,,,,,,,,,,,,,,,,,,,,0.025,,,,,,,,,,Stimuli/psy_fixed_rotation_30_objects_occ0.7_0.9s/images/train/n04379243_8/n02818832_9/img_glass_table_bed01_blue_2008_gray.jpg,n04379243_8,n02818832_9,fixed,0.771088,n04379243_0,Stimuli/psy_fixed_rotation_30_objects_occ0.7_0.9s/images/train/n04256520_4/n04379243_0/img_club_house_italia_nautilus_sofa_17th_c._monastery_dining_table_2010_2001-3_gray.png,random,fixed,n04379243_8,n02818832_9,Stimuli/canonical view 2/img_n04379243_8_gray.jpg,Stimuli/canonical view 2/img_n02818832_9_gray.jpg,foreground,left,Experiments/experiment_20/196.jpg,Experiments/experiment_20/197.jpg,Experiments/experiment_20/198.jpg,Experiments/experiment_20/199.jpg,167,1,2023-06-28_14h21.02.691,Occlusion_Psychophysics,2022.1.4,Linux x86_64,19.51600312,,,right,"[""right""]",[0.7880000000000109],False,,0.0,0.0,49.0,49.0,49.0,1.0,,,,,,
,,,,,,,,,,,,,,,,,,,,,0.05,,,,,,,,,,Stimuli/psy_fixed_rotation_30_objects_occ0.7_0.9s/images/train/n04379243_8/n02883344_-1/img_glass_table_woven_box_2013_gray.jpg,n04379243_8,n02883344_-1,fixed,0.73144,n02883344_-1,Stimuli/psy_fixed_rotation_30_objects_occ0.7_0.9s/images/train/n04379243_8/n02883344_-1/img_glass_table_woven_box_2013-3_gray.png,foreground,same as foreground,n04379243_8,n02883344_-1,Stimuli/canonical view 2/img_n04379243_8_gray.jpg,Stimuli/canonical view 2/img_n02883344_-1_gray.jpg,foreground,left,Experiments/experiment_20/200.jpg,Experiments/experiment_20/201.jpg,Experiments/experiment_20/202.jpg,Experiments/experiment_20/203.jpg,167,1,2023-06-28_14h21.02.691,Occlusion_Psychophysics,2022.1.4,Linux x86_64,19.51600312,,,left,"[""left""]",[0.8229999999999791],False,,0.0,0.0,50.0,50.0,50.0,1.0,,,,,,
,,,,,,,,,,,,,,,,,,,,,0.025,,,,,,,,,,Stimuli/psy_flexible_rotation_30_objects_occ0.7_0.9s/images/train/n02818832_9/n04256520_9/img_bed01_blue_napoleon_iii_sofa_2005_gray.jpg,n02818832_9,n04256520_9,flexible,0.779922,n04256520_9,Stimuli/psy_flexible_rotation_30_objects_occ0.7_0.9s/images/train/n02818832_9/n04256520_9/img_bed01_blue_napoleon_iii_sofa_2005-3_gray.png,foreground,same as foreground,n02818832_9,n04256520_9,Stimuli/canonical view 2/img_n02818832_9_gray.jpg,Stimuli/canonical view 2/img_n04256520_9_gray.jpg,foreground,right,Experiments/experiment_20/204.jpg,Experiments/experiment_20/205.jpg,Experiments/experiment_20/206.jpg,Experiments/experiment_20/207.jpg,167,1,2023-06-28_14h21.02.691,Occlusion_Psychophysics,2022.1.4,Linux x86_64,19.51600312,,,right,"[""left""]",[1.009999999999991],True,left,1.0,0.0,51.0,51.0,51.0,1.0,1.114,,,,,
,,,,,,,,,,,,,,,,,,,,,0.05,,,,,,,,,,Stimuli/psy_fixed_rotation_30_objects_occ0.7_0.9s/images/train/n04405907_8/n03001627_9/img_stylized_tv_chair_eames_plastic_armchair_2000_gray.jpg,n04405907_8,n03001627_9,fixed,0.724579,n02933112_-18,Stimuli/psy_fixed_rotation_30_objects_occ0.7_0.9s/images/train/n02883344_0/n02933112_-18/img_b03_box_cgaxis_models_48_26_vray_composite_2008-3_gray.png,random,fixed,n04405907_8,n02818832_0,Stimuli/canonical view 2/img_n04405907_8_gray.jpg,Stimuli/canonical view 2/img_n02818832_0_gray.jpg,random,left,Experiments/experiment_20/208.jpg,Experiments/experiment_20/209.jpg,Experiments/experiment_20/210.jpg,Experiments/experiment_20/211.jpg,167,1,2023-06-28_14h21.02.691,Occlusion_Psychophysics,2022.1.4,Linux x86_64,19.51600312,,,right,"[""right""]",[1.3400000000000318],False,,0.0,0.0,52.0,52.0,52.0,1.0,,,,,,
,,,,,,,,,,,,,,,,,,,,,0.025,,,,,,,,,,Stimuli/psy_fixed_rotation_30_objects_occ0.7_0.9s/images/train/n02883344_0/n02883344_15/img_b03_box_microwave_box_2000_gray.jpg,n02883344_0,n02883344_15,fixed,0.879458,n04405907_9,Stimuli/psy_fixed_rotation_30_objects_occ0.7_0.9s/images/train/n02818832_3/n04405907_9/img_b05_ccm_contemporary_bed_max2013_vray_004_2012-3_gray.png,random,fixed,n02883344_0,n02883344_15,Stimuli/canonical view 2/img_n02883344_0_gray.jpg,Stimuli/canonical view 2/img_n02883344_15_gray.jpg,foreground,left,Experiments/experiment_20/212.jpg,Experiments/experiment_20/213.jpg,Experiments/experiment_20/214.jpg,Experiments/experiment_20/215.jpg,167,1,2023-06-28_14h21.02.691,Occlusion_Psychophysics,2022.1.4,Linux x86_64,19.51600312,,,left,"[""left""]",[1.04200000000003],False,,0.0,0.0,53.0,53.0,53.0,1.0,,,,,,
,,,,,,,,,,,,,,,,,,,,,0.05,,,,,,,,,,Stimuli/psy_flexible_rotation_30_objects_occ0.7_0.9s/images/train/n04256520_4/n04405907_5/img_club_house_italia_nautilus_sofa_samsung_40_uhd_smart_tv_2011_2011_gray.jpg,n04256520_4,n04405907_5,flexible,0.80565,n04256520_5,Stimuli/psy_fixed_rotation_30_objects_occ0.7_0.9s/images/train/n04256520_4/n04256520_5/img_club_house_italia_nautilus_sofa_meridiani_belmondo_bench_sofa_2010-3_gray.png,random,fixed,n04256520_4,n04405907_5,Stimuli/canonical view 2/img_n04256520_4_gray.jpg,Stimuli/canonical view 2/img_n04405907_5_gray.jpg,foreground,left,Experiments/experiment_20/216.jpg,Experiments/experiment_20/217.jpg,Experiments/experiment_20/218.jpg,Experiments/experiment_20/219.jpg,167,1,2023-06-28_14h21.02.691,Occlusion_Psychophysics,2022.1.4,Linux x86_64,19.51600312,,,right,"[""left""]",[1.1769999999999072],False,,0.0,0.0,54.0,54.0,54.0,1.0,,,,,,
,,,,,,,,,,,,,,,,,,,,,0.05,,,,,,,,,,Stimuli/psy_fixed_rotation_30_objects_occ0.7_0.9s/images/train/n02818832_3/n03928116_4/img_b05_ccm_contemporary_bed_max2013_dp_33_b_2013__vray_2003_gray.jpg,n02818832_3,n03928116_4,fixed,0.741256,n03928116_4,Stimuli/psy_fixed_rotation_30_objects_occ0.7_0.9s/images/train/n02818832_3/n03928116_4/img_b05_ccm_contemporary_bed_max2013_dp_33_b_2013__vray_2003-3_gray.png,foreground,same as foreground,n02818832_3,n02883344_0,Stimuli/canonical view 2/img_n02818832_3_gray.jpg,Stimuli/canonical view 2/img_n02883344_0_gray.jpg,random,right,Experiments/experiment_20/220.jpg,Experiments/experiment_20/221.jpg,Experiments/experiment_20/222.jpg,Experiments/experiment_20/223.jpg,167,1,2023-06-28_14h21.02.691,Occlusion_Psychophysics,2022.1.4,Linux x86_64,19.51600312,,,left,"[""right""]",[0.98599999999999],False,,0.0,0.0,55.0,55.0,55.0,1.0,,,,,,
,,,,,,,,,,,,,,,,,,,,,0.025,,,,,,,,,,Stimuli/psy_flexible_rotation_30_objects_occ0.7_0.9s/images/train/n03928116_10/n03928116_4/img_ydp_103_r_2012__vray_dp_33_b_2013__vray_2006_gray.jpg,n03928116_10,n03928116_4,flexible,0.738315,n02933112_4,Stimuli/psy_flexible_rotation_30_objects_occ0.7_0.9s/images/train/n02818832_0/n02933112_4/img_b03_the_sofa_and_chair_company_-_stanley_bed_2014_buffet_2006-3_gray.png,random,flexible,n03928116_10,n03928116_4,Stimuli/canonical view 2/img_n03928116_10_gray.jpg,Stimuli/canonical view 2/img_n03928116_4_gray.jpg,foreground,right,Experiments/experiment_20/224.jpg,Experiments/experiment_20/225.jpg,Experiments/experiment_20/226.jpg,Experiments/experiment_20/227.jpg,167,1,2023-06-28_14h21.02.691,Occlusion_Psychophysics,2022.1.4,Linux x86_64,19.51600312,,,right,"[""right""]",[1.3959999999999582],False,,0.0,0.0,56.0,56.0,56.0,1.0,,,,,,
,,,,,,,,,,,,,,,,,,,,,0.025,,,,,,,,,,Stimuli/psy_fixed_rotation_30_objects_occ0.7_0.9s/images/train/n04379243_0/n02883344_-1/img_17th_c._monastery_dining_table_2010_woven_box_2000_gray.jpg,n04379243_0,n02883344_-1,fixed,0.718351,n02883344_-1,Stimuli/psy_fixed_rotation_30_objects_occ0.7_0.9s/images/train/n04379243_0/n02883344_-1/img_17th_c._monastery_dining_table_2010_woven_box_2000-3_gray.png,foreground,same as foreground,n04379243_0,n02818832_3,Stimuli/canonical view 2/img_n04379243_0_gray.jpg,Stimuli/canonical view 2/img_n02818832_3_gray.jpg,random,right,Experiments/experiment_20/228.jpg,Experiments/experiment_20/229.jpg,Experiments/experiment_20/230.jpg,Experiments/experiment_20/231.jpg,167,1,2023-06-28_14h21.02.691,Occlusion_Psychophysics,2022.1.4,Linux x86_64,19.51600312,,,left,"[""left""]",[0.9210000000000491],False,,0.0,0.0,57.0,57.0,57.0,1.0,,,,,,
,,,,,,,,,,,,,,,,,,,,,0.05,,,,,,,,,,Stimuli/psy_flexible_rotation_30_objects_occ0.7_0.9s/images/train/n04379243_-7/n03928116_4/img_quatre_dining_table_dp_33_b_2013__vray_2008_gray.jpg,n04379243_-7,n03928116_4,flexible,0.784471,n02933112_-2,Stimuli/psy_flexible_rotation_30_objects_occ0.7_0.9s/images/train/n02933112_-18/n02933112_-2/img_cgaxis_models_48_26_vray_composite_sink_base_white_wood_2006-3_gray.png,random,flexible,n04379243_-7,n03001627_8,Stimuli/canonical view 2/img_n04379243_-7_gray.jpg,Stimuli/canonical view 2/img_n03001627_8_gray.jpg,random,left,Experiments/experiment_20/232.jpg,Experiments/experiment_20/233.jpg,Experiments/experiment_20/234.jpg,Experiments/experiment_20/235.jpg,167,1,2023-06-28_14h21.02.691,Occlusion_Psychophysics,2022.1.4,Linux x86_64,19.51600312,,,right,"[""right""]",[1.2450000000000045],False,,0.0,0.0,58.0,58.0,58.0,1.0,,,,,,
,,,,,,,,,,,,,,,,,,,,,0.025,,,,,,,,,,Stimuli/psy_flexible_rotation_30_objects_occ0.7_0.9s/images/train/n04379243_-7/n04405907_5/img_quatre_dining_table_samsung_40_uhd_smart_tv_2011_2006_gray.jpg,n04379243_-7,n04405907_5,flexible,0.724433,n04405907_5,Stimuli/psy_flexible_rotation_30_objects_occ0.7_0.9s/images/train/n04379243_-7/n04405907_5/img_quatre_dining_table_samsung_40_uhd_smart_tv_2011_2006-3_gray.png,foreground,same as foreground,n04379243_-7,n04405907_5,Stimuli/canonical view 2/img_n04379243_-7_gray.jpg,Stimuli/canonical view 2/img_n04405907_5_gray.jpg,foreground,right,Experiments/experiment_20/236.jpg,Experiments/experiment_20/237.jpg,Experiments/experiment_20/238.jpg,Experiments/experiment_20/239.jpg,167,1,2023-06-28_14h21.02.691,Occlusion_Psychophysics,2022.1.4,Linux x86_64,19.51600312,,,right,"[""left""]",[1.5319999999999254],False,,0.0,0.0,59.0,59.0,59.0,1.0,,,,,,
,,,,,,,,,,,,,,,,,,,,,0.025,,,,,,,,,,Stimuli/psy_fixed_rotation_30_objects_occ0.7_0.9s/images/train/n04405907_9/n03928116_4/img_vray_004_dp_33_b_2013__vray_2012_gray.jpg,n04405907_9,n03928116_4,fixed,0.763241,n03928116_4,Stimuli/psy_fixed_rotation_30_objects_occ0.7_0.9s/images/train/n04405907_9/n03928116_4/img_vray_004_dp_33_b_2013__vray_2012-3_gray.png,foreground,same as foreground,n04405907_9,n03928116_4,Stimuli/canonical view 2/img_n04405907_9_gray.jpg,Stimuli/canonical view 2/img_n03928116_4_gray.jpg,foreground,left,Experiments/experiment_20/240.jpg,Experiments/experiment_20/241.jpg,Experiments/experiment_20/242.jpg,Experiments/experiment_20/243.jpg,167,1,2023-06-28_14h21.02.691,Occlusion_Psychophysics,2022.1.4,Linux x86_64,19.51600312,,,left,"[""right""]",[1.509999999999991],False,,0.0,0.0,60.0,60.0,60.0,1.0,,,,,,
,,,,,,,,,,,,,,,,,,,,,0.025,,,,,,,,,,Stimuli/psy_flexible_rotation_30_objects_occ0.7_0.9s/images/train/n04256520_9/n02883344_0/img_napoleon_iii_sofa_b03_box_2015_gray.jpg,n04256520_9,n02883344_0,flexible,0.700333,n02883344_0,Stimuli/psy_flexible_rotation_30_objects_occ0.7_0.9s/images/train/n04256520_9/n02883344_0/img_napoleon_iii_sofa_b03_box_2015-3_gray.png,foreground,same as foreground,n04256520_9,n04256520_5,Stimuli/canonical view 2/img_n04256520_9_gray.jpg,Stimuli/canonical view 2/img_n04256520_5_gray.jpg,random,right,Experiments/experiment_20/244.jpg,Experiments/experiment_20/245.jpg,Experiments/experiment_20/246.jpg,Experiments/experiment_20/247.jpg,167,1,2023-06-28_14h21.02.691,Occlusion_Psychophysics,2022.1.4,Linux x86_64,19.51600312,,,left,"[""right""]",[1.6240000000000236],False,,0.0,0.0,61.0,61.0,61.0,1.0,,,,,,
,,,,,,,,,,,,,,,,,,,,,0.025,,,,,,,,,,Stimuli/psy_fixed_rotation_30_objects_occ0.7_0.9s/images/train/n02883344_-1/n04256520_4/img_woven_box_club_house_italia_nautilus_sofa_2011_gray.jpg,n02883344_-1,n04256520_4,fixed,0.705333,n04256520_4,Stimuli/psy_fixed_rotation_30_objects_occ0.7_0.9s/images/train/n02883344_-1/n04256520_4/img_woven_box_club_house_italia_nautilus_sofa_2011-3_gray.png,foreground,same as foreground,n02883344_-1,n02828884_4,Stimuli/canonical view 2/img_n02883344_-1_gray.jpg,Stimuli/canonical view 2/img_n02828884_4_gray.jpg,random,left,Experiments/experiment_20/248.jpg,Experiments/experiment_20/249.jpg,Experiments/experiment_20/250.jpg,Experiments/experiment_20/251.jpg,167,1,2023-06-28_14h21.02.691,Occlusion_Psychophysics,2022.1.4,Linux x86_64,19.51600312,,,left,"[""left""]",[1.6079999999999472],False,,0.0,0.0,62.0,62.0,62.0,1.0,,,,,,
,,,,,,,,,,,,,,,,,,,,,0.05,,,,,,,,,,Stimuli/psy_flexible_rotation_30_objects_occ0.7_0.9s/images/train/n02933112_-18/n02933112_4/img_cgaxis_models_48_26_vray_composite_buffet_2004_gray.jpg,n02933112_-18,n02933112_4,flexible,0.703565,n02933112_4,Stimuli/psy_flexible_rotation_30_objects_occ0.7_0.9s/images/train/n02933112_-18/n02933112_4/img_cgaxis_models_48_26_vray_composite_buffet_2004-3_gray.png,foreground,same as foreground,n02933112_-18,n03001627_8,Stimuli/canonical view 2/img_n02933112_-18_gray.jpg,Stimuli/canonical view 2/img_n03001627_8_gray.jpg,random,right,Experiments/experiment_20/252.jpg,Experiments/experiment_20/253.jpg,Experiments/experiment_20/254.jpg,Experiments/experiment_20/255.jpg,167,1,2023-06-28_14h21.02.691,Occlusion_Psychophysics,2022.1.4,Linux x86_64,19.51600312,,,right,"[""right""]",[1.2509999999999764],False,,0.0,0.0,63.0,63.0,63.0,1.0,,,,,,
,,,,,,,,,,,,,,,,,,,,,0.025,,,,,,,,,,Stimuli/psy_flexible_rotation_30_objects_occ0.7_0.9s/images/train/n03928116_0/n02828884_3/img_b02_piano_b04_wood_metal_park_bench_2010_gray.jpg,n03928116_0,n02828884_3,flexible,0.720819,n02818832_3,Stimuli/psy_flexible_rotation_30_objects_occ0.7_0.9s/images/train/n04379243_0/n02818832_3/img_17th_c._monastery_dining_table_2010_b05_ccm_contemporary_bed_max2013_2008-3_gray.png,random,flexible,n03928116_0,n04379243_-7,Stimuli/canonical view 2/img_n03928116_0_gray.jpg,Stimuli/canonical view 2/img_n04379243_-7_gray.jpg,random,right,Experiments/experiment_20/256.jpg,Experiments/experiment_20/257.jpg,Experiments/experiment_20/258.jpg,Experiments/experiment_20/259.jpg,167,1,2023-06-28_14h21.02.691,Occlusion_Psychophysics,2022.1.4,Linux x86_64,19.51600312,,,left,"[""left""]",[0.8769999999999527],False,,0.0,0.0,64.0,64.0,64.0,1.0,,,,,,
,,,,,,,,,,,,,,,,,,,,,0.05,,,,,,,,,,Stimuli/psy_fixed_rotation_30_objects_occ0.7_0.9s/images/train/n02883344_15/n02818832_9/img_microwave_box_bed01_blue_2015_gray.jpg,n02883344_15,n02818832_9,fixed,0.817045,n02818832_9,Stimuli/psy_fixed_rotation_30_objects_occ0.7_0.9s/images/train/n02883344_15/n02818832_9/img_microwave_box_bed01_blue_2015-3_gray.png,foreground,same as foreground,n02883344_15,n02818832_9,Stimuli/canonical view 2/img_n02883344_15_gray.jpg,Stimuli/canonical view 2/img_n02818832_9_gray.jpg,foreground,left,Experiments/experiment_20/260.jpg,Experiments/experiment_20/261.jpg,Experiments/experiment_20/262.jpg,Experiments/experiment_20/263.jpg,167,1,2023-06-28_14h21.02.691,Occlusion_Psychophysics,2022.1.4,Linux x86_64,19.51600312,,,left,"[""right""]",[1.0049999999999955],False,,0.0,0.0,65.0,65.0,65.0,1.0,,,,,,
,,,,,,,,,,,,,,,,,,,,,0.025,,,,,,,,,,Stimuli/psy_fixed_rotation_30_objects_occ0.7_0.9s/images/train/n03928116_0/n04256520_5/img_b02_piano_meridiani_belmondo_bench_sofa_2003_gray.jpg,n03928116_0,n04256520_5,fixed,0.734605,n04256520_5,Stimuli/psy_fixed_rotation_30_objects_occ0.7_0.9s/images/train/n03928116_0/n04256520_5/img_b02_piano_meridiani_belmondo_bench_sofa_2003-3_gray.png,foreground,same as foreground,n03928116_0,n04256520_5,Stimuli/canonical view 2/img_n03928116_0_gray.jpg,Stimuli/canonical view 2/img_n04256520_5_gray.jpg,foreground,left,Experiments/experiment_20/264.jpg,Experiments/experiment_20/265.jpg,Experiments/experiment_20/266.jpg,Experiments/experiment_20/267.jpg,167,1,2023-06-28_14h21.02.691,Occlusion_Psychophysics,2022.1.4,Linux x86_64,19.51600312,,,right,"[""right""]",[0.8700000000000045],False,,0.0,0.0,66.0,66.0,66.0,1.0,,,,,,
,,,,,,,,,,,,,,,,,,,,,0.05,,,,,,,,,,Stimuli/psy_flexible_rotation_30_objects_occ0.7_0.9s/images/train/n04379243_0/n02883344_15/img_17th_c._monastery_dining_table_2010_microwave_box_2015_gray.jpg,n04379243_0,n02883344_15,flexible,0.761075,n02828884_3,Stimuli/psy_fixed_rotation_30_objects_occ0.7_0.9s/images/train/n02818832_0/n02828884_3/img_b03_the_sofa_and_chair_company_-_stanley_bed_2014_b04_wood_metal_park_bench_2015-3_gray.png,random,fixed,n04379243_0,n02883344_15,Stimuli/canonical view 2/img_n04379243_0_gray.jpg,Stimuli/canonical view 2/img_n02883344_15_gray.jpg,foreground,left,Experiments/experiment_20/268.jpg,Experiments/experiment_20/269.jpg,Experiments/experiment_20/270.jpg,Experiments/experiment_20/271.jpg,167,1,2023-06-28_14h21.02.691,Occlusion_Psychophysics,2022.1.4,Linux x86_64,19.51600312,,,left,"[""right""]",[1.4779999999999518],False,,0.0,0.0,67.0,67.0,67.0,1.0,,,,,,
,,,,,,,,,,,,,,,,,,,,,0.025,,,,,,,,,,Stimuli/psy_fixed_rotation_30_objects_occ0.7_0.9s/images/train/n02883344_15/n03928116_0/img_microwave_box_b02_piano_2014_gray.jpg,n02883344_15,n03928116_0,fixed,0.858341,n03928116_0,Stimuli/psy_fixed_rotation_30_objects_occ0.7_0.9s/images/train/n02883344_15/n03928116_0/img_microwave_box_b02_piano_2014-3_gray.png,foreground,same as foreground,n02883344_15,n03928116_0,Stimuli/canonical view 2/img_n02883344_15_gray.jpg,Stimuli/canonical view 2/img_n03928116_0_gray.jpg,foreground,right,Experiments/experiment_20/272.jpg,Experiments/experiment_20/273.jpg,Experiments/experiment_20/274.jpg,Experiments/experiment_20/275.jpg,167,1,2023-06-28_14h21.02.691,Occlusion_Psychophysics,2022.1.4,Linux x86_64,19.51600312,,,right,"[""left""]",[0.7680000000000291],True,right,1.0,0.0,68.0,68.0,68.0,1.0,1.388,,,,,
,,,,,,,,,,,,,,,,,,,,,0.05,,,,,,,,,,Stimuli/psy_flexible_rotation_30_objects_occ0.7_0.9s/images/train/n02828884_3/n04405907_9/img_b04_wood_metal_park_bench_vray_004_2012_gray.jpg,n02828884_3,n04405907_9,flexible,0.840022,n02818832_9,Stimuli/psy_flexible_rotation_30_objects_occ0.7_0.9s/images/train/n04256520_5/n02818832_9/img_meridiani_belmondo_bench_sofa_bed01_blue_2007-3_gray.png,random,flexible,n02828884_3,n03928116_10,Stimuli/canonical view 2/img_n02828884_3_gray.jpg,Stimuli/canonical view 2/img_n03928116_10_gray.jpg,random,left,Experiments/experiment_20/276.jpg,Experiments/experiment_20/277.jpg,Experiments/experiment_20/278.jpg,Experiments/experiment_20/279.jpg,167,1,2023-06-28_14h21.02.691,Occlusion_Psychophysics,2022.1.4,Linux x86_64,19.51600312,,,right,"[""right""]",[1.6870000000000118],True,left,1.0,0.0,69.0,69.0,69.0,1.0,1.02,,,,,
,,,,,,,,,,,,,,,,,,,,,0.05,,,,,,,,,,Stimuli/psy_flexible_rotation_30_objects_occ0.7_0.9s/images/train/n04379243_-7/n04256520_9/img_quatre_dining_table_napoleon_iii_sofa_2007_gray.jpg,n04379243_-7,n04256520_9,flexible,0.752458,n04379243_0,Stimuli/psy_flexible_rotation_30_objects_occ0.7_0.9s/images/train/n02883344_0/n04379243_0/img_b03_box_17th_c._monastery_dining_table_2010_2011-3_gray.png,random,flexible,n04379243_-7,n04256520_9,Stimuli/canonical view 2/img_n04379243_-7_gray.jpg,Stimuli/canonical view 2/img_n04256520_9_gray.jpg,foreground,left,Experiments/experiment_20/280.jpg,Experiments/experiment_20/281.jpg,Experiments/experiment_20/282.jpg,Experiments/experiment_20/283.jpg,167,1,2023-06-28_14h21.02.691,Occlusion_Psychophysics,2022.1.4,Linux x86_64,19.51600312,,,left,"[""right""]",[1.1820000000000164],False,,0.0,0.0,70.0,70.0,70.0,1.0,,,,,,
,,,,,,,,,,,,,,,,,,,,,0.025,,,,,,,,,,Stimuli/psy_fixed_rotation_30_objects_occ0.7_0.9s/images/train/n02818832_0/n02933112_-18/img_b03_the_sofa_and_chair_company_-_stanley_bed_2014_cgaxis_models_48_26_vray_composite_2015_gray.jpg,n02818832_0,n02933112_-18,fixed,0.831988,n04379243_8,Stimuli/psy_flexible_rotation_30_objects_occ0.7_0.9s/images/train/n02828884_3/n04379243_8/img_b04_wood_metal_park_bench_glass_table_2006-3_gray.png,random,flexible,n02818832_0,n03001627_9,Stimuli/canonical view 2/img_n02818832_0_gray.jpg,Stimuli/canonical view 2/img_n03001627_9_gray.jpg,random,right,Experiments/experiment_20/284.jpg,Experiments/experiment_20/285.jpg,Experiments/experiment_20/286.jpg,Experiments/experiment_20/287.jpg,167,1,2023-06-28_14h21.02.691,Occlusion_Psychophysics,2022.1.4,Linux x86_64,19.51600312,,,right,"[""right""]",[1.018000000000029],False,,0.0,0.0,71.0,71.0,71.0,1.0,,,,,,
,,,,,,,,,,,,,,,,,,,,,0.05,,,,,,,,,,Stimuli/psy_fixed_rotation_30_objects_occ0.7_0.9s/images/train/n02818832_3/n04405907_8/img_b05_ccm_contemporary_bed_max2013_stylized_tv_2002_gray.jpg,n02818832_3,n04405907_8,fixed,0.803937,n04405907_8,Stimuli/psy_fixed_rotation_30_objects_occ0.7_0.9s/images/train/n02818832_3/n04405907_8/img_b05_ccm_contemporary_bed_max2013_stylized_tv_2002-3_gray.png,foreground,same as foreground,n02818832_3,n04379243_0,Stimuli/canonical view 2/img_n02818832_3_gray.jpg,Stimuli/canonical view 2/img_n04379243_0_gray.jpg,random,left,Experiments/experiment_20/288.jpg,Experiments/experiment_20/289.jpg,Experiments/experiment_20/290.jpg,Experiments/experiment_20/291.jpg,167,1,2023-06-28_14h21.02.691,Occlusion_Psychophysics,2022.1.4,Linux x86_64,19.51600312,,,left,"[""right""]",[1.3379999999999654],False,,0.0,0.0,72.0,72.0,72.0,1.0,,,,,,
,,,,,,,,,,,,,,,,,,,,,0.025,,,,,,,,,,Stimuli/psy_fixed_rotation_30_objects_occ0.7_0.9s/images/train/n04405907_9/n02818832_3/img_vray_004_b05_ccm_contemporary_bed_max2013_2014_gray.jpg,n04405907_9,n02818832_3,fixed,0.728462,n02818832_3,Stimuli/psy_fixed_rotation_30_objects_occ0.7_0.9s/images/train/n04405907_9/n02818832_3/img_vray_004_b05_ccm_contemporary_bed_max2013_2014-3_gray.png,foreground,same as foreground,n04405907_9,n02818832_3,Stimuli/canonical view 2/img_n04405907_9_gray.jpg,Stimuli/canonical view 2/img_n02818832_3_gray.jpg,foreground,right,Experiments/experiment_20/292.jpg,Experiments/experiment_20/293.jpg,Experiments/experiment_20/294.jpg,Experiments/experiment_20/295.jpg,167,1,2023-06-28_14h21.02.691,Occlusion_Psychophysics,2022.1.4,Linux x86_64,19.51600312,,,right,"[""right""]",[1.4149999999999636],False,,0.0,0.0,73.0,73.0,73.0,1.0,,,,,,
,,,,,,,,,,,,,,,,,,,,,0.05,,,,,,,,,,Stimuli/psy_fixed_rotation_30_objects_occ0.7_0.9s/images/train/n03001627_8/n02883344_-1/img_chair_billiani_doll_woven_box_2014_gray.jpg,n03001627_8,n02883344_-1,fixed,0.778019,n02883344_-1,Stimuli/psy_fixed_rotation_30_objects_occ0.7_0.9s/images/train/n03001627_8/n02883344_-1/img_chair_billiani_doll_woven_box_2014-3_gray.png,foreground,same as foreground,n03001627_8,n02883344_-1,Stimuli/canonical view 2/img_n03001627_8_gray.jpg,Stimuli/canonical view 2/img_n02883344_-1_gray.jpg,foreground,right,Experiments/experiment_20/296.jpg,Experiments/experiment_20/297.jpg,Experiments/experiment_20/298.jpg,Experiments/experiment_20/299.jpg,167,1,2023-06-28_14h21.02.691,Occlusion_Psychophysics,2022.1.4,Linux x86_64,19.51600312,,,right,"[""right""]",[2.3740000000000236],False,,0.0,0.0,74.0,74.0,74.0,1.0,,,,,,
,,,,,,,,,,,,,,,,,,,,,0.025,,,,,,,,,,Stimuli/psy_fixed_rotation_30_objects_occ0.7_0.9s/images/train/n02933112_-18/n02883344_15/img_cgaxis_models_48_26_vray_composite_microwave_box_2003_gray.jpg,n02933112_-18,n02883344_15,fixed,0.764964,n02883344_15,Stimuli/psy_fixed_rotation_30_objects_occ0.7_0.9s/images/train/n02933112_-18/n02883344_15/img_cgaxis_models_48_26_vray_composite_microwave_box_2003-3_gray.png,foreground,same as foreground,n02933112_-18,n04256520_4,Stimuli/canonical view 2/img_n02933112_-18_gray.jpg,Stimuli/canonical view 2/img_n04256520_4_gray.jpg,random,right,Experiments/experiment_20/300.jpg,Experiments/experiment_20/301.jpg,Experiments/experiment_20/302.jpg,Experiments/experiment_20/303.jpg,167,1,2023-06-28_14h21.02.691,Occlusion_Psychophysics,2022.1.4,Linux x86_64,19.51600312,,,left,"[""left""]",[1.2720000000000482],False,,0.0,0.0,75.0,75.0,75.0,1.0,,,,,,
,,,,,,,,,,,,,,,,,,,,,0.025,,,,,,,,,,Stimuli/psy_flexible_rotation_30_objects_occ0.7_0.9s/images/train/n02818832_9/n02828884_4/img_bed01_blue_b05_c-5_classic_series_bench-2012_2004_gray.jpg,n02818832_9,n02828884_4,flexible,0.700553,n02818832_3,Stimuli/psy_fixed_rotation_30_objects_occ0.7_0.9s/images/train/n02933112_-2/n02818832_3/img_sink_base_white_wood_b05_ccm_contemporary_bed_max2013_2010-3_gray.png,random,fixed,n02818832_9,n02828884_4,Stimuli/canonical view 2/img_n02818832_9_gray.jpg,Stimuli/canonical view 2/img_n02828884_4_gray.jpg,foreground,right,Experiments/experiment_20/304.jpg,Experiments/experiment_20/305.jpg,Experiments/experiment_20/306.jpg,Experiments/experiment_20/307.jpg,167,1,2023-06-28_14h21.02.691,Occlusion_Psychophysics,2022.1.4,Linux x86_64,19.51600312,,,right,"[""left""]",[1.9049999999999727],False,,0.0,0.0,76.0,76.0,76.0,1.0,,,,,,
,,,,,,,,,,,,,,,,,,,,,0.05,,,,,,,,,,Stimuli/psy_fixed_rotation_30_objects_occ0.7_0.9s/images/train/n02933112_-18/n04379243_-7/img_cgaxis_models_48_26_vray_composite_quatre_dining_table_2015_gray.jpg,n02933112_-18,n04379243_-7,fixed,0.771738,n04379243_-7,Stimuli/psy_fixed_rotation_30_objects_occ0.7_0.9s/images/train/n02933112_-18/n04379243_-7/img_cgaxis_models_48_26_vray_composite_quatre_dining_table_2015-3_gray.png,foreground,same as foreground,n02933112_-18,n02828884_4,Stimuli/canonical view 2/img_n02933112_-18_gray.jpg,Stimuli/canonical view 2/img_n02828884_4_gray.jpg,random,left,Experiments/experiment_20/308.jpg,Experiments/experiment_20/309.jpg,Experiments/experiment_20/310.jpg,Experiments/experiment_20/311.jpg,167,1,2023-06-28_14h21.02.691,Occlusion_Psychophysics,2022.1.4,Linux x86_64,19.51600312,,,left,"[""right""]",[1.120999999999981],False,,0.0,0.0,77.0,77.0,77.0,1.0,,,,,,
,,,,,,,,,,,,,,,,,,,,,0.05,,,,,,,,,,Stimuli/psy_flexible_rotation_30_objects_occ0.7_0.9s/images/train/n02818832_9/n02883344_15/img_bed01_blue_microwave_box_2008_gray.jpg,n02818832_9,n02883344_15,flexible,0.738691,n03928116_4,Stimuli/psy_flexible_rotation_30_objects_occ0.7_0.9s/images/train/n04256520_9/n03928116_4/img_napoleon_iii_sofa_dp_33_b_2013__vray_2005-3_gray.png,random,flexible,n02818832_9,n02883344_15,Stimuli/canonical view 2/img_n02818832_9_gray.jpg,Stimuli/canonical view 2/img_n02883344_15_gray.jpg,foreground,left,Experiments/experiment_20/312.jpg,Experiments/experiment_20/313.jpg,Experiments/experiment_20/314.jpg,Experiments/experiment_20/315.jpg,167,1,2023-06-28_14h21.02.691,Occlusion_Psychophysics,2022.1.4,Linux x86_64,19.51600312,,,right,"[""left""]",[0.8419999999999845],False,,0.0,0.0,78.0,78.0,78.0,1.0,,,,,,
,,,,,,,,,,,,,,,,,,,,,0.05,,,,,,,,,,Stimuli/psy_flexible_rotation_30_objects_occ0.7_0.9s/images/train/n04405907_8/n02818832_0/img_stylized_tv_b03_the_sofa_and_chair_company_-_stanley_bed_2014_2006_gray.jpg,n04405907_8,n02818832_0,flexible,0.820568,n02933112_-2,Stimuli/psy_flexible_rotation_30_objects_occ0.7_0.9s/images/train/n04256520_9/n02933112_-2/img_napoleon_iii_sofa_sink_base_white_wood_2013-3_gray.png,random,flexible,n04405907_8,n03001627_8,Stimuli/canonical view 2/img_n04405907_8_gray.jpg,Stimuli/canonical view 2/img_n03001627_8_gray.jpg,random,right,Experiments/experiment_20/316.jpg,Experiments/experiment_20/317.jpg,Experiments/experiment_20/318.jpg,Experiments/experiment_20/319.jpg,167,1,2023-06-28_14h21.02.691,Occlusion_Psychophysics,2022.1.4,Linux x86_64,19.51600312,,,right,"[""right""]",[1.4589999999999463],False,,0.0,0.0,79.0,79.0,79.0,1.0,,,,,,
,,,,,,,,,,,,,,,,,,,,,0.025,,,,,,,,,,Stimuli/psy_flexible_rotation_30_objects_occ0.7_0.9s/images/train/n02883344_-1/n02883344_0/img_woven_box_b03_box_2004_gray.jpg,n02883344_-1,n02883344_0,flexible,0.714408,n04256520_9,Stimuli/psy_fixed_rotation_30_objects_occ0.7_0.9s/images/train/n02818832_0/n04256520_9/img_b03_the_sofa_and_chair_company_-_stanley_bed_2014_napoleon_iii_sofa_2000-3_gray.png,random,fixed,n02883344_-1,n02933112_4,Stimuli/canonical view 2/img_n02883344_-1_gray.jpg,Stimuli/canonical view 2/img_n02933112_4_gray.jpg,random,left,Experiments/experiment_20/320.jpg,Experiments/experiment_20/321.jpg,Experiments/experiment_20/322.jpg,Experiments/experiment_20/323.jpg,167,1,2023-06-28_14h21.02.691,Occlusion_Psychophysics,2022.1.4,Linux x86_64,19.51600312,,,right,"[""right""]",[0.9410000000000309],False,,0.0,0.0,80.0,80.0,80.0,1.0,,,,,,
,,,,,,,,,,,,,,,,,,,,,0.05,,,,,,,,,,Stimuli/psy_fixed_rotation_30_objects_occ0.7_0.9s/images/train/n03928116_10/n04379243_-7/img_ydp_103_r_2012__vray_quatre_dining_table_2007_gray.jpg,n03928116_10,n04379243_-7,fixed,0.738226,n04256520_4,Stimuli/psy_fixed_rotation_30_objects_occ0.7_0.9s/images/train/n02883344_0/n04256520_4/img_b03_box_club_house_italia_nautilus_sofa_2008-3_gray.png,random,fixed,n03928116_10,n04379243_-7,Stimuli/canonical view 2/img_n03928116_10_gray.jpg,Stimuli/canonical view 2/img_n04379243_-7_gray.jpg,foreground,right,Experiments/experiment_20/324.jpg,Experiments/experiment_20/325.jpg,Experiments/experiment_20/326.jpg,Experiments/experiment_20/327.jpg,167,1,2023-06-28_14h21.02.691,Occlusion_Psychophysics,2022.1.4,Linux x86_64,19.51600312,,,left,"[""left""]",[0.8640000000000327],False,,0.0,0.0,81.0,81.0,81.0,1.0,,,,,,
,,,,,,,,,,,,,,,,,,,,,0.025,,,,,,,,,,Stimuli/psy_fixed_rotation_30_objects_occ0.7_0.9s/images/train/n02883344_-1/n02828884_3/img_woven_box_b04_wood_metal_park_bench_2000_gray.jpg,n02883344_-1,n02828884_3,fixed,0.838802,n04256520_9,Stimuli/psy_fixed_rotation_30_objects_occ0.7_0.9s/images/train/n03928116_4/n04256520_9/img_dp_33_b_2013__vray_napoleon_iii_sofa_2013-3_gray.png,random,fixed,n02883344_-1,n04405907_5,Stimuli/canonical view 2/img_n02883344_-1_gray.jpg,Stimuli/canonical view 2/img_n04405907_5_gray.jpg,random,left,Experiments/experiment_20/328.jpg,Experiments/experiment_20/329.jpg,Experiments/experiment_20/330.jpg,Experiments/experiment_20/331.jpg,167,1,2023-06-28_14h21.02.691,Occlusion_Psychophysics,2022.1.4,Linux x86_64,19.51600312,,,left,"[""right""]",[1.5120000000000573],False,,0.0,0.0,82.0,82.0,82.0,1.0,,,,,,
,,,,,,,,,,,,,,,,,,,,,0.025,,,,,,,,,,Stimuli/psy_flexible_rotation_30_objects_occ0.7_0.9s/images/train/n02883344_0/n02933112_-18/img_b03_box_cgaxis_models_48_26_vray_composite_2015_gray.jpg,n02883344_0,n02933112_-18,flexible,0.72173,n02818832_0,Stimuli/psy_fixed_rotation_30_objects_occ0.7_0.9s/images/train/n04379243_-7/n02818832_0/img_quatre_dining_table_b03_the_sofa_and_chair_company_-_stanley_bed_2014_2011-3_gray.png,random,fixed,n02883344_0,n02933112_-18,Stimuli/canonical view 2/img_n02883344_0_gray.jpg,Stimuli/canonical view 2/img_n02933112_-18_gray.jpg,foreground,right,Experiments/experiment_20/332.jpg,Experiments/experiment_20/333.jpg,Experiments/experiment_20/334.jpg,Experiments/experiment_20/335.jpg,167,1,2023-06-28_14h21.02.691,Occlusion_Psychophysics,2022.1.4,Linux x86_64,19.51600312,,,right,"[""right""]",[0.8899999999999864],False,,0.0,0.0,83.0,83.0,83.0,1.0,,,,,,
,,,,,,,,,,,,,,,,,,,,,0.05,,,,,,,,,,Stimuli/psy_flexible_rotation_30_objects_occ0.7_0.9s/images/train/n04256520_9/n04256520_4/img_napoleon_iii_sofa_club_house_italia_nautilus_sofa_2014_gray.jpg,n04256520_9,n04256520_4,flexible,0.703723,n04256520_9,Stimuli/psy_fixed_rotation_30_objects_occ0.7_0.9s/images/train/n04070727_0/n04256520_9/img_b03_ka90ivi20r_2013__vray_napoleon_iii_sofa_2003-3_gray.png,random,fixed,n04256520_9,n02933112_-2,Stimuli/canonical view 2/img_n04256520_9_gray.jpg,Stimuli/canonical view 2/img_n02933112_-2_gray.jpg,random,right,Experiments/experiment_20/336.jpg,Experiments/experiment_20/337.jpg,Experiments/experiment_20/338.jpg,Experiments/experiment_20/339.jpg,167,1,2023-06-28_14h21.02.691,Occlusion_Psychophysics,2022.1.4,Linux x86_64,19.51600312,,,right,"[""left""]",[0.9479999999999791],False,,0.0,0.0,84.0,84.0,84.0,1.0,,,,,,
,,,,,,,,,,,,,,,,,,,,,0.05,,,,,,,,,,Stimuli/psy_flexible_rotation_30_objects_occ0.7_0.9s/images/train/n02828884_3/n02883344_-1/img_b04_wood_metal_park_bench_woven_box_2012_gray.jpg,n02828884_3,n02883344_-1,flexible,0.714582,n02883344_-1,Stimuli/psy_flexible_rotation_30_objects_occ0.7_0.9s/images/train/n02828884_3/n02883344_-1/img_b04_wood_metal_park_bench_woven_box_2012-3_gray.png,foreground,same as foreground,n02828884_3,n02883344_-1,Stimuli/canonical view 2/img_n02828884_3_gray.jpg,Stimuli/canonical view 2/img_n02883344_-1_gray.jpg,foreground,left,Experiments/experiment_20/340.jpg,Experiments/experiment_20/341.jpg,Experiments/experiment_20/342.jpg,Experiments/experiment_20/343.jpg,167,1,2023-06-28_14h21.02.691,Occlusion_Psychophysics,2022.1.4,Linux x86_64,19.51600312,,,right,"[""right""]",[1.2019999999999982],False,,0.0,0.0,85.0,85.0,85.0,1.0,,,,,,
,,,,,,,,,,,,,,,,,,,,,0.05,,,,,,,,,,Stimuli/psy_flexible_rotation_30_objects_occ0.7_0.9s/images/train/n03928116_10/n02828884_3/img_ydp_103_r_2012__vray_b04_wood_metal_park_bench_2010_gray.jpg,n03928116_10,n02828884_3,flexible,0.800873,n02828884_3,Stimuli/psy_flexible_rotation_30_objects_occ0.7_0.9s/images/train/n03928116_10/n02828884_3/img_ydp_103_r_2012__vray_b04_wood_metal_park_bench_2010-3_gray.png,foreground,same as foreground,n03928116_10,n02828884_9,Stimuli/canonical view 2/img_n03928116_10_gray.jpg,Stimuli/canonical view 2/img_n02828884_9_gray.jpg,random,right,Experiments/experiment_20/344.jpg,Experiments/experiment_20/345.jpg,Experiments/experiment_20/346.jpg,Experiments/experiment_20/347.jpg,167,1,2023-06-28_14h21.02.691,Occlusion_Psychophysics,2022.1.4,Linux x86_64,19.51600312,,,left,"[""right""]",[1.0779999999999745],False,,0.0,0.0,86.0,86.0,86.0,1.0,,,,,,
,,,,,,,,,,,,,,,,,,,,,0.025,,,,,,,,,,Stimuli/psy_fixed_rotation_30_objects_occ0.7_0.9s/images/train/n03928116_0/n04405907_8/img_b02_piano_stylized_tv_2009_gray.jpg,n03928116_0,n04405907_8,fixed,0.767433,n03928116_0,Stimuli/psy_fixed_rotation_30_objects_occ0.7_0.9s/images/train/n03928116_4/n03928116_0/img_dp_33_b_2013__vray_b02_piano_2003-3_gray.png,random,fixed,n03928116_0,n04405907_8,Stimuli/canonical view 2/img_n03928116_0_gray.jpg,Stimuli/canonical view 2/img_n04405907_8_gray.jpg,foreground,right,Experiments/experiment_20/348.jpg,Experiments/experiment_20/349.jpg,Experiments/experiment_20/350.jpg,Experiments/experiment_20/351.jpg,167,1,2023-06-28_14h21.02.691,Occlusion_Psychophysics,2022.1.4,Linux x86_64,19.51600312,,,right,"[""right""]",[0.6480000000000246],False,,0.0,0.0,87.0,87.0,87.0,1.0,,,,,,
,,,,,,,,,,,,,,,,,,,,,0.05,,,,,,,,,,Stimuli/psy_flexible_rotation_30_objects_occ0.7_0.9s/images/train/n03928116_10/n02818832_9/img_ydp_103_r_2012__vray_bed01_blue_2013_gray.jpg,n03928116_10,n02818832_9,flexible,0.779749,n04256520_4,Stimuli/psy_fixed_rotation_30_objects_occ0.7_0.9s/images/train/n02883344_-1/n04256520_4/img_woven_box_club_house_italia_nautilus_sofa_2006-3_gray.png,random,fixed,n03928116_10,n02828884_9,Stimuli/canonical view 2/img_n03928116_10_gray.jpg,Stimuli/canonical view 2/img_n02828884_9_gray.jpg,random,right,Experiments/experiment_20/352.jpg,Experiments/experiment_20/353.jpg,Experiments/experiment_20/354.jpg,Experiments/experiment_20/355.jpg,167,1,2023-06-28_14h21.02.691,Occlusion_Psychophysics,2022.1.4,Linux x86_64,19.51600312,,,left,"[""left""]",[1.0649999999999409],False,,0.0,0.0,88.0,88.0,88.0,1.0,,,,,,
,,,,,,,,,,,,,,,,,,,,,0.025,,,,,,,,,,Stimuli/psy_flexible_rotation_30_objects_occ0.7_0.9s/images/train/n03001627_8/n03001627_9/img_chair_billiani_doll_chair_eames_plastic_armchair_2015_gray.jpg,n03001627_8,n03001627_9,flexible,0.735787,n03001627_9,Stimuli/psy_flexible_rotation_30_objects_occ0.7_0.9s/images/train/n03001627_8/n03001627_9/img_chair_billiani_doll_chair_eames_plastic_armchair_2015-3_gray.png,foreground,same as foreground,n03001627_8,n03001627_9,Stimuli/canonical view 2/img_n03001627_8_gray.jpg,Stimuli/canonical view 2/img_n03001627_9_gray.jpg,foreground,left,Experiments/experiment_20/356.jpg,Experiments/experiment_20/357.jpg,Experiments/experiment_20/358.jpg,Experiments/experiment_20/359.jpg,167,1,2023-06-28_14h21.02.691,Occlusion_Psychophysics,2022.1.4,Linux x86_64,19.51600312,,,left,"[""left""]",[1.4739999999999327],False,,0.0,0.0,89.0,89.0,89.0,1.0,,,,,,
,,,,,,,,,,,,,,,,,,,,,0.025,,,,,,,,,,Stimuli/psy_flexible_rotation_30_objects_occ0.7_0.9s/images/train/n02933112_-18/n02818832_3/img_cgaxis_models_48_26_vray_composite_b05_ccm_contemporary_bed_max2013_2005_gray.jpg,n02933112_-18,n02818832_3,flexible,0.803088,n03928116_0,Stimuli/psy_flexible_rotation_30_objects_occ0.7_0.9s/images/train/n02883344_0/n03928116_0/img_b03_box_b02_piano_2008-3_gray.png,random,flexible,n02933112_-18,n03928116_4,Stimuli/canonical view 2/img_n02933112_-18_gray.jpg,Stimuli/canonical view 2/img_n03928116_4_gray.jpg,random,right,Experiments/experiment_20/360.jpg,Experiments/experiment_20/361.jpg,Experiments/experiment_20/362.jpg,Experiments/experiment_20/363.jpg,167,1,2023-06-28_14h21.02.691,Occlusion_Psychophysics,2022.1.4,Linux x86_64,19.51600312,,,right,"[""right""]",[1.3530000000000655],False,,0.0,0.0,90.0,90.0,90.0,1.0,,,,,,
,,,,,,,,,,,,,,,,,,,,,0.05,,,,,,,,,,Stimuli/psy_fixed_rotation_30_objects_occ0.7_0.9s/images/train/n04379243_-7/n04256520_5/img_quatre_dining_table_meridiani_belmondo_bench_sofa_2014_gray.jpg,n04379243_-7,n04256520_5,fixed,0.879087,n04256520_5,Stimuli/psy_fixed_rotation_30_objects_occ0.7_0.9s/images/train/n04379243_-7/n04256520_5/img_quatre_dining_table_meridiani_belmondo_bench_sofa_2014-3_gray.png,foreground,same as foreground,n04379243_-7,n02933112_4,Stimuli/canonical view 2/img_n04379243_-7_gray.jpg,Stimuli/canonical view 2/img_n02933112_4_gray.jpg,random,left,Experiments/experiment_20/364.jpg,Experiments/experiment_20/365.jpg,Experiments/experiment_20/366.jpg,Experiments/experiment_20/367.jpg,167,1,2023-06-28_14h21.02.691,Occlusion_Psychophysics,2022.1.4,Linux x86_64,19.51600312,,,right,"[""right""]",[1.538000000000011],False,,0.0,0.0,91.0,91.0,91.0,1.0,,,,,,
,,,,,,,,,,,,,,,,,,,,,0.05,,,,,,,,,,Stimuli/psy_flexible_rotation_30_objects_occ0.7_0.9s/images/train/n02828884_4/n04256520_5/img_b05_c-5_classic_series_bench-2012_meridiani_belmondo_bench_sofa_2006_gray.jpg,n02828884_4,n04256520_5,flexible,0.702146,n02933112_-18,Stimuli/psy_fixed_rotation_30_objects_occ0.7_0.9s/images/train/n03001627_-2/n02933112_-18/img_wood_chair_cgaxis_models_48_26_vray_composite_2005-3_gray.png,random,fixed,n02828884_4,n04256520_5,Stimuli/canonical view 2/img_n02828884_4_gray.jpg,Stimuli/canonical view 2/img_n04256520_5_gray.jpg,foreground,right,Experiments/experiment_20/368.jpg,Experiments/experiment_20/369.jpg,Experiments/experiment_20/370.jpg,Experiments/experiment_20/371.jpg,167,1,2023-06-28_14h21.02.691,Occlusion_Psychophysics,2022.1.4,Linux x86_64,19.51600312,,,right,"[""right""]",[0.8559999999999945],False,,0.0,0.0,92.0,92.0,92.0,1.0,,,,,,
,,,,,,,,,,,,,,,,,,,,,0.025,,,,,,,,,,Stimuli/psy_fixed_rotation_30_objects_occ0.7_0.9s/images/train/n02828884_3/n04256520_9/img_b04_wood_metal_park_bench_napoleon_iii_sofa_2009_gray.jpg,n02828884_3,n04256520_9,fixed,0.723794,n04405907_5,Stimuli/psy_fixed_rotation_30_objects_occ0.7_0.9s/images/train/n04405907_8/n04405907_5/img_stylized_tv_samsung_40_uhd_smart_tv_2011_2009-3_gray.png,random,fixed,n02828884_3,n04256520_9,Stimuli/canonical view 2/img_n02828884_3_gray.jpg,Stimuli/canonical view 2/img_n04256520_9_gray.jpg,foreground,left,Experiments/experiment_20/372.jpg,Experiments/experiment_20/373.jpg,Experiments/experiment_20/374.jpg,Experiments/experiment_20/375.jpg,167,1,2023-06-28_14h21.02.691,Occlusion_Psychophysics,2022.1.4,Linux x86_64,19.51600312,,,left,"[""right""]",[1.6380000000000337],False,,0.0,0.0,93.0,93.0,93.0,1.0,,,,,,
,,,,,,,,,,,,,,,,,,,,,0.05,,,,,,,,,,Stimuli/psy_flexible_rotation_30_objects_occ0.7_0.9s/images/train/n04405907_5/n04379243_0/img_samsung_40_uhd_smart_tv_2011_17th_c._monastery_dining_table_2010_2013_gray.jpg,n04405907_5,n04379243_0,flexible,0.786537,n02818832_0,Stimuli/psy_flexible_rotation_30_objects_occ0.7_0.9s/images/train/n02818832_3/n02818832_0/img_b05_ccm_contemporary_bed_max2013_b03_the_sofa_and_chair_company_-_stanley_bed_2014_2007-3_gray.png,random,flexible,n04405907_5,n02828884_9,Stimuli/canonical view 2/img_n04405907_5_gray.jpg,Stimuli/canonical view 2/img_n02828884_9_gray.jpg,random,right,Experiments/experiment_20/376.jpg,Experiments/experiment_20/377.jpg,Experiments/experiment_20/378.jpg,Experiments/experiment_20/379.jpg,167,1,2023-06-28_14h21.02.691,Occlusion_Psychophysics,2022.1.4,Linux x86_64,19.51600312,,,right,"[""left""]",[1.2180000000000746],False,,0.0,0.0,94.0,94.0,94.0,1.0,,,,,,
,,,,,,,,,,,,,,,,,,,,,0.05,,,,,,,,,,Stimuli/psy_fixed_rotation_30_objects_occ0.7_0.9s/images/train/n02933112_4/n04405907_8/img_buffet_stylized_tv_2010_gray.jpg,n02933112_4,n04405907_8,fixed,0.778772,n04405907_8,Stimuli/psy_fixed_rotation_30_objects_occ0.7_0.9s/images/train/n02933112_4/n04405907_8/img_buffet_stylized_tv_2010-3_gray.png,foreground,same as foreground,n02933112_4,n04405907_8,Stimuli/canonical view 2/img_n02933112_4_gray.jpg,Stimuli/canonical view 2/img_n04405907_8_gray.jpg,foreground,left,Experiments/experiment_20/380.jpg,Experiments/experiment_20/381.jpg,Experiments/experiment_20/382.jpg,Experiments/experiment_20/383.jpg,167,1,2023-06-28_14h21.02.691,Occlusion_Psychophysics,2022.1.4,Linux x86_64,19.51600312,,,right,"[""right""]",[0.9890000000000327],False,,0.0,0.0,95.0,95.0,95.0,1.0,,,,,,
,,,,,,,,,,,,,,,,,,,,,0.025,,,,,,,,,,Stimuli/psy_flexible_rotation_30_objects_occ0.7_0.9s/images/train/n02933112_4/n02883344_-1/img_buffet_woven_box_2009_gray.jpg,n02933112_4,n02883344_-1,flexible,0.716557,n02828884_3,Stimuli/psy_flexible_rotation_30_objects_occ0.7_0.9s/images/train/n02933112_4/n02828884_3/img_buffet_b04_wood_metal_park_bench_2010-3_gray.png,random,flexible,n02933112_4,n02883344_15,Stimuli/canonical view 2/img_n02933112_4_gray.jpg,Stimuli/canonical view 2/img_n02883344_15_gray.jpg,random,left,Experiments/experiment_20/384.jpg,Experiments/experiment_20/385.jpg,Experiments/experiment_20/386.jpg,Experiments/experiment_20/387.jpg,167,1,2023-06-28_14h21.02.691,Occlusion_Psychophysics,2022.1.4,Linux x86_64,19.51600312,,,right,"[""left""]",[1.0120000000000573],True,left,1.0,0.0,96.0,96.0,96.0,1.0,0.991,,,,,
,,,,,,,,,,,,,,,,,,,,,0.025,,,,,,,,,,Stimuli/psy_flexible_rotation_30_objects_occ0.7_0.9s/images/train/n04405907_9/n02818832_3/img_vray_004_b05_ccm_contemporary_bed_max2013_2012_gray.jpg,n04405907_9,n02818832_3,flexible,0.759311,n02818832_3,Stimuli/psy_flexible_rotation_30_objects_occ0.7_0.9s/images/train/n04405907_9/n02818832_3/img_vray_004_b05_ccm_contemporary_bed_max2013_2012-3_gray.png,foreground,same as foreground,n04405907_9,n04379243_-7,Stimuli/canonical view 2/img_n04405907_9_gray.jpg,Stimuli/canonical view 2/img_n04379243_-7_gray.jpg,random,right,Experiments/experiment_20/388.jpg,Experiments/experiment_20/389.jpg,Experiments/experiment_20/390.jpg,Experiments/experiment_20/391.jpg,167,1,2023-06-28_14h21.02.691,Occlusion_Psychophysics,2022.1.4,Linux x86_64,19.51600312,,,left,"[""right""]",[1.0049999999999955],False,,0.0,0.0,97.0,97.0,97.0,1.0,,,,,,
,,,,,,,,,,,,,,,,,,,,,0.025,,,,,,,,,,Stimuli/psy_flexible_rotation_30_objects_occ0.7_0.9s/images/train/n02883344_-1/n04379243_-7/img_woven_box_quatre_dining_table_2014_gray.jpg,n02883344_-1,n04379243_-7,flexible,0.717459,n04379243_-7,Stimuli/psy_flexible_rotation_30_objects_occ0.7_0.9s/images/train/n02883344_-1/n04379243_-7/img_woven_box_quatre_dining_table_2014-3_gray.png,foreground,same as foreground,n02883344_-1,n04379243_-7,Stimuli/canonical view 2/img_n02883344_-1_gray.jpg,Stimuli/canonical view 2/img_n04379243_-7_gray.jpg,foreground,right,Experiments/experiment_20/392.jpg,Experiments/experiment_20/393.jpg,Experiments/experiment_20/394.jpg,Experiments/experiment_20/395.jpg,167,1,2023-06-28_14h21.02.691,Occlusion_Psychophysics,2022.1.4,Linux x86_64,19.51600312,,,right,"[""right""]",[0.7189999999999372],False,,0.0,0.0,98.0,98.0,98.0,1.0,,,,,,
,,,,,,,,,,,,,,,,,,,,,0.05,,,,,,,,,,Stimuli/psy_flexible_rotation_30_objects_occ0.7_0.9s/images/train/n02883344_15/n04379243_-7/img_microwave_box_quatre_dining_table_2004_gray.jpg,n02883344_15,n04379243_-7,flexible,0.719089,n04379243_-7,Stimuli/psy_flexible_rotation_30_objects_occ0.7_0.9s/images/train/n02883344_15/n04379243_-7/img_microwave_box_quatre_dining_table_2004-3_gray.png,foreground,same as foreground,n02883344_15,n02818832_0,Stimuli/canonical view 2/img_n02883344_15_gray.jpg,Stimuli/canonical view 2/img_n02818832_0_gray.jpg,random,left,Experiments/experiment_20/396.jpg,Experiments/experiment_20/397.jpg,Experiments/experiment_20/398.jpg,Experiments/experiment_20/399.jpg,167,1,2023-06-28_14h21.02.691,Occlusion_Psychophysics,2022.1.4,Linux x86_64,19.51600312,,,right,"[""left""]",[1.09699999999998],False,,0.0,0.0,99.0,99.0,99.0,1.0,,,,,,
,,,,,,,,,,,,,,,,,,,,,,,,,,,,,,,,,,,,,,,,,,,,,,,,,,167,1,2023-06-28_14h21.02.691,Occlusion_Psychophysics,2022.1.4,Linux x86_64,19.51600312,,,,,,,,,,,,,,,0.0,0.0,0.0,0.0,1.0
,,,,,,,,,,,,,,,,,,,,,0.05,,,,,,,,,,Stimuli/psy_fixed_rotation_30_objects_occ0.7_0.9s/images/train/n04256520_5/n02818832_9/img_meridiani_belmondo_bench_sofa_bed01_blue_2005_gray.jpg,n04256520_5,n02818832_9,fixed,0.733462,n02818832_9,Stimuli/psy_fixed_rotation_30_objects_occ0.7_0.9s/images/train/n04256520_5/n02818832_9/img_meridiani_belmondo_bench_sofa_bed01_blue_2005-3_gray.png,foreground,same as foreground,n04256520_5,n02818832_0,Stimuli/canonical view 2/img_n04256520_5_gray.jpg,Stimuli/canonical view 2/img_n02818832_0_gray.jpg,random,left,Experiments/experiment_20/400.jpg,Experiments/experiment_20/401.jpg,Experiments/experiment_20/402.jpg,Experiments/experiment_20/403.jpg,167,1,2023-06-28_14h21.02.691,Occlusion_Psychophysics,2022.1.4,Linux x86_64,19.51600312,,,left,"[""left""]",[1.1850000000000591],True,left,1.0,0.0,0.0,0.0,0.0,1.0,0.936,,,,,
,,,,,,,,,,,,,,,,,,,,,0.025,,,,,,,,,,Stimuli/psy_fixed_rotation_30_objects_occ0.7_0.9s/images/train/n04256520_4/n04256520_9/img_club_house_italia_nautilus_sofa_napoleon_iii_sofa_2012_gray.jpg,n04256520_4,n04256520_9,fixed,0.750519,n02818832_9,Stimuli/psy_flexible_rotation_30_objects_occ0.7_0.9s/images/train/n02828884_3/n02818832_9/img_b04_wood_metal_park_bench_bed01_blue_2000-3_gray.png,random,flexible,n04256520_4,n04256520_9,Stimuli/canonical view 2/img_n04256520_4_gray.jpg,Stimuli/canonical view 2/img_n04256520_9_gray.jpg,foreground,right,Experiments/experiment_20/404.jpg,Experiments/experiment_20/405.jpg,Experiments/experiment_20/406.jpg,Experiments/experiment_20/407.jpg,167,1,2023-06-28_14h21.02.691,Occlusion_Psychophysics,2022.1.4,Linux x86_64,19.51600312,,,right,"[""right""]",[1.3110000000000355],False,,0.0,0.0,1.0,1.0,1.0,1.0,,,,,,
,,,,,,,,,,,,,,,,,,,,,0.05,,,,,,,,,,Stimuli/psy_fixed_rotation_30_objects_occ0.7_0.9s/images/train/n02933112_-18/n04405907_5/img_cgaxis_models_48_26_vray_composite_samsung_40_uhd_smart_tv_2011_2006_gray.jpg,n02933112_-18,n04405907_5,fixed,0.81675,n04405907_5,Stimuli/psy_fixed_rotation_30_objects_occ0.7_0.9s/images/train/n02933112_-18/n04405907_5/img_cgaxis_models_48_26_vray_composite_samsung_40_uhd_smart_tv_2011_2006-3_gray.png,foreground,same as foreground,n02933112_-18,n04405907_5,Stimuli/canonical view 2/img_n02933112_-18_gray.jpg,Stimuli/canonical view 2/img_n04405907_5_gray.jpg,foreground,right,Experiments/experiment_20/408.jpg,Experiments/experiment_20/409.jpg,Experiments/experiment_20/410.jpg,Experiments/experiment_20/411.jpg,167,1,2023-06-28_14h21.02.691,Occlusion_Psychophysics,2022.1.4,Linux x86_64,19.51600312,,,left,"[""left""]",[0.8100000000000591],False,,0.0,0.0,2.0,2.0,2.0,1.0,,,,,,
,,,,,,,,,,,,,,,,,,,,,0.05,,,,,,,,,,Stimuli/psy_fixed_rotation_30_objects_occ0.7_0.9s/images/train/n04379243_-7/n03928116_0/img_quatre_dining_table_b02_piano_2009_gray.jpg,n04379243_-7,n03928116_0,fixed,0.714305,n03928116_0,Stimuli/psy_fixed_rotation_30_objects_occ0.7_0.9s/images/train/n04379243_-7/n03928116_0/img_quatre_dining_table_b02_piano_2009-3_gray.png,foreground,same as foreground,n04379243_-7,n04405907_9,Stimuli/canonical view 2/img_n04379243_-7_gray.jpg,Stimuli/canonical view 2/img_n04405907_9_gray.jpg,random,right,Experiments/experiment_20/412.jpg,Experiments/experiment_20/413.jpg,Experiments/experiment_20/414.jpg,Experiments/experiment_20/415.jpg,167,1,2023-06-28_14h21.02.691,Occlusion_Psychophysics,2022.1.4,Linux x86_64,19.51600312,,,left,"[""left""]",[1.5360000000000582],False,,0.0,0.0,3.0,3.0,3.0,1.0,,,,,,
,,,,,,,,,,,,,,,,,,,,,0.05,,,,,,,,,,Stimuli/psy_fixed_rotation_30_objects_occ0.7_0.9s/images/train/n04405907_5/n04405907_9/img_samsung_40_uhd_smart_tv_2011_vray_004_2006_gray.jpg,n04405907_5,n04405907_9,fixed,0.807054,n04405907_9,Stimuli/psy_fixed_rotation_30_objects_occ0.7_0.9s/images/train/n04405907_5/n04405907_9/img_samsung_40_uhd_smart_tv_2011_vray_004_2006-3_gray.png,foreground,same as foreground,n04405907_5,n04379243_8,Stimuli/canonical view 2/img_n04405907_5_gray.jpg,Stimuli/canonical view 2/img_n04379243_8_gray.jpg,random,left,Experiments/experiment_20/416.jpg,Experiments/experiment_20/417.jpg,Experiments/experiment_20/418.jpg,Experiments/experiment_20/419.jpg,167,1,2023-06-28_14h21.02.691,Occlusion_Psychophysics,2022.1.4,Linux x86_64,19.51600312,,,left,"[""left""]",[1.1849999999999454],False,,0.0,0.0,4.0,4.0,4.0,1.0,,,,,,
,,,,,,,,,,,,,,,,,,,,,0.025,,,,,,,,,,Stimuli/psy_flexible_rotation_30_objects_occ0.7_0.9s/images/train/n04405907_8/n02818832_3/img_stylized_tv_b05_ccm_contemporary_bed_max2013_2012_gray.jpg,n04405907_8,n02818832_3,flexible,0.811747,n02818832_3,Stimuli/psy_flexible_rotation_30_objects_occ0.7_0.9s/images/train/n04405907_8/n02818832_3/img_stylized_tv_b05_ccm_contemporary_bed_max2013_2012-3_gray.png,foreground,same as foreground,n04405907_8,n02818832_3,Stimuli/canonical view 2/img_n04405907_8_gray.jpg,Stimuli/canonical view 2/img_n02818832_3_gray.jpg,foreground,right,Experiments/experiment_20/420.jpg,Experiments/experiment_20/421.jpg,Experiments/experiment_20/422.jpg,Experiments/experiment_20/423.jpg,167,1,2023-06-28_14h21.02.691,Occlusion_Psychophysics,2022.1.4,Linux x86_64,19.51600312,,,right,"[""right""]",[0.8730000000000473],False,,0.0,0.0,5.0,5.0,5.0,1.0,,,,,,
,,,,,,,,,,,,,,,,,,,,,0.05,,,,,,,,,,Stimuli/psy_flexible_rotation_30_objects_occ0.7_0.9s/images/train/n02828884_4/n02828884_3/img_b05_c-5_classic_series_bench-2012_b04_wood_metal_park_bench_2006_gray.jpg,n02828884_4,n02828884_3,flexible,0.731911,n02828884_3,Stimuli/psy_flexible_rotation_30_objects_occ0.7_0.9s/images/train/n02828884_4/n02828884_3/img_b05_c-5_classic_series_bench-2012_b04_wood_metal_park_bench_2006-3_gray.png,foreground,same as foreground,n02828884_4,n02828884_3,Stimuli/canonical view 2/img_n02828884_4_gray.jpg,Stimuli/canonical view 2/img_n02828884_3_gray.jpg,foreground,right,Experiments/experiment_20/424.jpg,Experiments/experiment_20/425.jpg,Experiments/experiment_20/426.jpg,Experiments/experiment_20/427.jpg,167,1,2023-06-28_14h21.02.691,Occlusion_Psychophysics,2022.1.4,Linux x86_64,19.51600312,,,left,"[""left""]",[1.4800000000000182],False,,0.0,0.0,6.0,6.0,6.0,1.0,,,,,,
,,,,,,,,,,,,,,,,,,,,,0.025,,,,,,,,,,Stimuli/psy_flexible_rotation_30_objects_occ0.7_0.9s/images/train/n03928116_4/n04379243_-7/img_dp_33_b_2013__vray_quatre_dining_table_2012_gray.jpg,n03928116_4,n04379243_-7,flexible,0.855771,n04379243_-7,Stimuli/psy_flexible_rotation_30_objects_occ0.7_0.9s/images/train/n03928116_4/n04379243_-7/img_dp_33_b_2013__vray_quatre_dining_table_2012-3_gray.png,foreground,same as foreground,n03928116_4,n04379243_-7,Stimuli/canonical view 2/img_n03928116_4_gray.jpg,Stimuli/canonical view 2/img_n04379243_-7_gray.jpg,foreground,right,Experiments/experiment_20/428.jpg,Experiments/experiment_20/429.jpg,Experiments/experiment_20/430.jpg,Experiments/experiment_20/431.jpg,167,1,2023-06-28_14h21.02.691,Occlusion_Psychophysics,2022.1.4,Linux x86_64,19.51600312,,,right,"[""right""]",[1.0609999999999218],False,,0.0,0.0,7.0,7.0,7.0,1.0,,,,,,
,,,,,,,,,,,,,,,,,,,,,0.025,,,,,,,,,,Stimuli/psy_flexible_rotation_30_objects_occ0.7_0.9s/images/train/n04405907_8/n04256520_9/img_stylized_tv_napoleon_iii_sofa_2001_gray.jpg,n04405907_8,n04256520_9,flexible,0.81231,n02818832_9,Stimuli/psy_fixed_rotation_30_objects_occ0.7_0.9s/images/train/n02818832_0/n02818832_9/img_b03_the_sofa_and_chair_company_-_stanley_bed_2014_bed01_blue_2002-3_gray.png,random,fixed,n04405907_8,n04256520_9,Stimuli/canonical view 2/img_n04405907_8_gray.jpg,Stimuli/canonical view 2/img_n04256520_9_gray.jpg,foreground,left,Experiments/experiment_20/432.jpg,Experiments/experiment_20/433.jpg,Experiments/experiment_20/434.jpg,Experiments/experiment_20/435.jpg,167,1,2023-06-28_14h21.02.691,Occlusion_Psychophysics,2022.1.4,Linux x86_64,19.51600312,,,right,"[""left""]",[1.2849999999999682],False,,0.0,0.0,8.0,8.0,8.0,1.0,,,,,,
,,,,,,,,,,,,,,,,,,,,,0.05,,,,,,,,,,Stimuli/psy_fixed_rotation_30_objects_occ0.7_0.9s/images/train/n02883344_-1/n02933112_4/img_woven_box_buffet_2011_gray.jpg,n02883344_-1,n02933112_4,fixed,0.750536,n02933112_4,Stimuli/psy_fixed_rotation_30_objects_occ0.7_0.9s/images/train/n02883344_-1/n02933112_4/img_woven_box_buffet_2011-3_gray.png,foreground,same as foreground,n02883344_-1,n04379243_-7,Stimuli/canonical view 2/img_n02883344_-1_gray.jpg,Stimuli/canonical view 2/img_n04379243_-7_gray.jpg,random,right,Experiments/experiment_20/436.jpg,Experiments/experiment_20/437.jpg,Experiments/experiment_20/438.jpg,Experiments/experiment_20/439.jpg,167,1,2023-06-28_14h21.02.691,Occlusion_Psychophysics,2022.1.4,Linux x86_64,19.51600312,,,left,"[""left""]",[1.4209999999999354],False,,0.0,0.0,9.0,9.0,9.0,1.0,,,,,,
,,,,,,,,,,,,,,,,,,,,,0.025,,,,,,,,,,Stimuli/psy_flexible_rotation_30_objects_occ0.7_0.9s/images/train/n03001627_9/n04256520_4/img_chair_eames_plastic_armchair_club_house_italia_nautilus_sofa_2001_gray.jpg,n03001627_9,n04256520_4,flexible,0.75126,n04379243_-7,Stimuli/psy_fixed_rotation_30_objects_occ0.7_0.9s/images/train/n04070727_0/n04379243_-7/img_b03_ka90ivi20r_2013__vray_quatre_dining_table_2006-3_gray.png,random,fixed,n03001627_9,n04379243_-7,Stimuli/canonical view 2/img_n03001627_9_gray.jpg,Stimuli/canonical view 2/img_n04379243_-7_gray.jpg,random,left,Experiments/experiment_20/440.jpg,Experiments/experiment_20/441.jpg,Experiments/experiment_20/442.jpg,Experiments/experiment_20/443.jpg,167,1,2023-06-28_14h21.02.691,Occlusion_Psychophysics,2022.1.4,Linux x86_64,19.51600312,,,left,"[""left""]",[0.9320000000000164],False,,0.0,0.0,10.0,10.0,10.0,1.0,,,,,,
