in_color,Instructions_key.keys,Instructions_key.rt,Tutorial_instruction_key.keys,Tutorial_instruction_key.rt,Tutorial_fixation_ley.keys,Tutorial_fixation_ley.rt,Tutorial_single_img_key.keys,Tutorial_single_img_key.rt,Tutorial_intra_trial_fixation_key.keys,Tutorial_intra_trial_fixation_key.rt,Tutorial_stimulus_key.keys,Tutorial_stimulus_key.rt,Tutorial_response_key.keys,Tutorial_response_key.rt,Tutorial_attention_check_key.keys,Tutorial_attention_check_key.rt,advance_or_repeat.keys,advance_or_repeat.rt,End_tutorial.keys,End_tutorial.rt,Tutorial_loop.thisRepN,Tutorial_loop.thisTrialN,Tutorial_loop.thisN,Tutorial_loop.thisIndex,Tutorial_loop.ran,participant,session,date,expName,psychopyVersion,OS,frameRate,Practice_instructions_key.keys,Practice_instructions_key.rt,intra_trial_duration,Practice_key_response.keys,Practice_key_response.rt,Practice_react_key.keys,Practice_react_key.rt,Practice_loop.thisRepN,Practice_loop.thisTrialN,Practice_loop.thisN,Practice_loop.thisIndex,Practice_loop.ran,multi_object_filepath,background_id,foreground_id,multi_object_rotation,occlusion_level,single_object_id,single_object_filepath,single_is_foreground_or_random,single_object_rotation,background_choice_id,alt_choice_id,background_option_filepath,alternative_option_filepath,alternative_is_foreground_or_random,location_of_correct_answer,multi_object_exp_filename,single_object_exp_filename,background_option_exp_filename,alternative_option_exp_filename,Practice_end_key.keys,Practice_end_key.rt,correct_answer,Input_selection.keys,Input_selection.rt,Was_attention_check,Attention_check.keys,Attention_check.corr,Each_session_loop.thisRepN,Each_session_loop.thisTrialN,Each_session_loop.thisN,Each_session_loop.thisIndex,Each_session_loop.ran,Attention_check.rt,Num_sessions.thisRepN,Num_sessions.thisTrialN,Num_sessions.thisN,Num_sessions.thisIndex,Num_sessions.ran
False,space,69.0197,space,7.4682,space,2.6572,space,3.8779,space,2.4897,space,4.0212,left,1.1228,right,1.637,r,10.9185,space,4.0186,0.0,0.0,0.0,0.0,1.0,201,1,2023-09-17_12h03.48.550,Occlusion_Psychophysics,2022.1.4,Win32,60.0024001,,,,,,,,,,,,,,,,,,,,,,,,,,,,,,,,,,,,,,,,,,,,,,,,,,
,,,,,,,,,,,,,,,,,,,,,,,,,,201,1,2023-09-17_12h03.48.550,Occlusion_Psychophysics,2022.1.4,Win32,60.0024001,space,4.534,0.025,left,1.7901,a,5.3828,0.0,0.0,0.0,0.0,1.0,Stimuli/psy_flexible_rotation_30_objects_occ0.7_0.9s/images/train/n03928116_10/n04405907_9/img_ydp_103_r_2012__vray_vray_004_2009_gray.jpg,n03928116_10,n04405907_9,flexible,0.723838,n04405907_9,Stimuli/psy_flexible_rotation_30_objects_occ0.7_0.9s/images/train/n03928116_10/n04405907_9/img_ydp_103_r_2012__vray_vray_004_2009-3_gray.png,foreground,same as foreground,n03928116_10,n04405907_9,Stimuli/canonical view 2/img_n03928116_10_gray.jpg,Stimuli/canonical view 2/img_n04405907_9_gray.jpg,foreground,left,Experiments/experiment_25/1000.jpg,Experiments/experiment_25/1001.jpg,Experiments/experiment_25/1002.jpg,Experiments/experiment_25/1003.jpg,,,,,,,,,,,,,,,,,,,
,,,,,,,,,,,,,,,,,,,,,,,,,,201,1,2023-09-17_12h03.48.550,Occlusion_Psychophysics,2022.1.4,Win32,60.0024001,,,0.05,,,,,,,,,,Stimuli/psy_flexible_rotation_30_objects_occ0.7_0.9s/images/train/n02828884_3/n04405907_8/img_b04_wood_metal_park_bench_stylized_tv_2002_gray.jpg,n02828884_3,n04405907_8,flexible,0.805676,n04405907_8,Stimuli/psy_flexible_rotation_30_objects_occ0.7_0.9s/images/train/n02828884_3/n04405907_8/img_b04_wood_metal_park_bench_stylized_tv_2002-3_gray.png,foreground,same as foreground,n02828884_3,n04256520_9,Stimuli/canonical view 2/img_n02828884_3_gray.jpg,Stimuli/canonical view 2/img_n04256520_9_gray.jpg,random,left,Experiments/experiment_25/0.jpg,Experiments/experiment_25/1.jpg,Experiments/experiment_25/2.jpg,Experiments/experiment_25/3.jpg,space,3.8952,right,"[""left""]",[1.7727000000476778],False,,0.0,0.0,0.0,0.0,0.0,1.0,,,,,,
,,,,,,,,,,,,,,,,,,,,,,,,,,201,1,2023-09-17_12h03.48.550,Occlusion_Psychophysics,2022.1.4,Win32,60.0024001,,,0.025,,,,,,,,,,Stimuli/psy_fixed_rotation_30_objects_occ0.7_0.9s/images/train/n02828884_9/n03928116_0/img_cr-96_bench_b02_piano_2005_gray.jpg,n02828884_9,n03928116_0,fixed,0.752162,n03928116_0,Stimuli/psy_fixed_rotation_30_objects_occ0.7_0.9s/images/train/n02828884_9/n03928116_0/img_cr-96_bench_b02_piano_2005-3_gray.png,foreground,same as foreground,n02828884_9,n03001627_-2,Stimuli/canonical view 2/img_n02828884_9_gray.jpg,Stimuli/canonical view 2/img_n03001627_-2_gray.jpg,random,left,Experiments/experiment_25/4.jpg,Experiments/experiment_25/5.jpg,Experiments/experiment_25/6.jpg,Experiments/experiment_25/7.jpg,,,right,"[""right""]",[1.3704999999999927],False,,0.0,0.0,1.0,1.0,1.0,1.0,,,,,,
,,,,,,,,,,,,,,,,,,,,,,,,,,201,1,2023-09-17_12h03.48.550,Occlusion_Psychophysics,2022.1.4,Win32,60.0024001,,,0.025,,,,,,,,,,Stimuli/psy_fixed_rotation_30_objects_occ0.7_0.9s/images/train/n04379243_8/n02818832_3/img_glass_table_b05_ccm_contemporary_bed_max2013_2011_gray.jpg,n04379243_8,n02818832_3,fixed,0.752155,n02818832_3,Stimuli/psy_fixed_rotation_30_objects_occ0.7_0.9s/images/train/n04379243_8/n02818832_3/img_glass_table_b05_ccm_contemporary_bed_max2013_2011-3_gray.png,foreground,same as foreground,n04379243_8,n02818832_3,Stimuli/canonical view 2/img_n04379243_8_gray.jpg,Stimuli/canonical view 2/img_n02818832_3_gray.jpg,foreground,right,Experiments/experiment_25/8.jpg,Experiments/experiment_25/9.jpg,Experiments/experiment_25/10.jpg,Experiments/experiment_25/11.jpg,,,right,"[""left""]",[0.7130000000000223],False,,0.0,0.0,2.0,2.0,2.0,1.0,,,,,,
,,,,,,,,,,,,,,,,,,,,,,,,,,201,1,2023-09-17_12h03.48.550,Occlusion_Psychophysics,2022.1.4,Win32,60.0024001,,,0.025,,,,,,,,,,Stimuli/psy_fixed_rotation_30_objects_occ0.7_0.9s/images/train/n02883344_-1/n04405907_5/img_woven_box_samsung_40_uhd_smart_tv_2011_2000_gray.jpg,n02883344_-1,n04405907_5,fixed,0.817399,n04405907_5,Stimuli/psy_fixed_rotation_30_objects_occ0.7_0.9s/images/train/n02883344_-1/n04405907_5/img_woven_box_samsung_40_uhd_smart_tv_2011_2000-3_gray.png,foreground,same as foreground,n02883344_-1,n04405907_5,Stimuli/canonical view 2/img_n02883344_-1_gray.jpg,Stimuli/canonical view 2/img_n04405907_5_gray.jpg,foreground,left,Experiments/experiment_25/12.jpg,Experiments/experiment_25/13.jpg,Experiments/experiment_25/14.jpg,Experiments/experiment_25/15.jpg,,,right,"[""left""]",[0.8813000000119473],False,,0.0,0.0,3.0,3.0,3.0,1.0,,,,,,
,,,,,,,,,,,,,,,,,,,,,,,,,,201,1,2023-09-17_12h03.48.550,Occlusion_Psychophysics,2022.1.4,Win32,60.0024001,,,0.025,,,,,,,,,,Stimuli/psy_flexible_rotation_30_objects_occ0.7_0.9s/images/train/n04379243_8/n03928116_10/img_glass_table_ydp_103_r_2012__vray_2010_gray.jpg,n04379243_8,n03928116_10,flexible,0.762732,n03928116_10,Stimuli/psy_flexible_rotation_30_objects_occ0.7_0.9s/images/train/n04379243_8/n03928116_10/img_glass_table_ydp_103_r_2012__vray_2010-3_gray.png,foreground,same as foreground,n04379243_8,n03928116_10,Stimuli/canonical view 2/img_n04379243_8_gray.jpg,Stimuli/canonical view 2/img_n03928116_10_gray.jpg,foreground,right,Experiments/experiment_25/16.jpg,Experiments/experiment_25/17.jpg,Experiments/experiment_25/18.jpg,Experiments/experiment_25/19.jpg,,,left,"[""right""]",[0.8676999999880763],False,,0.0,0.0,4.0,4.0,4.0,1.0,,,,,,
,,,,,,,,,,,,,,,,,,,,,,,,,,201,1,2023-09-17_12h03.48.550,Occlusion_Psychophysics,2022.1.4,Win32,60.0024001,,,0.025,,,,,,,,,,Stimuli/psy_fixed_rotation_30_objects_occ0.7_0.9s/images/train/n04256520_4/n04256520_5/img_club_house_italia_nautilus_sofa_meridiani_belmondo_bench_sofa_2010_gray.jpg,n04256520_4,n04256520_5,fixed,0.797266,n04379243_0,Stimuli/psy_fixed_rotation_30_objects_occ0.7_0.9s/images/train/n02828884_4/n04379243_0/img_b05_c-5_classic_series_bench-2012_17th_c._monastery_dining_table_2010_2002-3_gray.png,random,fixed,n04256520_4,n02883344_15,Stimuli/canonical view 2/img_n04256520_4_gray.jpg,Stimuli/canonical view 2/img_n02883344_15_gray.jpg,random,right,Experiments/experiment_25/20.jpg,Experiments/experiment_25/21.jpg,Experiments/experiment_25/22.jpg,Experiments/experiment_25/23.jpg,,,left,"[""right""]",[0.6774000000357319],False,,0.0,0.0,5.0,5.0,5.0,1.0,,,,,,
,,,,,,,,,,,,,,,,,,,,,,,,,,201,1,2023-09-17_12h03.48.550,Occlusion_Psychophysics,2022.1.4,Win32,60.0024001,,,0.05,,,,,,,,,,Stimuli/psy_flexible_rotation_30_objects_occ0.7_0.9s/images/train/n02828884_9/n02883344_15/img_cr-96_bench_microwave_box_2001_gray.jpg,n02828884_9,n02883344_15,flexible,0.734403,n03928116_4,Stimuli/psy_fixed_rotation_30_objects_occ0.7_0.9s/images/train/n04379243_8/n03928116_4/img_glass_table_dp_33_b_2013__vray_2007-3_gray.png,random,fixed,n02828884_9,n02828884_3,Stimuli/canonical view 2/img_n02828884_9_gray.jpg,Stimuli/canonical view 2/img_n02828884_3_gray.jpg,random,left,Experiments/experiment_25/24.jpg,Experiments/experiment_25/25.jpg,Experiments/experiment_25/26.jpg,Experiments/experiment_25/27.jpg,,,left,"[""left""]",[0.7193000000119127],False,,0.0,0.0,6.0,6.0,6.0,1.0,,,,,,
,,,,,,,,,,,,,,,,,,,,,,,,,,201,1,2023-09-17_12h03.48.550,Occlusion_Psychophysics,2022.1.4,Win32,60.0024001,,,0.025,,,,,,,,,,Stimuli/psy_fixed_rotation_30_objects_occ0.7_0.9s/images/train/n04256520_4/n04405907_5/img_club_house_italia_nautilus_sofa_samsung_40_uhd_smart_tv_2011_2014_gray.jpg,n04256520_4,n04405907_5,fixed,0.703837,n02883344_15,Stimuli/psy_fixed_rotation_30_objects_occ0.7_0.9s/images/train/n04070727_5/n02883344_15/img_b05_db_apps_tech_06_13_composite_microwave_box_2001-3_gray.png,random,fixed,n04256520_4,n04405907_5,Stimuli/canonical view 2/img_n04256520_4_gray.jpg,Stimuli/canonical view 2/img_n04405907_5_gray.jpg,foreground,right,Experiments/experiment_25/28.jpg,Experiments/experiment_25/29.jpg,Experiments/experiment_25/30.jpg,Experiments/experiment_25/31.jpg,,,left,"[""right""]",[0.8874999999999886],False,,0.0,0.0,7.0,7.0,7.0,1.0,,,,,,
,,,,,,,,,,,,,,,,,,,,,,,,,,201,1,2023-09-17_12h03.48.550,Occlusion_Psychophysics,2022.1.4,Win32,60.0024001,,,0.05,,,,,,,,,,Stimuli/psy_flexible_rotation_30_objects_occ0.7_0.9s/images/train/n02828884_9/n03928116_0/img_cr-96_bench_b02_piano_2005_gray.jpg,n02828884_9,n03928116_0,flexible,0.734999,n04256520_5,Stimuli/psy_flexible_rotation_30_objects_occ0.7_0.9s/images/train/n02933112_-2/n04256520_5/img_sink_base_white_wood_meridiani_belmondo_bench_sofa_2003-3_gray.png,random,flexible,n02828884_9,n02828884_4,Stimuli/canonical view 2/img_n02828884_9_gray.jpg,Stimuli/canonical view 2/img_n02828884_4_gray.jpg,random,right,Experiments/experiment_25/32.jpg,Experiments/experiment_25/33.jpg,Experiments/experiment_25/34.jpg,Experiments/experiment_25/35.jpg,,,left,"[""right""]",[1.2406000000238464],False,,0.0,0.0,8.0,8.0,8.0,1.0,,,,,,
,,,,,,,,,,,,,,,,,,,,,,,,,,201,1,2023-09-17_12h03.48.550,Occlusion_Psychophysics,2022.1.4,Win32,60.0024001,,,0.05,,,,,,,,,,Stimuli/psy_fixed_rotation_30_objects_occ0.7_0.9s/images/train/n04405907_8/n04405907_5/img_stylized_tv_samsung_40_uhd_smart_tv_2011_2002_gray.jpg,n04405907_8,n04405907_5,fixed,0.880198,n04405907_5,Stimuli/psy_fixed_rotation_30_objects_occ0.7_0.9s/images/train/n04405907_8/n04405907_5/img_stylized_tv_samsung_40_uhd_smart_tv_2011_2002-3_gray.png,foreground,same as foreground,n04405907_8,n04405907_5,Stimuli/canonical view 2/img_n04405907_8_gray.jpg,Stimuli/canonical view 2/img_n04405907_5_gray.jpg,foreground,left,Experiments/experiment_25/36.jpg,Experiments/experiment_25/37.jpg,Experiments/experiment_25/38.jpg,Experiments/experiment_25/39.jpg,,,left,"[""left""]",[0.7637999999523117],False,,0.0,0.0,9.0,9.0,9.0,1.0,,,,,,
,,,,,,,,,,,,,,,,,,,,,,,,,,201,1,2023-09-17_12h03.48.550,Occlusion_Psychophysics,2022.1.4,Win32,60.0024001,,,0.05,,,,,,,,,,Stimuli/psy_flexible_rotation_30_objects_occ0.7_0.9s/images/train/n04256520_4/n02883344_-1/img_club_house_italia_nautilus_sofa_woven_box_2010_gray.jpg,n04256520_4,n02883344_-1,flexible,0.755131,n04256520_4,Stimuli/psy_fixed_rotation_30_objects_occ0.7_0.9s/images/train/n03001627_9/n04256520_4/img_chair_eames_plastic_armchair_club_house_italia_nautilus_sofa_2011-3_gray.png,random,fixed,n04256520_4,n04405907_9,Stimuli/canonical view 2/img_n04256520_4_gray.jpg,Stimuli/canonical view 2/img_n04405907_9_gray.jpg,random,right,Experiments/experiment_25/40.jpg,Experiments/experiment_25/41.jpg,Experiments/experiment_25/42.jpg,Experiments/experiment_25/43.jpg,,,left,"[""left""]",[1.1548000000119032],False,,0.0,0.0,10.0,10.0,10.0,1.0,,,,,,
,,,,,,,,,,,,,,,,,,,,,,,,,,201,1,2023-09-17_12h03.48.550,Occlusion_Psychophysics,2022.1.4,Win32,60.0024001,,,0.05,,,,,,,,,,Stimuli/psy_flexible_rotation_30_objects_occ0.7_0.9s/images/train/n02818832_0/n04405907_9/img_b03_the_sofa_and_chair_company_-_stanley_bed_2014_vray_004_2014_gray.jpg,n02818832_0,n04405907_9,flexible,0.717949,n02818832_3,Stimuli/psy_fixed_rotation_30_objects_occ0.7_0.9s/images/train/n02883344_-1/n02818832_3/img_woven_box_b05_ccm_contemporary_bed_max2013_2011-3_gray.png,random,fixed,n02818832_0,n02883344_-1,Stimuli/canonical view 2/img_n02818832_0_gray.jpg,Stimuli/canonical view 2/img_n02883344_-1_gray.jpg,random,right,Experiments/experiment_25/44.jpg,Experiments/experiment_25/45.jpg,Experiments/experiment_25/46.jpg,Experiments/experiment_25/47.jpg,,,right,"[""right""]",[0.6813000000119587],True,left,1.0,0.0,11.0,11.0,11.0,1.0,0.937,,,,,
,,,,,,,,,,,,,,,,,,,,,,,,,,201,1,2023-09-17_12h03.48.550,Occlusion_Psychophysics,2022.1.4,Win32,60.0024001,,,0.025,,,,,,,,,,Stimuli/psy_flexible_rotation_30_objects_occ0.7_0.9s/images/train/n02818832_0/n04405907_9/img_b03_the_sofa_and_chair_company_-_stanley_bed_2014_vray_004_2005_gray.jpg,n02818832_0,n04405907_9,flexible,0.838316,n04405907_9,Stimuli/psy_flexible_rotation_30_objects_occ0.7_0.9s/images/train/n02818832_0/n04405907_9/img_b03_the_sofa_and_chair_company_-_stanley_bed_2014_vray_004_2005-3_gray.png,foreground,same as foreground,n02818832_0,n04405907_9,Stimuli/canonical view 2/img_n02818832_0_gray.jpg,Stimuli/canonical view 2/img_n04405907_9_gray.jpg,foreground,left,Experiments/experiment_25/48.jpg,Experiments/experiment_25/49.jpg,Experiments/experiment_25/50.jpg,Experiments/experiment_25/51.jpg,,,right,"[""left""]",[1.2141000000238478],False,,0.0,0.0,12.0,12.0,12.0,1.0,,,,,,
,,,,,,,,,,,,,,,,,,,,,,,,,,201,1,2023-09-17_12h03.48.550,Occlusion_Psychophysics,2022.1.4,Win32,60.0024001,,,0.05,,,,,,,,,,Stimuli/psy_flexible_rotation_30_objects_occ0.7_0.9s/images/train/n04379243_8/n02933112_-2/img_glass_table_sink_base_white_wood_2013_gray.jpg,n04379243_8,n02933112_-2,flexible,0.738069,n02933112_-2,Stimuli/psy_flexible_rotation_30_objects_occ0.7_0.9s/images/train/n04379243_8/n02933112_-2/img_glass_table_sink_base_white_wood_2013-3_gray.png,foreground,same as foreground,n04379243_8,n02933112_-2,Stimuli/canonical view 2/img_n04379243_8_gray.jpg,Stimuli/canonical view 2/img_n02933112_-2_gray.jpg,foreground,right,Experiments/experiment_25/52.jpg,Experiments/experiment_25/53.jpg,Experiments/experiment_25/54.jpg,Experiments/experiment_25/55.jpg,,,left,"[""right""]",[0.8346999999881177],False,,0.0,0.0,13.0,13.0,13.0,1.0,,,,,,
,,,,,,,,,,,,,,,,,,,,,,,,,,201,1,2023-09-17_12h03.48.550,Occlusion_Psychophysics,2022.1.4,Win32,60.0024001,,,0.05,,,,,,,,,,Stimuli/psy_flexible_rotation_30_objects_occ0.7_0.9s/images/train/n03001627_8/n02933112_-2/img_chair_billiani_doll_sink_base_white_wood_2010_gray.jpg,n03001627_8,n02933112_-2,flexible,0.710752,n02883344_15,Stimuli/psy_flexible_rotation_30_objects_occ0.7_0.9s/images/train/n04405907_9/n02883344_15/img_vray_004_microwave_box_2015-3_gray.png,random,flexible,n03001627_8,n02933112_-18,Stimuli/canonical view 2/img_n03001627_8_gray.jpg,Stimuli/canonical view 2/img_n02933112_-18_gray.jpg,random,right,Experiments/experiment_25/56.jpg,Experiments/experiment_25/57.jpg,Experiments/experiment_25/58.jpg,Experiments/experiment_25/59.jpg,,,left,"[""left""]",[1.0621000000237473],False,,0.0,0.0,14.0,14.0,14.0,1.0,,,,,,
,,,,,,,,,,,,,,,,,,,,,,,,,,201,1,2023-09-17_12h03.48.550,Occlusion_Psychophysics,2022.1.4,Win32,60.0024001,,,0.025,,,,,,,,,,Stimuli/psy_fixed_rotation_30_objects_occ0.7_0.9s/images/train/n04256520_9/n04405907_9/img_napoleon_iii_sofa_vray_004_2008_gray.jpg,n04256520_9,n04405907_9,fixed,0.716079,n02883344_0,Stimuli/psy_flexible_rotation_30_objects_occ0.7_0.9s/images/train/n02933112_4/n02883344_0/img_buffet_b03_box_2003-3_gray.png,random,flexible,n04256520_9,n02883344_15,Stimuli/canonical view 2/img_n04256520_9_gray.jpg,Stimuli/canonical view 2/img_n02883344_15_gray.jpg,random,left,Experiments/experiment_25/60.jpg,Experiments/experiment_25/61.jpg,Experiments/experiment_25/62.jpg,Experiments/experiment_25/63.jpg,,,left,"[""left""]",[0.73680000001184],False,,0.0,0.0,15.0,15.0,15.0,1.0,,,,,,
,,,,,,,,,,,,,,,,,,,,,,,,,,201,1,2023-09-17_12h03.48.550,Occlusion_Psychophysics,2022.1.4,Win32,60.0024001,,,0.025,,,,,,,,,,Stimuli/psy_fixed_rotation_30_objects_occ0.7_0.9s/images/train/n02933112_-18/n03001627_8/img_cgaxis_models_48_26_vray_composite_chair_billiani_doll_2010_gray.jpg,n02933112_-18,n03001627_8,fixed,0.719836,n03001627_8,Stimuli/psy_fixed_rotation_30_objects_occ0.7_0.9s/images/train/n02933112_-18/n03001627_8/img_cgaxis_models_48_26_vray_composite_chair_billiani_doll_2010-3_gray.png,foreground,same as foreground,n02933112_-18,n03001627_8,Stimuli/canonical view 2/img_n02933112_-18_gray.jpg,Stimuli/canonical view 2/img_n03001627_8_gray.jpg,foreground,left,Experiments/experiment_25/64.jpg,Experiments/experiment_25/65.jpg,Experiments/experiment_25/66.jpg,Experiments/experiment_25/67.jpg,,,right,"[""left""]",[0.6319999999999482],False,,0.0,0.0,16.0,16.0,16.0,1.0,,,,,,
,,,,,,,,,,,,,,,,,,,,,,,,,,201,1,2023-09-17_12h03.48.550,Occlusion_Psychophysics,2022.1.4,Win32,60.0024001,,,0.025,,,,,,,,,,Stimuli/psy_fixed_rotation_30_objects_occ0.7_0.9s/images/train/n03928116_0/n04256520_5/img_b02_piano_meridiani_belmondo_bench_sofa_2006_gray.jpg,n03928116_0,n04256520_5,fixed,0.705537,n04256520_5,Stimuli/psy_fixed_rotation_30_objects_occ0.7_0.9s/images/train/n03928116_0/n04256520_5/img_b02_piano_meridiani_belmondo_bench_sofa_2006-3_gray.png,foreground,same as foreground,n03928116_0,n04405907_9,Stimuli/canonical view 2/img_n03928116_0_gray.jpg,Stimuli/canonical view 2/img_n04405907_9_gray.jpg,random,left,Experiments/experiment_25/68.jpg,Experiments/experiment_25/69.jpg,Experiments/experiment_25/70.jpg,Experiments/experiment_25/71.jpg,,,right,"[""right""]",[1.3321000000238428],False,,0.0,0.0,17.0,17.0,17.0,1.0,,,,,,
,,,,,,,,,,,,,,,,,,,,,,,,,,201,1,2023-09-17_12h03.48.550,Occlusion_Psychophysics,2022.1.4,Win32,60.0024001,,,0.025,,,,,,,,,,Stimuli/psy_flexible_rotation_30_objects_occ0.7_0.9s/images/train/n02883344_0/n04256520_4/img_b03_box_club_house_italia_nautilus_sofa_2001_gray.jpg,n02883344_0,n04256520_4,flexible,0.760688,n02883344_0,Stimuli/psy_fixed_rotation_30_objects_occ0.7_0.9s/images/train/n03928116_10/n02883344_0/img_ydp_103_r_2012__vray_b03_box_2012-3_gray.png,random,fixed,n02883344_0,n04256520_4,Stimuli/canonical view 2/img_n02883344_0_gray.jpg,Stimuli/canonical view 2/img_n04256520_4_gray.jpg,foreground,left,Experiments/experiment_25/72.jpg,Experiments/experiment_25/73.jpg,Experiments/experiment_25/74.jpg,Experiments/experiment_25/75.jpg,,,right,"[""left""]",[1.187899999976139],False,,0.0,0.0,18.0,18.0,18.0,1.0,,,,,,
,,,,,,,,,,,,,,,,,,,,,,,,,,201,1,2023-09-17_12h03.48.550,Occlusion_Psychophysics,2022.1.4,Win32,60.0024001,,,0.025,,,,,,,,,,Stimuli/psy_flexible_rotation_30_objects_occ0.7_0.9s/images/train/n02818832_9/n02883344_0/img_bed01_blue_b03_box_2004_gray.jpg,n02818832_9,n02883344_0,flexible,0.738952,n02933112_-18,Stimuli/psy_fixed_rotation_30_objects_occ0.7_0.9s/images/train/n02883344_-1/n02933112_-18/img_woven_box_cgaxis_models_48_26_vray_composite_2013-3_gray.png,random,fixed,n02818832_9,n02883344_0,Stimuli/canonical view 2/img_n02818832_9_gray.jpg,Stimuli/canonical view 2/img_n02883344_0_gray.jpg,foreground,right,Experiments/experiment_25/76.jpg,Experiments/experiment_25/77.jpg,Experiments/experiment_25/78.jpg,Experiments/experiment_25/79.jpg,,,left,"[""right""]",[0.681400000035751],False,,0.0,0.0,19.0,19.0,19.0,1.0,,,,,,
,,,,,,,,,,,,,,,,,,,,,,,,,,201,1,2023-09-17_12h03.48.550,Occlusion_Psychophysics,2022.1.4,Win32,60.0024001,,,0.05,,,,,,,,,,Stimuli/psy_flexible_rotation_30_objects_occ0.7_0.9s/images/train/n02828884_4/n04405907_8/img_b05_c-5_classic_series_bench-2012_stylized_tv_2010_gray.jpg,n02828884_4,n04405907_8,flexible,0.716842,n04405907_8,Stimuli/psy_flexible_rotation_30_objects_occ0.7_0.9s/images/train/n02828884_4/n04405907_8/img_b05_c-5_classic_series_bench-2012_stylized_tv_2010-3_gray.png,foreground,same as foreground,n02828884_4,n04379243_0,Stimuli/canonical view 2/img_n02828884_4_gray.jpg,Stimuli/canonical view 2/img_n04379243_0_gray.jpg,random,right,Experiments/experiment_25/80.jpg,Experiments/experiment_25/81.jpg,Experiments/experiment_25/82.jpg,Experiments/experiment_25/83.jpg,,,right,"[""left""]",[0.7071000000238428],False,,0.0,0.0,20.0,20.0,20.0,1.0,,,,,,
,,,,,,,,,,,,,,,,,,,,,,,,,,201,1,2023-09-17_12h03.48.550,Occlusion_Psychophysics,2022.1.4,Win32,60.0024001,,,0.05,,,,,,,,,,Stimuli/psy_fixed_rotation_30_objects_occ0.7_0.9s/images/train/n04405907_9/n02818832_3/img_vray_004_b05_ccm_contemporary_bed_max2013_2010_gray.jpg,n04405907_9,n02818832_3,fixed,0.720893,n02818832_3,Stimuli/psy_fixed_rotation_30_objects_occ0.7_0.9s/images/train/n04405907_9/n02818832_3/img_vray_004_b05_ccm_contemporary_bed_max2013_2010-3_gray.png,foreground,same as foreground,n04405907_9,n02818832_3,Stimuli/canonical view 2/img_n04405907_9_gray.jpg,Stimuli/canonical view 2/img_n02818832_3_gray.jpg,foreground,right,Experiments/experiment_25/84.jpg,Experiments/experiment_25/85.jpg,Experiments/experiment_25/86.jpg,Experiments/experiment_25/87.jpg,,,left,"[""left""]",[0.7954999999999472],False,,0.0,0.0,21.0,21.0,21.0,1.0,,,,,,
,,,,,,,,,,,,,,,,,,,,,,,,,,201,1,2023-09-17_12h03.48.550,Occlusion_Psychophysics,2022.1.4,Win32,60.0024001,,,0.05,,,,,,,,,,Stimuli/psy_fixed_rotation_30_objects_occ0.7_0.9s/images/train/n04256520_5/n02883344_15/img_meridiani_belmondo_bench_sofa_microwave_box_2015_gray.jpg,n04256520_5,n02883344_15,fixed,0.794334,n04405907_9,Stimuli/psy_flexible_rotation_30_objects_occ0.7_0.9s/images/train/n03928116_0/n04405907_9/img_b02_piano_vray_004_2014-3_gray.png,random,flexible,n04256520_5,n04379243_8,Stimuli/canonical view 2/img_n04256520_5_gray.jpg,Stimuli/canonical view 2/img_n04379243_8_gray.jpg,random,left,Experiments/experiment_25/88.jpg,Experiments/experiment_25/89.jpg,Experiments/experiment_25/90.jpg,Experiments/experiment_25/91.jpg,,,right,"[""right""]",[0.5933000000119364],False,,0.0,0.0,22.0,22.0,22.0,1.0,,,,,,
,,,,,,,,,,,,,,,,,,,,,,,,,,201,1,2023-09-17_12h03.48.550,Occlusion_Psychophysics,2022.1.4,Win32,60.0024001,,,0.05,,,,,,,,,,Stimuli/psy_flexible_rotation_30_objects_occ0.7_0.9s/images/train/n02818832_9/n02933112_-18/img_bed01_blue_cgaxis_models_48_26_vray_composite_2009_gray.jpg,n02818832_9,n02933112_-18,flexible,0.759926,n02933112_-18,Stimuli/psy_flexible_rotation_30_objects_occ0.7_0.9s/images/train/n02818832_9/n02933112_-18/img_bed01_blue_cgaxis_models_48_26_vray_composite_2009-3_gray.png,foreground,same as foreground,n02818832_9,n02933112_-2,Stimuli/canonical view 2/img_n02818832_9_gray.jpg,Stimuli/canonical view 2/img_n02933112_-2_gray.jpg,random,right,Experiments/experiment_25/92.jpg,Experiments/experiment_25/93.jpg,Experiments/experiment_25/94.jpg,Experiments/experiment_25/95.jpg,,,left,"[""left""]",[0.7512000000476746],False,,0.0,0.0,23.0,23.0,23.0,1.0,,,,,,
,,,,,,,,,,,,,,,,,,,,,,,,,,201,1,2023-09-17_12h03.48.550,Occlusion_Psychophysics,2022.1.4,Win32,60.0024001,,,0.025,,,,,,,,,,Stimuli/psy_flexible_rotation_30_objects_occ0.7_0.9s/images/train/n02828884_4/n02883344_-1/img_b05_c-5_classic_series_bench-2012_woven_box_2014_gray.jpg,n02828884_4,n02883344_-1,flexible,0.789708,n04379243_8,Stimuli/psy_flexible_rotation_30_objects_occ0.7_0.9s/images/train/n04256520_5/n04379243_8/img_meridiani_belmondo_bench_sofa_glass_table_2006-3_gray.png,random,flexible,n02828884_4,n02883344_-1,Stimuli/canonical view 2/img_n02828884_4_gray.jpg,Stimuli/canonical view 2/img_n02883344_-1_gray.jpg,foreground,right,Experiments/experiment_25/96.jpg,Experiments/experiment_25/97.jpg,Experiments/experiment_25/98.jpg,Experiments/experiment_25/99.jpg,,,left,"[""left""]",[1.1575000000000273],False,,0.0,0.0,24.0,24.0,24.0,1.0,,,,,,
,,,,,,,,,,,,,,,,,,,,,,,,,,201,1,2023-09-17_12h03.48.550,Occlusion_Psychophysics,2022.1.4,Win32,60.0024001,,,0.05,,,,,,,,,,Stimuli/psy_fixed_rotation_30_objects_occ0.7_0.9s/images/train/n02933112_-2/n04405907_8/img_sink_base_white_wood_stylized_tv_2003_gray.jpg,n02933112_-2,n04405907_8,fixed,0.80783,n04405907_8,Stimuli/psy_fixed_rotation_30_objects_occ0.7_0.9s/images/train/n02933112_-2/n04405907_8/img_sink_base_white_wood_stylized_tv_2003-3_gray.png,foreground,same as foreground,n02933112_-2,n04405907_8,Stimuli/canonical view 2/img_n02933112_-2_gray.jpg,Stimuli/canonical view 2/img_n04405907_8_gray.jpg,foreground,right,Experiments/experiment_25/100.jpg,Experiments/experiment_25/101.jpg,Experiments/experiment_25/102.jpg,Experiments/experiment_25/103.jpg,,,right,"[""right""]",[0.6360999999642445],False,,0.0,0.0,25.0,25.0,25.0,1.0,,,,,,
,,,,,,,,,,,,,,,,,,,,,,,,,,201,1,2023-09-17_12h03.48.550,Occlusion_Psychophysics,2022.1.4,Win32,60.0024001,,,0.025,,,,,,,,,,Stimuli/psy_fixed_rotation_30_objects_occ0.7_0.9s/images/train/n02828884_3/n02818832_0/img_b04_wood_metal_park_bench_b03_the_sofa_and_chair_company_-_stanley_bed_2014_2000_gray.jpg,n02828884_3,n02818832_0,fixed,0.703305,n02818832_0,Stimuli/psy_fixed_rotation_30_objects_occ0.7_0.9s/images/train/n02828884_3/n02818832_0/img_b04_wood_metal_park_bench_b03_the_sofa_and_chair_company_-_stanley_bed_2014_2000-3_gray.png,foreground,same as foreground,n02828884_3,n03001627_8,Stimuli/canonical view 2/img_n02828884_3_gray.jpg,Stimuli/canonical view 2/img_n03001627_8_gray.jpg,random,right,Experiments/experiment_25/104.jpg,Experiments/experiment_25/105.jpg,Experiments/experiment_25/106.jpg,Experiments/experiment_25/107.jpg,,,right,"[""right""]",[0.8233000000119546],False,,0.0,0.0,26.0,26.0,26.0,1.0,,,,,,
,,,,,,,,,,,,,,,,,,,,,,,,,,201,1,2023-09-17_12h03.48.550,Occlusion_Psychophysics,2022.1.4,Win32,60.0024001,,,0.025,,,,,,,,,,Stimuli/psy_fixed_rotation_30_objects_occ0.7_0.9s/images/train/n02933112_-2/n02818832_3/img_sink_base_white_wood_b05_ccm_contemporary_bed_max2013_2000_gray.jpg,n02933112_-2,n02818832_3,fixed,0.771726,n02818832_3,Stimuli/psy_fixed_rotation_30_objects_occ0.7_0.9s/images/train/n02933112_-2/n02818832_3/img_sink_base_white_wood_b05_ccm_contemporary_bed_max2013_2000-3_gray.png,foreground,same as foreground,n02933112_-2,n04379243_8,Stimuli/canonical view 2/img_n02933112_-2_gray.jpg,Stimuli/canonical view 2/img_n04379243_8_gray.jpg,random,right,Experiments/experiment_25/108.jpg,Experiments/experiment_25/109.jpg,Experiments/experiment_25/110.jpg,Experiments/experiment_25/111.jpg,,,right,"[""right""]",[0.7010000000000218],False,,0.0,0.0,27.0,27.0,27.0,1.0,,,,,,
,,,,,,,,,,,,,,,,,,,,,,,,,,201,1,2023-09-17_12h03.48.550,Occlusion_Psychophysics,2022.1.4,Win32,60.0024001,,,0.05,,,,,,,,,,Stimuli/psy_flexible_rotation_30_objects_occ0.7_0.9s/images/train/n02818832_0/n02818832_9/img_b03_the_sofa_and_chair_company_-_stanley_bed_2014_bed01_blue_2014_gray.jpg,n02818832_0,n02818832_9,flexible,0.845482,n04379243_-7,Stimuli/psy_fixed_rotation_30_objects_occ0.7_0.9s/images/train/n04256520_9/n04379243_-7/img_napoleon_iii_sofa_quatre_dining_table_2008-3_gray.png,random,fixed,n02818832_0,n02818832_9,Stimuli/canonical view 2/img_n02818832_0_gray.jpg,Stimuli/canonical view 2/img_n02818832_9_gray.jpg,foreground,right,Experiments/experiment_25/112.jpg,Experiments/experiment_25/113.jpg,Experiments/experiment_25/114.jpg,Experiments/experiment_25/115.jpg,,,left,"[""right""]",[0.9800000000000182],False,,0.0,0.0,28.0,28.0,28.0,1.0,,,,,,
,,,,,,,,,,,,,,,,,,,,,,,,,,201,1,2023-09-17_12h03.48.550,Occlusion_Psychophysics,2022.1.4,Win32,60.0024001,,,0.05,,,,,,,,,,Stimuli/psy_flexible_rotation_30_objects_occ0.7_0.9s/images/train/n04405907_9/n04256520_4/img_vray_004_club_house_italia_nautilus_sofa_2002_gray.jpg,n04405907_9,n04256520_4,flexible,0.74721,n04256520_4,Stimuli/psy_flexible_rotation_30_objects_occ0.7_0.9s/images/train/n04405907_9/n04256520_4/img_vray_004_club_house_italia_nautilus_sofa_2002-3_gray.png,foreground,same as foreground,n04405907_9,n02818832_0,Stimuli/canonical view 2/img_n04405907_9_gray.jpg,Stimuli/canonical view 2/img_n02818832_0_gray.jpg,random,right,Experiments/experiment_25/116.jpg,Experiments/experiment_25/117.jpg,Experiments/experiment_25/118.jpg,Experiments/experiment_25/119.jpg,,,right,"[""right""]",[0.8344999999999345],False,,0.0,0.0,29.0,29.0,29.0,1.0,,,,,,
,,,,,,,,,,,,,,,,,,,,,,,,,,201,1,2023-09-17_12h03.48.550,Occlusion_Psychophysics,2022.1.4,Win32,60.0024001,,,0.025,,,,,,,,,,Stimuli/psy_flexible_rotation_30_objects_occ0.7_0.9s/images/train/n02828884_4/n02883344_-1/img_b05_c-5_classic_series_bench-2012_woven_box_2006_gray.jpg,n02828884_4,n02883344_-1,flexible,0.744169,n02883344_-1,Stimuli/psy_flexible_rotation_30_objects_occ0.7_0.9s/images/train/n02828884_4/n02883344_-1/img_b05_c-5_classic_series_bench-2012_woven_box_2006-3_gray.png,foreground,same as foreground,n02828884_4,n02883344_-1,Stimuli/canonical view 2/img_n02828884_4_gray.jpg,Stimuli/canonical view 2/img_n02883344_-1_gray.jpg,foreground,left,Experiments/experiment_25/120.jpg,Experiments/experiment_25/121.jpg,Experiments/experiment_25/122.jpg,Experiments/experiment_25/123.jpg,,,left,"[""left""]",[0.8214000000357373],False,,0.0,0.0,30.0,30.0,30.0,1.0,,,,,,
,,,,,,,,,,,,,,,,,,,,,,,,,,201,1,2023-09-17_12h03.48.550,Occlusion_Psychophysics,2022.1.4,Win32,60.0024001,,,0.05,,,,,,,,,,Stimuli/psy_fixed_rotation_30_objects_occ0.7_0.9s/images/train/n03928116_10/n04256520_4/img_ydp_103_r_2012__vray_club_house_italia_nautilus_sofa_2006_gray.jpg,n03928116_10,n04256520_4,fixed,0.890439,n04256520_4,Stimuli/psy_fixed_rotation_30_objects_occ0.7_0.9s/images/train/n03928116_10/n04256520_4/img_ydp_103_r_2012__vray_club_house_italia_nautilus_sofa_2006-3_gray.png,foreground,same as foreground,n03928116_10,n04256520_4,Stimuli/canonical view 2/img_n03928116_10_gray.jpg,Stimuli/canonical view 2/img_n04256520_4_gray.jpg,foreground,right,Experiments/experiment_25/124.jpg,Experiments/experiment_25/125.jpg,Experiments/experiment_25/126.jpg,Experiments/experiment_25/127.jpg,,,left,"[""right""]",[0.5854999999999109],False,,0.0,0.0,31.0,31.0,31.0,1.0,,,,,,
,,,,,,,,,,,,,,,,,,,,,,,,,,201,1,2023-09-17_12h03.48.550,Occlusion_Psychophysics,2022.1.4,Win32,60.0024001,,,0.05,,,,,,,,,,Stimuli/psy_flexible_rotation_30_objects_occ0.7_0.9s/images/train/n02933112_-18/n02818832_9/img_cgaxis_models_48_26_vray_composite_bed01_blue_2010_gray.jpg,n02933112_-18,n02818832_9,flexible,0.84007,n04405907_5,Stimuli/psy_flexible_rotation_30_objects_occ0.7_0.9s/images/train/n02883344_-1/n04405907_5/img_woven_box_samsung_40_uhd_smart_tv_2011_2008-3_gray.png,random,flexible,n02933112_-18,n02828884_9,Stimuli/canonical view 2/img_n02933112_-18_gray.jpg,Stimuli/canonical view 2/img_n02828884_9_gray.jpg,random,right,Experiments/experiment_25/128.jpg,Experiments/experiment_25/129.jpg,Experiments/experiment_25/130.jpg,Experiments/experiment_25/131.jpg,,,left,"[""right""]",[0.6948000000119237],False,,0.0,0.0,32.0,32.0,32.0,1.0,,,,,,
,,,,,,,,,,,,,,,,,,,,,,,,,,201,1,2023-09-17_12h03.48.550,Occlusion_Psychophysics,2022.1.4,Win32,60.0024001,,,0.05,,,,,,,,,,Stimuli/psy_fixed_rotation_30_objects_occ0.7_0.9s/images/train/n04379243_-7/n02818832_0/img_quatre_dining_table_b03_the_sofa_and_chair_company_-_stanley_bed_2014_2011_gray.jpg,n04379243_-7,n02818832_0,fixed,0.756039,n02933112_-2,Stimuli/psy_flexible_rotation_30_objects_occ0.7_0.9s/images/train/n03001627_-2/n02933112_-2/img_wood_chair_sink_base_white_wood_2009-3_gray.png,random,flexible,n04379243_-7,n02818832_0,Stimuli/canonical view 2/img_n04379243_-7_gray.jpg,Stimuli/canonical view 2/img_n02818832_0_gray.jpg,foreground,right,Experiments/experiment_25/132.jpg,Experiments/experiment_25/133.jpg,Experiments/experiment_25/134.jpg,Experiments/experiment_25/135.jpg,,,right,"[""right""]",[0.6078999999762118],False,,0.0,0.0,33.0,33.0,33.0,1.0,,,,,,
,,,,,,,,,,,,,,,,,,,,,,,,,,201,1,2023-09-17_12h03.48.550,Occlusion_Psychophysics,2022.1.4,Win32,60.0024001,,,0.025,,,,,,,,,,Stimuli/psy_flexible_rotation_30_objects_occ0.7_0.9s/images/train/n02883344_-1/n04405907_8/img_woven_box_stylized_tv_2015_gray.jpg,n02883344_-1,n04405907_8,flexible,0.726933,n04405907_8,Stimuli/psy_flexible_rotation_30_objects_occ0.7_0.9s/images/train/n02883344_-1/n04405907_8/img_woven_box_stylized_tv_2015-3_gray.png,foreground,same as foreground,n02883344_-1,n04405907_8,Stimuli/canonical view 2/img_n02883344_-1_gray.jpg,Stimuli/canonical view 2/img_n04405907_8_gray.jpg,foreground,right,Experiments/experiment_25/136.jpg,Experiments/experiment_25/137.jpg,Experiments/experiment_25/138.jpg,Experiments/experiment_25/139.jpg,,,right,"[""right""]",[0.9567000000477037],False,,0.0,0.0,34.0,34.0,34.0,1.0,,,,,,
,,,,,,,,,,,,,,,,,,,,,,,,,,201,1,2023-09-17_12h03.48.550,Occlusion_Psychophysics,2022.1.4,Win32,60.0024001,,,0.05,,,,,,,,,,Stimuli/psy_flexible_rotation_30_objects_occ0.7_0.9s/images/train/n04256520_9/n04379243_0/img_napoleon_iii_sofa_17th_c._monastery_dining_table_2010_2011_gray.jpg,n04256520_9,n04379243_0,flexible,0.790077,n04405907_9,Stimuli/psy_flexible_rotation_30_objects_occ0.7_0.9s/images/train/n04405907_5/n04405907_9/img_samsung_40_uhd_smart_tv_2011_vray_004_2004-3_gray.png,random,flexible,n04256520_9,n04379243_0,Stimuli/canonical view 2/img_n04256520_9_gray.jpg,Stimuli/canonical view 2/img_n04379243_0_gray.jpg,foreground,left,Experiments/experiment_25/140.jpg,Experiments/experiment_25/141.jpg,Experiments/experiment_25/142.jpg,Experiments/experiment_25/143.jpg,,,right,"[""left""]",[0.8913000000119382],False,,0.0,0.0,35.0,35.0,35.0,1.0,,,,,,
,,,,,,,,,,,,,,,,,,,,,,,,,,201,1,2023-09-17_12h03.48.550,Occlusion_Psychophysics,2022.1.4,Win32,60.0024001,,,0.05,,,,,,,,,,Stimuli/psy_flexible_rotation_30_objects_occ0.7_0.9s/images/train/n02818832_0/n03001627_-2/img_b03_the_sofa_and_chair_company_-_stanley_bed_2014_wood_chair_2014_gray.jpg,n02818832_0,n03001627_-2,flexible,0.734974,n04405907_8,Stimuli/psy_flexible_rotation_30_objects_occ0.7_0.9s/images/train/n04256520_9/n04405907_8/img_napoleon_iii_sofa_stylized_tv_2010-3_gray.png,random,flexible,n02818832_0,n04405907_9,Stimuli/canonical view 2/img_n02818832_0_gray.jpg,Stimuli/canonical view 2/img_n04405907_9_gray.jpg,random,right,Experiments/experiment_25/144.jpg,Experiments/experiment_25/145.jpg,Experiments/experiment_25/146.jpg,Experiments/experiment_25/147.jpg,,,right,"[""right""]",[0.5405000000000655],True,right,1.0,0.0,36.0,36.0,36.0,1.0,0.882,,,,,
,,,,,,,,,,,,,,,,,,,,,,,,,,201,1,2023-09-17_12h03.48.550,Occlusion_Psychophysics,2022.1.4,Win32,60.0024001,,,0.05,,,,,,,,,,Stimuli/psy_fixed_rotation_30_objects_occ0.7_0.9s/images/train/n04256520_4/n04256520_5/img_club_house_italia_nautilus_sofa_meridiani_belmondo_bench_sofa_2010_gray.jpg,n04256520_4,n04256520_5,fixed,0.797266,n04379243_0,Stimuli/psy_fixed_rotation_30_objects_occ0.7_0.9s/images/train/n02828884_4/n04379243_0/img_b05_c-5_classic_series_bench-2012_17th_c._monastery_dining_table_2010_2002-3_gray.png,random,fixed,n04256520_4,n02883344_15,Stimuli/canonical view 2/img_n04256520_4_gray.jpg,Stimuli/canonical view 2/img_n02883344_15_gray.jpg,random,right,Experiments/experiment_25/148.jpg,Experiments/experiment_25/149.jpg,Experiments/experiment_25/150.jpg,Experiments/experiment_25/151.jpg,,,left,"[""left""]",[1.0646000000239155],False,,0.0,0.0,37.0,37.0,37.0,1.0,,,,,,
,,,,,,,,,,,,,,,,,,,,,,,,,,201,1,2023-09-17_12h03.48.550,Occlusion_Psychophysics,2022.1.4,Win32,60.0024001,,,0.025,,,,,,,,,,Stimuli/psy_fixed_rotation_30_objects_occ0.7_0.9s/images/train/n04256520_9/n03928116_4/img_napoleon_iii_sofa_dp_33_b_2013__vray_2007_gray.jpg,n04256520_9,n03928116_4,fixed,0.739255,n03928116_4,Stimuli/psy_fixed_rotation_30_objects_occ0.7_0.9s/images/train/n04256520_9/n03928116_4/img_napoleon_iii_sofa_dp_33_b_2013__vray_2007-3_gray.png,foreground,same as foreground,n04256520_9,n02883344_0,Stimuli/canonical view 2/img_n04256520_9_gray.jpg,Stimuli/canonical view 2/img_n02883344_0_gray.jpg,random,right,Experiments/experiment_25/152.jpg,Experiments/experiment_25/153.jpg,Experiments/experiment_25/154.jpg,Experiments/experiment_25/155.jpg,,,left,"[""left""]",[0.819399999976099],False,,0.0,0.0,38.0,38.0,38.0,1.0,,,,,,
,,,,,,,,,,,,,,,,,,,,,,,,,,201,1,2023-09-17_12h03.48.550,Occlusion_Psychophysics,2022.1.4,Win32,60.0024001,,,0.025,,,,,,,,,,Stimuli/psy_flexible_rotation_30_objects_occ0.7_0.9s/images/train/n04379243_-7/n04256520_4/img_quatre_dining_table_club_house_italia_nautilus_sofa_2000_gray.jpg,n04379243_-7,n04256520_4,flexible,0.719438,n04256520_4,Stimuli/psy_flexible_rotation_30_objects_occ0.7_0.9s/images/train/n04379243_-7/n04256520_4/img_quatre_dining_table_club_house_italia_nautilus_sofa_2000-3_gray.png,foreground,same as foreground,n04379243_-7,n04256520_4,Stimuli/canonical view 2/img_n04379243_-7_gray.jpg,Stimuli/canonical view 2/img_n04256520_4_gray.jpg,foreground,left,Experiments/experiment_25/156.jpg,Experiments/experiment_25/157.jpg,Experiments/experiment_25/158.jpg,Experiments/experiment_25/159.jpg,,,left,"[""right""]",[0.7751000000238264],False,,0.0,0.0,39.0,39.0,39.0,1.0,,,,,,
,,,,,,,,,,,,,,,,,,,,,,,,,,201,1,2023-09-17_12h03.48.550,Occlusion_Psychophysics,2022.1.4,Win32,60.0024001,,,0.025,,,,,,,,,,Stimuli/psy_fixed_rotation_30_objects_occ0.7_0.9s/images/train/n02933112_-18/n02818832_3/img_cgaxis_models_48_26_vray_composite_b05_ccm_contemporary_bed_max2013_2001_gray.jpg,n02933112_-18,n02818832_3,fixed,0.869519,n04405907_5,Stimuli/psy_flexible_rotation_30_objects_occ0.7_0.9s/images/train/n04405907_5/n04405907_5/img_samsung_40_uhd_smart_tv_2011_samsung_40_uhd_smart_tv_2011_2009-3_gray.png,random,flexible,n02933112_-18,n02883344_15,Stimuli/canonical view 2/img_n02933112_-18_gray.jpg,Stimuli/canonical view 2/img_n02883344_15_gray.jpg,random,right,Experiments/experiment_25/160.jpg,Experiments/experiment_25/161.jpg,Experiments/experiment_25/162.jpg,Experiments/experiment_25/163.jpg,,,right,"[""right""]",[0.5573000000119919],False,,0.0,0.0,40.0,40.0,40.0,1.0,,,,,,
,,,,,,,,,,,,,,,,,,,,,,,,,,201,1,2023-09-17_12h03.48.550,Occlusion_Psychophysics,2022.1.4,Win32,60.0024001,,,0.05,,,,,,,,,,Stimuli/psy_flexible_rotation_30_objects_occ0.7_0.9s/images/train/n04256520_4/n02883344_-1/img_club_house_italia_nautilus_sofa_woven_box_2010_gray.jpg,n04256520_4,n02883344_-1,flexible,0.755131,n02883344_-1,Stimuli/psy_flexible_rotation_30_objects_occ0.7_0.9s/images/train/n04256520_4/n02883344_-1/img_club_house_italia_nautilus_sofa_woven_box_2010-3_gray.png,foreground,same as foreground,n04256520_4,n02883344_-1,Stimuli/canonical view 2/img_n04256520_4_gray.jpg,Stimuli/canonical view 2/img_n02883344_-1_gray.jpg,foreground,left,Experiments/experiment_25/164.jpg,Experiments/experiment_25/165.jpg,Experiments/experiment_25/166.jpg,Experiments/experiment_25/167.jpg,,,right,"[""left""]",[1.3399999999999181],False,,0.0,0.0,41.0,41.0,41.0,1.0,,,,,,
,,,,,,,,,,,,,,,,,,,,,,,,,,201,1,2023-09-17_12h03.48.550,Occlusion_Psychophysics,2022.1.4,Win32,60.0024001,,,0.025,,,,,,,,,,Stimuli/psy_flexible_rotation_30_objects_occ0.7_0.9s/images/train/n02883344_0/n02828884_9/img_b03_box_cr-96_bench_2006_gray.jpg,n02883344_0,n02828884_9,flexible,0.709756,n03001627_-2,Stimuli/psy_fixed_rotation_30_objects_occ0.7_0.9s/images/train/n03001627_-2/n03001627_-2/img_wood_chair_wood_chair_2001-3_gray.png,random,fixed,n02883344_0,n02828884_9,Stimuli/canonical view 2/img_n02883344_0_gray.jpg,Stimuli/canonical view 2/img_n02828884_9_gray.jpg,foreground,right,Experiments/experiment_25/168.jpg,Experiments/experiment_25/169.jpg,Experiments/experiment_25/170.jpg,Experiments/experiment_25/171.jpg,,,left,"[""left""]",[1.0033000000119046],False,,0.0,0.0,42.0,42.0,42.0,1.0,,,,,,
,,,,,,,,,,,,,,,,,,,,,,,,,,201,1,2023-09-17_12h03.48.550,Occlusion_Psychophysics,2022.1.4,Win32,60.0024001,,,0.025,,,,,,,,,,Stimuli/psy_flexible_rotation_30_objects_occ0.7_0.9s/images/train/n03001627_9/n02933112_4/img_chair_eames_plastic_armchair_buffet_2002_gray.jpg,n03001627_9,n02933112_4,flexible,0.862389,n02818832_0,Stimuli/psy_flexible_rotation_30_objects_occ0.7_0.9s/images/train/n04070727_5/n02818832_0/img_b05_db_apps_tech_06_13_composite_b03_the_sofa_and_chair_company_-_stanley_bed_2014_2009-3_gray.png,random,flexible,n03001627_9,n03928116_4,Stimuli/canonical view 2/img_n03001627_9_gray.jpg,Stimuli/canonical view 2/img_n03928116_4_gray.jpg,random,left,Experiments/experiment_25/172.jpg,Experiments/experiment_25/173.jpg,Experiments/experiment_25/174.jpg,Experiments/experiment_25/175.jpg,,,left,"[""right""]",[0.5845000000000482],False,,0.0,0.0,43.0,43.0,43.0,1.0,,,,,,
,,,,,,,,,,,,,,,,,,,,,,,,,,201,1,2023-09-17_12h03.48.550,Occlusion_Psychophysics,2022.1.4,Win32,60.0024001,,,0.025,,,,,,,,,,Stimuli/psy_fixed_rotation_30_objects_occ0.7_0.9s/images/train/n03001627_9/n02933112_-18/img_chair_eames_plastic_armchair_cgaxis_models_48_26_vray_composite_2013_gray.jpg,n03001627_9,n02933112_-18,fixed,0.814201,n02933112_-18,Stimuli/psy_fixed_rotation_30_objects_occ0.7_0.9s/images/train/n03001627_9/n02933112_-18/img_chair_eames_plastic_armchair_cgaxis_models_48_26_vray_composite_2013-3_gray.png,foreground,same as foreground,n03001627_9,n04379243_8,Stimuli/canonical view 2/img_n03001627_9_gray.jpg,Stimuli/canonical view 2/img_n04379243_8_gray.jpg,random,right,Experiments/experiment_25/176.jpg,Experiments/experiment_25/177.jpg,Experiments/experiment_25/178.jpg,Experiments/experiment_25/179.jpg,,,right,"[""left""]",[1.0611999999881618],False,,0.0,0.0,44.0,44.0,44.0,1.0,,,,,,
,,,,,,,,,,,,,,,,,,,,,,,,,,201,1,2023-09-17_12h03.48.550,Occlusion_Psychophysics,2022.1.4,Win32,60.0024001,,,0.025,,,,,,,,,,Stimuli/psy_fixed_rotation_30_objects_occ0.7_0.9s/images/train/n04379243_8/n02883344_0/img_glass_table_b03_box_2003_gray.jpg,n04379243_8,n02883344_0,fixed,0.733523,n04405907_9,Stimuli/psy_flexible_rotation_30_objects_occ0.7_0.9s/images/train/n04405907_5/n04405907_9/img_samsung_40_uhd_smart_tv_2011_vray_004_2015-3_gray.png,random,flexible,n04379243_8,n03928116_4,Stimuli/canonical view 2/img_n04379243_8_gray.jpg,Stimuli/canonical view 2/img_n03928116_4_gray.jpg,random,right,Experiments/experiment_25/180.jpg,Experiments/experiment_25/181.jpg,Experiments/experiment_25/182.jpg,Experiments/experiment_25/183.jpg,,,left,"[""left""]",[0.7200000000000273],False,,0.0,0.0,45.0,45.0,45.0,1.0,,,,,,
,,,,,,,,,,,,,,,,,,,,,,,,,,201,1,2023-09-17_12h03.48.550,Occlusion_Psychophysics,2022.1.4,Win32,60.0024001,,,0.025,,,,,,,,,,Stimuli/psy_flexible_rotation_30_objects_occ0.7_0.9s/images/train/n04405907_9/n04405907_8/img_vray_004_stylized_tv_2007_gray.jpg,n04405907_9,n04405907_8,flexible,0.746781,n04256520_9,Stimuli/psy_fixed_rotation_30_objects_occ0.7_0.9s/images/train/n02818832_9/n04256520_9/img_bed01_blue_napoleon_iii_sofa_2004-3_gray.png,random,fixed,n04405907_9,n04405907_8,Stimuli/canonical view 2/img_n04405907_9_gray.jpg,Stimuli/canonical view 2/img_n04405907_8_gray.jpg,foreground,left,Experiments/experiment_25/184.jpg,Experiments/experiment_25/185.jpg,Experiments/experiment_25/186.jpg,Experiments/experiment_25/187.jpg,,,left,"[""left""]",[0.9360000000000355],False,,0.0,0.0,46.0,46.0,46.0,1.0,,,,,,
,,,,,,,,,,,,,,,,,,,,,,,,,,201,1,2023-09-17_12h03.48.550,Occlusion_Psychophysics,2022.1.4,Win32,60.0024001,,,0.05,,,,,,,,,,Stimuli/psy_fixed_rotation_30_objects_occ0.7_0.9s/images/train/n02933112_4/n04405907_8/img_buffet_stylized_tv_2010_gray.jpg,n02933112_4,n04405907_8,fixed,0.778772,n02883344_-1,Stimuli/psy_flexible_rotation_30_objects_occ0.7_0.9s/images/train/n03001627_-2/n02883344_-1/img_wood_chair_woven_box_2009-3_gray.png,random,flexible,n02933112_4,n04405907_8,Stimuli/canonical view 2/img_n02933112_4_gray.jpg,Stimuli/canonical view 2/img_n04405907_8_gray.jpg,foreground,left,Experiments/experiment_25/188.jpg,Experiments/experiment_25/189.jpg,Experiments/experiment_25/190.jpg,Experiments/experiment_25/191.jpg,,,right,"[""right""]",[0.5679999999999836],False,,0.0,0.0,47.0,47.0,47.0,1.0,,,,,,
,,,,,,,,,,,,,,,,,,,,,,,,,,201,1,2023-09-17_12h03.48.550,Occlusion_Psychophysics,2022.1.4,Win32,60.0024001,,,0.025,,,,,,,,,,Stimuli/psy_fixed_rotation_30_objects_occ0.7_0.9s/images/train/n03001627_9/n02883344_-1/img_chair_eames_plastic_armchair_woven_box_2002_gray.jpg,n03001627_9,n02883344_-1,fixed,0.897504,n02828884_3,Stimuli/psy_flexible_rotation_30_objects_occ0.7_0.9s/images/train/n04256520_5/n02828884_3/img_meridiani_belmondo_bench_sofa_b04_wood_metal_park_bench_2000-3_gray.png,random,flexible,n03001627_9,n03001627_8,Stimuli/canonical view 2/img_n03001627_9_gray.jpg,Stimuli/canonical view 2/img_n03001627_8_gray.jpg,random,right,Experiments/experiment_25/192.jpg,Experiments/experiment_25/193.jpg,Experiments/experiment_25/194.jpg,Experiments/experiment_25/195.jpg,,,left,"[""right""]",[0.7255000000000109],False,,0.0,0.0,48.0,48.0,48.0,1.0,,,,,,
,,,,,,,,,,,,,,,,,,,,,,,,,,201,1,2023-09-17_12h03.48.550,Occlusion_Psychophysics,2022.1.4,Win32,60.0024001,,,0.025,,,,,,,,,,Stimuli/psy_fixed_rotation_30_objects_occ0.7_0.9s/images/train/n04256520_9/n02883344_-1/img_napoleon_iii_sofa_woven_box_2014_gray.jpg,n04256520_9,n02883344_-1,fixed,0.753737,n02828884_3,Stimuli/psy_flexible_rotation_30_objects_occ0.7_0.9s/images/train/n04405907_9/n02828884_3/img_vray_004_b04_wood_metal_park_bench_2000-3_gray.png,random,flexible,n04256520_9,n02883344_-1,Stimuli/canonical view 2/img_n04256520_9_gray.jpg,Stimuli/canonical view 2/img_n02883344_-1_gray.jpg,foreground,left,Experiments/experiment_25/196.jpg,Experiments/experiment_25/197.jpg,Experiments/experiment_25/198.jpg,Experiments/experiment_25/199.jpg,,,left,"[""left""]",[0.7343000000118991],False,,0.0,0.0,49.0,49.0,49.0,1.0,,,,,,
,,,,,,,,,,,,,,,,,,,,,,,,,,201,1,2023-09-17_12h03.48.550,Occlusion_Psychophysics,2022.1.4,Win32,60.0024001,,,0.05,,,,,,,,,,Stimuli/psy_flexible_rotation_30_objects_occ0.7_0.9s/images/train/n02883344_15/n03928116_4/img_microwave_box_dp_33_b_2013__vray_2000_gray.jpg,n02883344_15,n03928116_4,flexible,0.719504,n04405907_9,Stimuli/psy_fixed_rotation_30_objects_occ0.7_0.9s/images/train/n03928116_4/n04405907_9/img_dp_33_b_2013__vray_vray_004_2000-3_gray.png,random,fixed,n02883344_15,n03928116_4,Stimuli/canonical view 2/img_n02883344_15_gray.jpg,Stimuli/canonical view 2/img_n03928116_4_gray.jpg,foreground,left,Experiments/experiment_25/200.jpg,Experiments/experiment_25/201.jpg,Experiments/experiment_25/202.jpg,Experiments/experiment_25/203.jpg,,,left,"[""right""]",[0.53449999999998],False,,0.0,0.0,50.0,50.0,50.0,1.0,,,,,,
,,,,,,,,,,,,,,,,,,,,,,,,,,201,1,2023-09-17_12h03.48.550,Occlusion_Psychophysics,2022.1.4,Win32,60.0024001,,,0.05,,,,,,,,,,Stimuli/psy_flexible_rotation_30_objects_occ0.7_0.9s/images/train/n04256520_5/n04405907_5/img_meridiani_belmondo_bench_sofa_samsung_40_uhd_smart_tv_2011_2002_gray.jpg,n04256520_5,n04405907_5,flexible,0.870163,n04405907_5,Stimuli/psy_flexible_rotation_30_objects_occ0.7_0.9s/images/train/n04256520_5/n04405907_5/img_meridiani_belmondo_bench_sofa_samsung_40_uhd_smart_tv_2011_2002-3_gray.png,foreground,same as foreground,n04256520_5,n04405907_5,Stimuli/canonical view 2/img_n04256520_5_gray.jpg,Stimuli/canonical view 2/img_n04405907_5_gray.jpg,foreground,left,Experiments/experiment_25/204.jpg,Experiments/experiment_25/205.jpg,Experiments/experiment_25/206.jpg,Experiments/experiment_25/207.jpg,,,left,"[""left""]",[1.1080999999642245],False,,0.0,0.0,51.0,51.0,51.0,1.0,,,,,,
,,,,,,,,,,,,,,,,,,,,,,,,,,201,1,2023-09-17_12h03.48.550,Occlusion_Psychophysics,2022.1.4,Win32,60.0024001,,,0.05,,,,,,,,,,Stimuli/psy_fixed_rotation_30_objects_occ0.7_0.9s/images/train/n02818832_0/n02883344_-1/img_b03_the_sofa_and_chair_company_-_stanley_bed_2014_woven_box_2015_gray.jpg,n02818832_0,n02883344_-1,fixed,0.72456,n02933112_-18,Stimuli/psy_fixed_rotation_30_objects_occ0.7_0.9s/images/train/n04379243_0/n02933112_-18/img_17th_c._monastery_dining_table_2010_cgaxis_models_48_26_vray_composite_2014-3_gray.png,random,fixed,n02818832_0,n02883344_-1,Stimuli/canonical view 2/img_n02818832_0_gray.jpg,Stimuli/canonical view 2/img_n02883344_-1_gray.jpg,foreground,right,Experiments/experiment_25/208.jpg,Experiments/experiment_25/209.jpg,Experiments/experiment_25/210.jpg,Experiments/experiment_25/211.jpg,,,right,"[""right""]",[0.6208999999762455],False,,0.0,0.0,52.0,52.0,52.0,1.0,,,,,,
,,,,,,,,,,,,,,,,,,,,,,,,,,201,1,2023-09-17_12h03.48.550,Occlusion_Psychophysics,2022.1.4,Win32,60.0024001,,,0.05,,,,,,,,,,Stimuli/psy_fixed_rotation_30_objects_occ0.7_0.9s/images/train/n04405907_9/n02883344_0/img_vray_004_b03_box_2014_gray.jpg,n04405907_9,n02883344_0,fixed,0.788348,n02883344_0,Stimuli/psy_fixed_rotation_30_objects_occ0.7_0.9s/images/train/n04405907_9/n02883344_0/img_vray_004_b03_box_2014-3_gray.png,foreground,same as foreground,n04405907_9,n02818832_9,Stimuli/canonical view 2/img_n04405907_9_gray.jpg,Stimuli/canonical view 2/img_n02818832_9_gray.jpg,random,right,Experiments/experiment_25/212.jpg,Experiments/experiment_25/213.jpg,Experiments/experiment_25/214.jpg,Experiments/experiment_25/215.jpg,,,right,"[""left""]",[0.7766999999880682],False,,0.0,0.0,53.0,53.0,53.0,1.0,,,,,,
,,,,,,,,,,,,,,,,,,,,,,,,,,201,1,2023-09-17_12h03.48.550,Occlusion_Psychophysics,2022.1.4,Win32,60.0024001,,,0.025,,,,,,,,,,Stimuli/psy_fixed_rotation_30_objects_occ0.7_0.9s/images/train/n04256520_5/n02883344_15/img_meridiani_belmondo_bench_sofa_microwave_box_2011_gray.jpg,n04256520_5,n02883344_15,fixed,0.866971,n02883344_15,Stimuli/psy_fixed_rotation_30_objects_occ0.7_0.9s/images/train/n04256520_5/n02883344_15/img_meridiani_belmondo_bench_sofa_microwave_box_2011-3_gray.png,foreground,same as foreground,n04256520_5,n02883344_-1,Stimuli/canonical view 2/img_n04256520_5_gray.jpg,Stimuli/canonical view 2/img_n02883344_-1_gray.jpg,random,right,Experiments/experiment_25/216.jpg,Experiments/experiment_25/217.jpg,Experiments/experiment_25/218.jpg,Experiments/experiment_25/219.jpg,,,left,"[""left""]",[0.8146999999880791],False,,0.0,0.0,54.0,54.0,54.0,1.0,,,,,,
,,,,,,,,,,,,,,,,,,,,,,,,,,201,1,2023-09-17_12h03.48.550,Occlusion_Psychophysics,2022.1.4,Win32,60.0024001,,,0.025,,,,,,,,,,Stimuli/psy_fixed_rotation_30_objects_occ0.7_0.9s/images/train/n02818832_9/n03928116_0/img_bed01_blue_b02_piano_2003_gray.jpg,n02818832_9,n03928116_0,fixed,0.771453,n03928116_0,Stimuli/psy_fixed_rotation_30_objects_occ0.7_0.9s/images/train/n02818832_9/n03928116_0/img_bed01_blue_b02_piano_2003-3_gray.png,foreground,same as foreground,n02818832_9,n03928116_0,Stimuli/canonical view 2/img_n02818832_9_gray.jpg,Stimuli/canonical view 2/img_n03928116_0_gray.jpg,foreground,right,Experiments/experiment_25/220.jpg,Experiments/experiment_25/221.jpg,Experiments/experiment_25/222.jpg,Experiments/experiment_25/223.jpg,,,right,"[""right""]",[0.5474000000358501],False,,0.0,0.0,55.0,55.0,55.0,1.0,,,,,,
,,,,,,,,,,,,,,,,,,,,,,,,,,201,1,2023-09-17_12h03.48.550,Occlusion_Psychophysics,2022.1.4,Win32,60.0024001,,,0.025,,,,,,,,,,Stimuli/psy_flexible_rotation_30_objects_occ0.7_0.9s/images/train/n03001627_9/n03928116_0/img_chair_eames_plastic_armchair_b02_piano_2014_gray.jpg,n03001627_9,n03928116_0,flexible,0.870534,n03928116_0,Stimuli/psy_flexible_rotation_30_objects_occ0.7_0.9s/images/train/n03001627_9/n03928116_0/img_chair_eames_plastic_armchair_b02_piano_2014-3_gray.png,foreground,same as foreground,n03001627_9,n03928116_0,Stimuli/canonical view 2/img_n03001627_9_gray.jpg,Stimuli/canonical view 2/img_n03928116_0_gray.jpg,foreground,left,Experiments/experiment_25/224.jpg,Experiments/experiment_25/225.jpg,Experiments/experiment_25/226.jpg,Experiments/experiment_25/227.jpg,,,left,"[""left""]",[1.1708000000119227],False,,0.0,0.0,56.0,56.0,56.0,1.0,,,,,,
,,,,,,,,,,,,,,,,,,,,,,,,,,201,1,2023-09-17_12h03.48.550,Occlusion_Psychophysics,2022.1.4,Win32,60.0024001,,,0.025,,,,,,,,,,Stimuli/psy_flexible_rotation_30_objects_occ0.7_0.9s/images/train/n04405907_9/n02933112_4/img_vray_004_buffet_2005_gray.jpg,n04405907_9,n02933112_4,flexible,0.754717,n02933112_4,Stimuli/psy_flexible_rotation_30_objects_occ0.7_0.9s/images/train/n04405907_9/n02933112_4/img_vray_004_buffet_2005-3_gray.png,foreground,same as foreground,n04405907_9,n03001627_-2,Stimuli/canonical view 2/img_n04405907_9_gray.jpg,Stimuli/canonical view 2/img_n03001627_-2_gray.jpg,random,left,Experiments/experiment_25/228.jpg,Experiments/experiment_25/229.jpg,Experiments/experiment_25/230.jpg,Experiments/experiment_25/231.jpg,,,left,"[""right""]",[1.4808000000118682],False,,0.0,0.0,57.0,57.0,57.0,1.0,,,,,,
,,,,,,,,,,,,,,,,,,,,,,,,,,201,1,2023-09-17_12h03.48.550,Occlusion_Psychophysics,2022.1.4,Win32,60.0024001,,,0.025,,,,,,,,,,Stimuli/psy_fixed_rotation_30_objects_occ0.7_0.9s/images/train/n02883344_15/n04256520_4/img_microwave_box_club_house_italia_nautilus_sofa_2007_gray.jpg,n02883344_15,n04256520_4,fixed,0.708582,n04405907_8,Stimuli/psy_fixed_rotation_30_objects_occ0.7_0.9s/images/train/n03928116_0/n04405907_8/img_b02_piano_stylized_tv_2009-3_gray.png,random,fixed,n02883344_15,n03001627_9,Stimuli/canonical view 2/img_n02883344_15_gray.jpg,Stimuli/canonical view 2/img_n03001627_9_gray.jpg,random,right,Experiments/experiment_25/232.jpg,Experiments/experiment_25/233.jpg,Experiments/experiment_25/234.jpg,Experiments/experiment_25/235.jpg,,,left,"[""left""]",[0.6585999999642809],False,,0.0,0.0,58.0,58.0,58.0,1.0,,,,,,
,,,,,,,,,,,,,,,,,,,,,,,,,,201,1,2023-09-17_12h03.48.550,Occlusion_Psychophysics,2022.1.4,Win32,60.0024001,,,0.025,,,,,,,,,,Stimuli/psy_fixed_rotation_30_objects_occ0.7_0.9s/images/train/n02933112_4/n02883344_-1/img_buffet_woven_box_2011_gray.jpg,n02933112_4,n02883344_-1,fixed,0.741726,n02883344_-1,Stimuli/psy_fixed_rotation_30_objects_occ0.7_0.9s/images/train/n02933112_4/n02883344_-1/img_buffet_woven_box_2011-3_gray.png,foreground,same as foreground,n02933112_4,n04256520_5,Stimuli/canonical view 2/img_n02933112_4_gray.jpg,Stimuli/canonical view 2/img_n04256520_5_gray.jpg,random,left,Experiments/experiment_25/236.jpg,Experiments/experiment_25/237.jpg,Experiments/experiment_25/238.jpg,Experiments/experiment_25/239.jpg,,,left,"[""right""]",[0.8293999999762036],False,,0.0,0.0,59.0,59.0,59.0,1.0,,,,,,
,,,,,,,,,,,,,,,,,,,,,,,,,,201,1,2023-09-17_12h03.48.550,Occlusion_Psychophysics,2022.1.4,Win32,60.0024001,,,0.025,,,,,,,,,,Stimuli/psy_fixed_rotation_30_objects_occ0.7_0.9s/images/train/n02933112_-2/n04256520_4/img_sink_base_white_wood_club_house_italia_nautilus_sofa_2013_gray.jpg,n02933112_-2,n04256520_4,fixed,0.731103,n02883344_0,Stimuli/psy_flexible_rotation_30_objects_occ0.7_0.9s/images/train/n03928116_0/n02883344_0/img_b02_piano_b03_box_2009-3_gray.png,random,flexible,n02933112_-2,n03928116_10,Stimuli/canonical view 2/img_n02933112_-2_gray.jpg,Stimuli/canonical view 2/img_n03928116_10_gray.jpg,random,left,Experiments/experiment_25/240.jpg,Experiments/experiment_25/241.jpg,Experiments/experiment_25/242.jpg,Experiments/experiment_25/243.jpg,,,right,"[""right""]",[0.6893999999761036],False,,0.0,0.0,60.0,60.0,60.0,1.0,,,,,,
,,,,,,,,,,,,,,,,,,,,,,,,,,201,1,2023-09-17_12h03.48.550,Occlusion_Psychophysics,2022.1.4,Win32,60.0024001,,,0.025,,,,,,,,,,Stimuli/psy_fixed_rotation_30_objects_occ0.7_0.9s/images/train/n02883344_15/n02933112_4/img_microwave_box_buffet_2000_gray.jpg,n02883344_15,n02933112_4,fixed,0.710024,n02933112_4,Stimuli/psy_fixed_rotation_30_objects_occ0.7_0.9s/images/train/n02883344_15/n02933112_4/img_microwave_box_buffet_2000-3_gray.png,foreground,same as foreground,n02883344_15,n04405907_8,Stimuli/canonical view 2/img_n02883344_15_gray.jpg,Stimuli/canonical view 2/img_n04405907_8_gray.jpg,random,left,Experiments/experiment_25/244.jpg,Experiments/experiment_25/245.jpg,Experiments/experiment_25/246.jpg,Experiments/experiment_25/247.jpg,,,right,"[""right""]",[0.7306000000238555],False,,0.0,0.0,61.0,61.0,61.0,1.0,,,,,,
,,,,,,,,,,,,,,,,,,,,,,,,,,201,1,2023-09-17_12h03.48.550,Occlusion_Psychophysics,2022.1.4,Win32,60.0024001,,,0.05,,,,,,,,,,Stimuli/psy_flexible_rotation_30_objects_occ0.7_0.9s/images/train/n02933112_4/n02883344_0/img_buffet_b03_box_2003_gray.jpg,n02933112_4,n02883344_0,flexible,0.749885,n02883344_0,Stimuli/psy_flexible_rotation_30_objects_occ0.7_0.9s/images/train/n02933112_4/n02883344_0/img_buffet_b03_box_2003-3_gray.png,foreground,same as foreground,n02933112_4,n02883344_0,Stimuli/canonical view 2/img_n02933112_4_gray.jpg,Stimuli/canonical view 2/img_n02883344_0_gray.jpg,foreground,right,Experiments/experiment_25/248.jpg,Experiments/experiment_25/249.jpg,Experiments/experiment_25/250.jpg,Experiments/experiment_25/251.jpg,,,right,"[""right""]",[0.5306000000239237],False,,0.0,0.0,62.0,62.0,62.0,1.0,,,,,,
,,,,,,,,,,,,,,,,,,,,,,,,,,201,1,2023-09-17_12h03.48.550,Occlusion_Psychophysics,2022.1.4,Win32,60.0024001,,,0.05,,,,,,,,,,Stimuli/psy_flexible_rotation_30_objects_occ0.7_0.9s/images/train/n04256520_5/n02818832_0/img_meridiani_belmondo_bench_sofa_b03_the_sofa_and_chair_company_-_stanley_bed_2014_2013_gray.jpg,n04256520_5,n02818832_0,flexible,0.781512,n02818832_0,Stimuli/psy_flexible_rotation_30_objects_occ0.7_0.9s/images/train/n04256520_5/n02818832_0/img_meridiani_belmondo_bench_sofa_b03_the_sofa_and_chair_company_-_stanley_bed_2014_2013-3_gray.png,foreground,same as foreground,n04256520_5,n04379243_8,Stimuli/canonical view 2/img_n04256520_5_gray.jpg,Stimuli/canonical view 2/img_n04379243_8_gray.jpg,random,left,Experiments/experiment_25/252.jpg,Experiments/experiment_25/253.jpg,Experiments/experiment_25/254.jpg,Experiments/experiment_25/255.jpg,,,right,"[""left""]",[0.8988000000119882],False,,0.0,0.0,63.0,63.0,63.0,1.0,,,,,,
,,,,,,,,,,,,,,,,,,,,,,,,,,201,1,2023-09-17_12h03.48.550,Occlusion_Psychophysics,2022.1.4,Win32,60.0024001,,,0.025,,,,,,,,,,Stimuli/psy_flexible_rotation_30_objects_occ0.7_0.9s/images/train/n03001627_-2/n03001627_8/img_wood_chair_chair_billiani_doll_2002_gray.jpg,n03001627_-2,n03001627_8,flexible,0.732225,n03001627_8,Stimuli/psy_flexible_rotation_30_objects_occ0.7_0.9s/images/train/n03001627_-2/n03001627_8/img_wood_chair_chair_billiani_doll_2002-3_gray.png,foreground,same as foreground,n03001627_-2,n03001627_8,Stimuli/canonical view 2/img_n03001627_-2_gray.jpg,Stimuli/canonical view 2/img_n03001627_8_gray.jpg,foreground,left,Experiments/experiment_25/256.jpg,Experiments/experiment_25/257.jpg,Experiments/experiment_25/258.jpg,Experiments/experiment_25/259.jpg,,,left,"[""left""]",[1.0760000000000218],False,,0.0,0.0,64.0,64.0,64.0,1.0,,,,,,
,,,,,,,,,,,,,,,,,,,,,,,,,,201,1,2023-09-17_12h03.48.550,Occlusion_Psychophysics,2022.1.4,Win32,60.0024001,,,0.025,,,,,,,,,,Stimuli/psy_fixed_rotation_30_objects_occ0.7_0.9s/images/train/n02933112_4/n02883344_15/img_buffet_microwave_box_2013_gray.jpg,n02933112_4,n02883344_15,fixed,0.703129,n02883344_15,Stimuli/psy_fixed_rotation_30_objects_occ0.7_0.9s/images/train/n02933112_4/n02883344_15/img_buffet_microwave_box_2013-3_gray.png,foreground,same as foreground,n02933112_4,n02883344_15,Stimuli/canonical view 2/img_n02933112_4_gray.jpg,Stimuli/canonical view 2/img_n02883344_15_gray.jpg,foreground,right,Experiments/experiment_25/260.jpg,Experiments/experiment_25/261.jpg,Experiments/experiment_25/262.jpg,Experiments/experiment_25/263.jpg,,,right,"[""left""]",[1.1347999999522926],False,,0.0,0.0,65.0,65.0,65.0,1.0,,,,,,
,,,,,,,,,,,,,,,,,,,,,,,,,,201,1,2023-09-17_12h03.48.550,Occlusion_Psychophysics,2022.1.4,Win32,60.0024001,,,0.05,,,,,,,,,,Stimuli/psy_flexible_rotation_30_objects_occ0.7_0.9s/images/train/n02818832_0/n02828884_4/img_b03_the_sofa_and_chair_company_-_stanley_bed_2014_b05_c-5_classic_series_bench-2012_2015_gray.jpg,n02818832_0,n02828884_4,flexible,0.779523,n02828884_4,Stimuli/psy_flexible_rotation_30_objects_occ0.7_0.9s/images/train/n02818832_0/n02828884_4/img_b03_the_sofa_and_chair_company_-_stanley_bed_2014_b05_c-5_classic_series_bench-2012_2015-3_gray.png,foreground,same as foreground,n02818832_0,n02828884_4,Stimuli/canonical view 2/img_n02818832_0_gray.jpg,Stimuli/canonical view 2/img_n02828884_4_gray.jpg,foreground,right,Experiments/experiment_25/264.jpg,Experiments/experiment_25/265.jpg,Experiments/experiment_25/266.jpg,Experiments/experiment_25/267.jpg,,,right,"[""right""]",[0.6453000000119573],False,,0.0,0.0,66.0,66.0,66.0,1.0,,,,,,
,,,,,,,,,,,,,,,,,,,,,,,,,,201,1,2023-09-17_12h03.48.550,Occlusion_Psychophysics,2022.1.4,Win32,60.0024001,,,0.05,,,,,,,,,,Stimuli/psy_fixed_rotation_30_objects_occ0.7_0.9s/images/train/n04379243_0/n02883344_15/img_17th_c._monastery_dining_table_2010_microwave_box_2010_gray.jpg,n04379243_0,n02883344_15,fixed,0.700641,n04405907_9,Stimuli/psy_fixed_rotation_30_objects_occ0.7_0.9s/images/train/n04256520_9/n04405907_9/img_napoleon_iii_sofa_vray_004_2015-3_gray.png,random,fixed,n04379243_0,n02883344_15,Stimuli/canonical view 2/img_n04379243_0_gray.jpg,Stimuli/canonical view 2/img_n02883344_15_gray.jpg,foreground,left,Experiments/experiment_25/268.jpg,Experiments/experiment_25/269.jpg,Experiments/experiment_25/270.jpg,Experiments/experiment_25/271.jpg,,,right,"[""right""]",[0.8966000000237955],False,,0.0,0.0,67.0,67.0,67.0,1.0,,,,,,
,,,,,,,,,,,,,,,,,,,,,,,,,,201,1,2023-09-17_12h03.48.550,Occlusion_Psychophysics,2022.1.4,Win32,60.0024001,,,0.05,,,,,,,,,,Stimuli/psy_flexible_rotation_30_objects_occ0.7_0.9s/images/train/n02818832_9/n04405907_5/img_bed01_blue_samsung_40_uhd_smart_tv_2011_2015_gray.jpg,n02818832_9,n04405907_5,flexible,0.730593,n04405907_5,Stimuli/psy_flexible_rotation_30_objects_occ0.7_0.9s/images/train/n02818832_9/n04405907_5/img_bed01_blue_samsung_40_uhd_smart_tv_2011_2015-3_gray.png,foreground,same as foreground,n02818832_9,n04405907_5,Stimuli/canonical view 2/img_n02818832_9_gray.jpg,Stimuli/canonical view 2/img_n04405907_5_gray.jpg,foreground,right,Experiments/experiment_25/272.jpg,Experiments/experiment_25/273.jpg,Experiments/experiment_25/274.jpg,Experiments/experiment_25/275.jpg,,,right,"[""right""]",[0.8183000000119591],False,,0.0,0.0,68.0,68.0,68.0,1.0,,,,,,
,,,,,,,,,,,,,,,,,,,,,,,,,,201,1,2023-09-17_12h03.48.550,Occlusion_Psychophysics,2022.1.4,Win32,60.0024001,,,0.025,,,,,,,,,,Stimuli/psy_fixed_rotation_30_objects_occ0.7_0.9s/images/train/n02883344_15/n02828884_3/img_microwave_box_b04_wood_metal_park_bench_2004_gray.jpg,n02883344_15,n02828884_3,fixed,0.774966,n03928116_4,Stimuli/psy_fixed_rotation_30_objects_occ0.7_0.9s/images/train/n02818832_3/n03928116_4/img_b05_ccm_contemporary_bed_max2013_dp_33_b_2013__vray_2008-3_gray.png,random,fixed,n02883344_15,n02933112_-18,Stimuli/canonical view 2/img_n02883344_15_gray.jpg,Stimuli/canonical view 2/img_n02933112_-18_gray.jpg,random,left,Experiments/experiment_25/276.jpg,Experiments/experiment_25/277.jpg,Experiments/experiment_25/278.jpg,Experiments/experiment_25/279.jpg,,,right,"[""right""]",[1.0139000000357328],False,,0.0,0.0,69.0,69.0,69.0,1.0,,,,,,
,,,,,,,,,,,,,,,,,,,,,,,,,,201,1,2023-09-17_12h03.48.550,Occlusion_Psychophysics,2022.1.4,Win32,60.0024001,,,0.025,,,,,,,,,,Stimuli/psy_fixed_rotation_30_objects_occ0.7_0.9s/images/train/n02933112_-2/n03928116_0/img_sink_base_white_wood_b02_piano_2003_gray.jpg,n02933112_-2,n03928116_0,fixed,0.84494,n02883344_-1,Stimuli/psy_fixed_rotation_30_objects_occ0.7_0.9s/images/train/n04256520_4/n02883344_-1/img_club_house_italia_nautilus_sofa_woven_box_2002-3_gray.png,random,fixed,n02933112_-2,n04379243_8,Stimuli/canonical view 2/img_n02933112_-2_gray.jpg,Stimuli/canonical view 2/img_n04379243_8_gray.jpg,random,left,Experiments/experiment_25/280.jpg,Experiments/experiment_25/281.jpg,Experiments/experiment_25/282.jpg,Experiments/experiment_25/283.jpg,,,left,"[""right""]",[1.02670000004764],False,,0.0,0.0,70.0,70.0,70.0,1.0,,,,,,
,,,,,,,,,,,,,,,,,,,,,,,,,,201,1,2023-09-17_12h03.48.550,Occlusion_Psychophysics,2022.1.4,Win32,60.0024001,,,0.05,,,,,,,,,,Stimuli/psy_flexible_rotation_30_objects_occ0.7_0.9s/images/train/n04256520_4/n02828884_4/img_club_house_italia_nautilus_sofa_b05_c-5_classic_series_bench-2012_2001_gray.jpg,n04256520_4,n02828884_4,flexible,0.726811,n03928116_10,Stimuli/psy_flexible_rotation_30_objects_occ0.7_0.9s/images/train/n02828884_3/n03928116_10/img_b04_wood_metal_park_bench_ydp_103_r_2012__vray_2000-3_gray.png,random,flexible,n04256520_4,n02828884_4,Stimuli/canonical view 2/img_n04256520_4_gray.jpg,Stimuli/canonical view 2/img_n02828884_4_gray.jpg,foreground,left,Experiments/experiment_25/284.jpg,Experiments/experiment_25/285.jpg,Experiments/experiment_25/286.jpg,Experiments/experiment_25/287.jpg,,,right,"[""right""]",[1.3584999999999354],False,,0.0,0.0,71.0,71.0,71.0,1.0,,,,,,
,,,,,,,,,,,,,,,,,,,,,,,,,,201,1,2023-09-17_12h03.48.550,Occlusion_Psychophysics,2022.1.4,Win32,60.0024001,,,0.05,,,,,,,,,,Stimuli/psy_flexible_rotation_30_objects_occ0.7_0.9s/images/train/n03001627_9/n02933112_4/img_chair_eames_plastic_armchair_buffet_2005_gray.jpg,n03001627_9,n02933112_4,flexible,0.76591,n02933112_4,Stimuli/psy_flexible_rotation_30_objects_occ0.7_0.9s/images/train/n03001627_9/n02933112_4/img_chair_eames_plastic_armchair_buffet_2005-3_gray.png,foreground,same as foreground,n03001627_9,n02933112_4,Stimuli/canonical view 2/img_n03001627_9_gray.jpg,Stimuli/canonical view 2/img_n02933112_4_gray.jpg,foreground,left,Experiments/experiment_25/288.jpg,Experiments/experiment_25/289.jpg,Experiments/experiment_25/290.jpg,Experiments/experiment_25/291.jpg,,,left,"[""right""]",[0.57340000003569],False,,0.0,0.0,72.0,72.0,72.0,1.0,,,,,,
,,,,,,,,,,,,,,,,,,,,,,,,,,201,1,2023-09-17_12h03.48.550,Occlusion_Psychophysics,2022.1.4,Win32,60.0024001,,,0.025,,,,,,,,,,Stimuli/psy_fixed_rotation_30_objects_occ0.7_0.9s/images/train/n04256520_9/n02883344_-1/img_napoleon_iii_sofa_woven_box_2000_gray.jpg,n04256520_9,n02883344_-1,fixed,0.722722,n02883344_-1,Stimuli/psy_fixed_rotation_30_objects_occ0.7_0.9s/images/train/n04256520_9/n02883344_-1/img_napoleon_iii_sofa_woven_box_2000-3_gray.png,foreground,same as foreground,n04256520_9,n02883344_-1,Stimuli/canonical view 2/img_n04256520_9_gray.jpg,Stimuli/canonical view 2/img_n02883344_-1_gray.jpg,foreground,right,Experiments/experiment_25/292.jpg,Experiments/experiment_25/293.jpg,Experiments/experiment_25/294.jpg,Experiments/experiment_25/295.jpg,,,right,"[""left""]",[0.9875999999642318],False,,0.0,0.0,73.0,73.0,73.0,1.0,,,,,,
,,,,,,,,,,,,,,,,,,,,,,,,,,201,1,2023-09-17_12h03.48.550,Occlusion_Psychophysics,2022.1.4,Win32,60.0024001,,,0.05,,,,,,,,,,Stimuli/psy_fixed_rotation_30_objects_occ0.7_0.9s/images/train/n04405907_5/n03928116_0/img_samsung_40_uhd_smart_tv_2011_b02_piano_2001_gray.jpg,n04405907_5,n03928116_0,fixed,0.713813,n02883344_-1,Stimuli/psy_fixed_rotation_30_objects_occ0.7_0.9s/images/train/n03928116_10/n02883344_-1/img_ydp_103_r_2012__vray_woven_box_2004-3_gray.png,random,fixed,n04405907_5,n02818832_9,Stimuli/canonical view 2/img_n04405907_5_gray.jpg,Stimuli/canonical view 2/img_n02818832_9_gray.jpg,random,right,Experiments/experiment_25/296.jpg,Experiments/experiment_25/297.jpg,Experiments/experiment_25/298.jpg,Experiments/experiment_25/299.jpg,,,left,"[""right""]",[0.5847999999522244],False,,0.0,0.0,74.0,74.0,74.0,1.0,,,,,,
,,,,,,,,,,,,,,,,,,,,,,,,,,201,1,2023-09-17_12h03.48.550,Occlusion_Psychophysics,2022.1.4,Win32,60.0024001,,,0.05,,,,,,,,,,Stimuli/psy_fixed_rotation_30_objects_occ0.7_0.9s/images/train/n02883344_15/n03928116_0/img_microwave_box_b02_piano_2008_gray.jpg,n02883344_15,n03928116_0,fixed,0.705232,n03928116_0,Stimuli/psy_fixed_rotation_30_objects_occ0.7_0.9s/images/train/n02883344_15/n03928116_0/img_microwave_box_b02_piano_2008-3_gray.png,foreground,same as foreground,n02883344_15,n03001627_8,Stimuli/canonical view 2/img_n02883344_15_gray.jpg,Stimuli/canonical view 2/img_n03001627_8_gray.jpg,random,left,Experiments/experiment_25/300.jpg,Experiments/experiment_25/301.jpg,Experiments/experiment_25/302.jpg,Experiments/experiment_25/303.jpg,,,right,"[""left""]",[1.2699999999999818],False,,0.0,0.0,75.0,75.0,75.0,1.0,,,,,,
,,,,,,,,,,,,,,,,,,,,,,,,,,201,1,2023-09-17_12h03.48.550,Occlusion_Psychophysics,2022.1.4,Win32,60.0024001,,,0.05,,,,,,,,,,Stimuli/psy_flexible_rotation_30_objects_occ0.7_0.9s/images/train/n02828884_4/n04256520_5/img_b05_c-5_classic_series_bench-2012_meridiani_belmondo_bench_sofa_2006_gray.jpg,n02828884_4,n04256520_5,flexible,0.702146,n04256520_5,Stimuli/psy_flexible_rotation_30_objects_occ0.7_0.9s/images/train/n02828884_4/n04256520_5/img_b05_c-5_classic_series_bench-2012_meridiani_belmondo_bench_sofa_2006-3_gray.png,foreground,same as foreground,n02828884_4,n04379243_-7,Stimuli/canonical view 2/img_n02828884_4_gray.jpg,Stimuli/canonical view 2/img_n04379243_-7_gray.jpg,random,right,Experiments/experiment_25/304.jpg,Experiments/experiment_25/305.jpg,Experiments/experiment_25/306.jpg,Experiments/experiment_25/307.jpg,,,right,"[""right""]",[0.8238000000118291],False,,0.0,0.0,76.0,76.0,76.0,1.0,,,,,,
,,,,,,,,,,,,,,,,,,,,,,,,,,201,1,2023-09-17_12h03.48.550,Occlusion_Psychophysics,2022.1.4,Win32,60.0024001,,,0.05,,,,,,,,,,Stimuli/psy_fixed_rotation_30_objects_occ0.7_0.9s/images/train/n02883344_15/n02933112_4/img_microwave_box_buffet_2004_gray.jpg,n02883344_15,n02933112_4,fixed,0.712382,n02933112_4,Stimuli/psy_fixed_rotation_30_objects_occ0.7_0.9s/images/train/n02883344_15/n02933112_4/img_microwave_box_buffet_2004-3_gray.png,foreground,same as foreground,n02883344_15,n04256520_9,Stimuli/canonical view 2/img_n02883344_15_gray.jpg,Stimuli/canonical view 2/img_n04256520_9_gray.jpg,random,left,Experiments/experiment_25/308.jpg,Experiments/experiment_25/309.jpg,Experiments/experiment_25/310.jpg,Experiments/experiment_25/311.jpg,,,right,"[""right""]",[0.8920000000000528],False,,0.0,0.0,77.0,77.0,77.0,1.0,,,,,,
,,,,,,,,,,,,,,,,,,,,,,,,,,201,1,2023-09-17_12h03.48.550,Occlusion_Psychophysics,2022.1.4,Win32,60.0024001,,,0.05,,,,,,,,,,Stimuli/psy_fixed_rotation_30_objects_occ0.7_0.9s/images/train/n02828884_4/n02828884_3/img_b05_c-5_classic_series_bench-2012_b04_wood_metal_park_bench_2004_gray.jpg,n02828884_4,n02828884_3,fixed,0.718594,n02828884_3,Stimuli/psy_fixed_rotation_30_objects_occ0.7_0.9s/images/train/n02828884_4/n02828884_3/img_b05_c-5_classic_series_bench-2012_b04_wood_metal_park_bench_2004-3_gray.png,foreground,same as foreground,n02828884_4,n03001627_-2,Stimuli/canonical view 2/img_n02828884_4_gray.jpg,Stimuli/canonical view 2/img_n03001627_-2_gray.jpg,random,right,Experiments/experiment_25/312.jpg,Experiments/experiment_25/313.jpg,Experiments/experiment_25/314.jpg,Experiments/experiment_25/315.jpg,,,right,"[""right""]",[0.6854999999999336],False,,0.0,0.0,78.0,78.0,78.0,1.0,,,,,,
,,,,,,,,,,,,,,,,,,,,,,,,,,201,1,2023-09-17_12h03.48.550,Occlusion_Psychophysics,2022.1.4,Win32,60.0024001,,,0.05,,,,,,,,,,Stimuli/psy_fixed_rotation_30_objects_occ0.7_0.9s/images/train/n03928116_10/n04256520_4/img_ydp_103_r_2012__vray_club_house_italia_nautilus_sofa_2014_gray.jpg,n03928116_10,n04256520_4,fixed,0.712764,n04256520_4,Stimuli/psy_fixed_rotation_30_objects_occ0.7_0.9s/images/train/n03928116_10/n04256520_4/img_ydp_103_r_2012__vray_club_house_italia_nautilus_sofa_2014-3_gray.png,foreground,same as foreground,n03928116_10,n04256520_4,Stimuli/canonical view 2/img_n03928116_10_gray.jpg,Stimuli/canonical view 2/img_n04256520_4_gray.jpg,foreground,left,Experiments/experiment_25/316.jpg,Experiments/experiment_25/317.jpg,Experiments/experiment_25/318.jpg,Experiments/experiment_25/319.jpg,,,right,"[""right""]",[0.7745999999642663],False,,0.0,0.0,79.0,79.0,79.0,1.0,,,,,,
,,,,,,,,,,,,,,,,,,,,,,,,,,201,1,2023-09-17_12h03.48.550,Occlusion_Psychophysics,2022.1.4,Win32,60.0024001,,,0.025,,,,,,,,,,Stimuli/psy_flexible_rotation_30_objects_occ0.7_0.9s/images/train/n02818832_9/n02883344_0/img_bed01_blue_b03_box_2008_gray.jpg,n02818832_9,n02883344_0,flexible,0.811219,n03928116_4,Stimuli/psy_flexible_rotation_30_objects_occ0.7_0.9s/images/train/n02883344_-1/n03928116_4/img_woven_box_dp_33_b_2013__vray_2002-3_gray.png,random,flexible,n02818832_9,n04256520_4,Stimuli/canonical view 2/img_n02818832_9_gray.jpg,Stimuli/canonical view 2/img_n04256520_4_gray.jpg,random,right,Experiments/experiment_25/320.jpg,Experiments/experiment_25/321.jpg,Experiments/experiment_25/322.jpg,Experiments/experiment_25/323.jpg,,,left,"[""right""]",[1.1806999999880645],False,,0.0,0.0,80.0,80.0,80.0,1.0,,,,,,
,,,,,,,,,,,,,,,,,,,,,,,,,,201,1,2023-09-17_12h03.48.550,Occlusion_Psychophysics,2022.1.4,Win32,60.0024001,,,0.025,,,,,,,,,,Stimuli/psy_flexible_rotation_30_objects_occ0.7_0.9s/images/train/n02933112_4/n02883344_-1/img_buffet_woven_box_2001_gray.jpg,n02933112_4,n02883344_-1,flexible,0.759619,n02883344_-1,Stimuli/psy_flexible_rotation_30_objects_occ0.7_0.9s/images/train/n02933112_4/n02883344_-1/img_buffet_woven_box_2001-3_gray.png,foreground,same as foreground,n02933112_4,n02883344_-1,Stimuli/canonical view 2/img_n02933112_4_gray.jpg,Stimuli/canonical view 2/img_n02883344_-1_gray.jpg,foreground,left,Experiments/experiment_25/324.jpg,Experiments/experiment_25/325.jpg,Experiments/experiment_25/326.jpg,Experiments/experiment_25/327.jpg,,,right,"[""right""]",[0.6107000000477001],False,,0.0,0.0,81.0,81.0,81.0,1.0,,,,,,
,,,,,,,,,,,,,,,,,,,,,,,,,,201,1,2023-09-17_12h03.48.550,Occlusion_Psychophysics,2022.1.4,Win32,60.0024001,,,0.025,,,,,,,,,,Stimuli/psy_flexible_rotation_30_objects_occ0.7_0.9s/images/train/n02933112_4/n02883344_15/img_buffet_microwave_box_2005_gray.jpg,n02933112_4,n02883344_15,flexible,0.704481,n02933112_4,Stimuli/psy_fixed_rotation_30_objects_occ0.7_0.9s/images/train/n02933112_4/n02933112_4/img_buffet_buffet_2008-3_gray.png,random,fixed,n02933112_4,n02883344_15,Stimuli/canonical view 2/img_n02933112_4_gray.jpg,Stimuli/canonical view 2/img_n02883344_15_gray.jpg,foreground,right,Experiments/experiment_25/328.jpg,Experiments/experiment_25/329.jpg,Experiments/experiment_25/330.jpg,Experiments/experiment_25/331.jpg,,,left,"[""left""]",[0.7848000000119555],False,,0.0,0.0,82.0,82.0,82.0,1.0,,,,,,
,,,,,,,,,,,,,,,,,,,,,,,,,,201,1,2023-09-17_12h03.48.550,Occlusion_Psychophysics,2022.1.4,Win32,60.0024001,,,0.025,,,,,,,,,,Stimuli/psy_fixed_rotation_30_objects_occ0.7_0.9s/images/train/n02828884_3/n04405907_9/img_b04_wood_metal_park_bench_vray_004_2001_gray.jpg,n02828884_3,n04405907_9,fixed,0.830878,n04405907_9,Stimuli/psy_fixed_rotation_30_objects_occ0.7_0.9s/images/train/n02828884_3/n04405907_9/img_b04_wood_metal_park_bench_vray_004_2001-3_gray.png,foreground,same as foreground,n02828884_3,n02933112_-2,Stimuli/canonical view 2/img_n02828884_3_gray.jpg,Stimuli/canonical view 2/img_n02933112_-2_gray.jpg,random,right,Experiments/experiment_25/332.jpg,Experiments/experiment_25/333.jpg,Experiments/experiment_25/334.jpg,Experiments/experiment_25/335.jpg,,,left,"[""right""]",[0.61280000001193],False,,0.0,0.0,83.0,83.0,83.0,1.0,,,,,,
,,,,,,,,,,,,,,,,,,,,,,,,,,201,1,2023-09-17_12h03.48.550,Occlusion_Psychophysics,2022.1.4,Win32,60.0024001,,,0.05,,,,,,,,,,Stimuli/psy_flexible_rotation_30_objects_occ0.7_0.9s/images/train/n04379243_-7/n04256520_9/img_quatre_dining_table_napoleon_iii_sofa_2015_gray.jpg,n04379243_-7,n04256520_9,flexible,0.741797,n04256520_9,Stimuli/psy_flexible_rotation_30_objects_occ0.7_0.9s/images/train/n04379243_-7/n04256520_9/img_quatre_dining_table_napoleon_iii_sofa_2015-3_gray.png,foreground,same as foreground,n04379243_-7,n04405907_8,Stimuli/canonical view 2/img_n04379243_-7_gray.jpg,Stimuli/canonical view 2/img_n04405907_8_gray.jpg,random,right,Experiments/experiment_25/336.jpg,Experiments/experiment_25/337.jpg,Experiments/experiment_25/338.jpg,Experiments/experiment_25/339.jpg,,,left,"[""right""]",[1.153399999976159],False,,0.0,0.0,84.0,84.0,84.0,1.0,,,,,,
,,,,,,,,,,,,,,,,,,,,,,,,,,201,1,2023-09-17_12h03.48.550,Occlusion_Psychophysics,2022.1.4,Win32,60.0024001,,,0.05,,,,,,,,,,Stimuli/psy_fixed_rotation_30_objects_occ0.7_0.9s/images/train/n04256520_5/n04256520_9/img_meridiani_belmondo_bench_sofa_napoleon_iii_sofa_2012_gray.jpg,n04256520_5,n04256520_9,fixed,0.715933,n02883344_-1,Stimuli/psy_fixed_rotation_30_objects_occ0.7_0.9s/images/train/n03001627_9/n02883344_-1/img_chair_eames_plastic_armchair_woven_box_2012-3_gray.png,random,fixed,n04256520_5,n02883344_-1,Stimuli/canonical view 2/img_n04256520_5_gray.jpg,Stimuli/canonical view 2/img_n02883344_-1_gray.jpg,random,right,Experiments/experiment_25/340.jpg,Experiments/experiment_25/341.jpg,Experiments/experiment_25/342.jpg,Experiments/experiment_25/343.jpg,,,left,"[""left""]",[1.0011999999881027],False,,0.0,0.0,85.0,85.0,85.0,1.0,,,,,,
,,,,,,,,,,,,,,,,,,,,,,,,,,201,1,2023-09-17_12h03.48.550,Occlusion_Psychophysics,2022.1.4,Win32,60.0024001,,,0.025,,,,,,,,,,Stimuli/psy_fixed_rotation_30_objects_occ0.7_0.9s/images/train/n02933112_-18/n04379243_-7/img_cgaxis_models_48_26_vray_composite_quatre_dining_table_2015_gray.jpg,n02933112_-18,n04379243_-7,fixed,0.771738,n04379243_-7,Stimuli/psy_fixed_rotation_30_objects_occ0.7_0.9s/images/train/n02933112_-18/n04379243_-7/img_cgaxis_models_48_26_vray_composite_quatre_dining_table_2015-3_gray.png,foreground,same as foreground,n02933112_-18,n02828884_4,Stimuli/canonical view 2/img_n02933112_-18_gray.jpg,Stimuli/canonical view 2/img_n02828884_4_gray.jpg,random,left,Experiments/experiment_25/344.jpg,Experiments/experiment_25/345.jpg,Experiments/experiment_25/346.jpg,Experiments/experiment_25/347.jpg,,,right,"[""right""]",[1.2046999999881791],False,,0.0,0.0,86.0,86.0,86.0,1.0,,,,,,
,,,,,,,,,,,,,,,,,,,,,,,,,,201,1,2023-09-17_12h03.48.550,Occlusion_Psychophysics,2022.1.4,Win32,60.0024001,,,0.05,,,,,,,,,,Stimuli/psy_fixed_rotation_30_objects_occ0.7_0.9s/images/train/n02818832_0/n04379243_-7/img_b03_the_sofa_and_chair_company_-_stanley_bed_2014_quatre_dining_table_2001_gray.jpg,n02818832_0,n04379243_-7,fixed,0.86229,n04379243_-7,Stimuli/psy_fixed_rotation_30_objects_occ0.7_0.9s/images/train/n02818832_0/n04379243_-7/img_b03_the_sofa_and_chair_company_-_stanley_bed_2014_quatre_dining_table_2001-3_gray.png,foreground,same as foreground,n02818832_0,n04379243_0,Stimuli/canonical view 2/img_n02818832_0_gray.jpg,Stimuli/canonical view 2/img_n04379243_0_gray.jpg,random,right,Experiments/experiment_25/348.jpg,Experiments/experiment_25/349.jpg,Experiments/experiment_25/350.jpg,Experiments/experiment_25/351.jpg,,,right,"[""right""]",[1.2414999999999736],False,,0.0,0.0,87.0,87.0,87.0,1.0,,,,,,
,,,,,,,,,,,,,,,,,,,,,,,,,,201,1,2023-09-17_12h03.48.550,Occlusion_Psychophysics,2022.1.4,Win32,60.0024001,,,0.05,,,,,,,,,,Stimuli/psy_flexible_rotation_30_objects_occ0.7_0.9s/images/train/n03928116_4/n02818832_9/img_dp_33_b_2013__vray_bed01_blue_2002_gray.jpg,n03928116_4,n02818832_9,flexible,0.727301,n04256520_4,Stimuli/psy_fixed_rotation_30_objects_occ0.7_0.9s/images/train/n03928116_0/n04256520_4/img_b02_piano_club_house_italia_nautilus_sofa_2008-3_gray.png,random,fixed,n03928116_4,n02933112_-2,Stimuli/canonical view 2/img_n03928116_4_gray.jpg,Stimuli/canonical view 2/img_n02933112_-2_gray.jpg,random,right,Experiments/experiment_25/352.jpg,Experiments/experiment_25/353.jpg,Experiments/experiment_25/354.jpg,Experiments/experiment_25/355.jpg,,,left,"[""left""]",[0.7175999999641363],False,,0.0,0.0,88.0,88.0,88.0,1.0,,,,,,
,,,,,,,,,,,,,,,,,,,,,,,,,,201,1,2023-09-17_12h03.48.550,Occlusion_Psychophysics,2022.1.4,Win32,60.0024001,,,0.025,,,,,,,,,,Stimuli/psy_flexible_rotation_30_objects_occ0.7_0.9s/images/train/n02818832_0/n02933112_4/img_b03_the_sofa_and_chair_company_-_stanley_bed_2014_buffet_2000_gray.jpg,n02818832_0,n02933112_4,flexible,0.764757,n02933112_-18,Stimuli/psy_fixed_rotation_30_objects_occ0.7_0.9s/images/train/n03001627_9/n02933112_-18/img_chair_eames_plastic_armchair_cgaxis_models_48_26_vray_composite_2008-3_gray.png,random,fixed,n02818832_0,n02933112_4,Stimuli/canonical view 2/img_n02818832_0_gray.jpg,Stimuli/canonical view 2/img_n02933112_4_gray.jpg,foreground,left,Experiments/experiment_25/356.jpg,Experiments/experiment_25/357.jpg,Experiments/experiment_25/358.jpg,Experiments/experiment_25/359.jpg,,,right,"[""right""]",[0.5485999999642672],True,left,1.0,0.0,89.0,89.0,89.0,1.0,0.8258,,,,,
,,,,,,,,,,,,,,,,,,,,,,,,,,201,1,2023-09-17_12h03.48.550,Occlusion_Psychophysics,2022.1.4,Win32,60.0024001,,,0.025,,,,,,,,,,Stimuli/psy_fixed_rotation_30_objects_occ0.7_0.9s/images/train/n02818832_9/n02883344_0/img_bed01_blue_b03_box_2009_gray.jpg,n02818832_9,n02883344_0,fixed,0.736017,n02883344_15,Stimuli/psy_fixed_rotation_30_objects_occ0.7_0.9s/images/train/n04070727_0/n02883344_15/img_b03_ka90ivi20r_2013__vray_microwave_box_2006-3_gray.png,random,fixed,n02818832_9,n02883344_15,Stimuli/canonical view 2/img_n02818832_9_gray.jpg,Stimuli/canonical view 2/img_n02883344_15_gray.jpg,random,left,Experiments/experiment_25/360.jpg,Experiments/experiment_25/361.jpg,Experiments/experiment_25/362.jpg,Experiments/experiment_25/363.jpg,,,right,"[""right""]",[0.4033000000118818],False,,0.0,0.0,90.0,90.0,90.0,1.0,,,,,,
,,,,,,,,,,,,,,,,,,,,,,,,,,201,1,2023-09-17_12h03.48.550,Occlusion_Psychophysics,2022.1.4,Win32,60.0024001,,,0.025,,,,,,,,,,Stimuli/psy_fixed_rotation_30_objects_occ0.7_0.9s/images/train/n02933112_4/n02883344_15/img_buffet_microwave_box_2012_gray.jpg,n02933112_4,n02883344_15,fixed,0.705493,n02933112_-2,Stimuli/psy_flexible_rotation_30_objects_occ0.7_0.9s/images/train/n04256520_5/n02933112_-2/img_meridiani_belmondo_bench_sofa_sink_base_white_wood_2008-3_gray.png,random,flexible,n02933112_4,n03928116_4,Stimuli/canonical view 2/img_n02933112_4_gray.jpg,Stimuli/canonical view 2/img_n03928116_4_gray.jpg,random,right,Experiments/experiment_25/364.jpg,Experiments/experiment_25/365.jpg,Experiments/experiment_25/366.jpg,Experiments/experiment_25/367.jpg,,,right,"[""right""]",[0.6010999999641626],False,,0.0,0.0,91.0,91.0,91.0,1.0,,,,,,
,,,,,,,,,,,,,,,,,,,,,,,,,,201,1,2023-09-17_12h03.48.550,Occlusion_Psychophysics,2022.1.4,Win32,60.0024001,,,0.05,,,,,,,,,,Stimuli/psy_fixed_rotation_30_objects_occ0.7_0.9s/images/train/n02818832_0/n02818832_3/img_b03_the_sofa_and_chair_company_-_stanley_bed_2014_b05_ccm_contemporary_bed_max2013_2006_gray.jpg,n02818832_0,n02818832_3,fixed,0.842211,n02828884_3,Stimuli/psy_flexible_rotation_30_objects_occ0.7_0.9s/images/train/n03928116_10/n02828884_3/img_ydp_103_r_2012__vray_b04_wood_metal_park_bench_2000-3_gray.png,random,flexible,n02818832_0,n02818832_3,Stimuli/canonical view 2/img_n02818832_0_gray.jpg,Stimuli/canonical view 2/img_n02818832_3_gray.jpg,foreground,right,Experiments/experiment_25/368.jpg,Experiments/experiment_25/369.jpg,Experiments/experiment_25/370.jpg,Experiments/experiment_25/371.jpg,,,right,"[""right""]",[0.7728000000118982],False,,0.0,0.0,92.0,92.0,92.0,1.0,,,,,,
,,,,,,,,,,,,,,,,,,,,,,,,,,201,1,2023-09-17_12h03.48.550,Occlusion_Psychophysics,2022.1.4,Win32,60.0024001,,,0.025,,,,,,,,,,Stimuli/psy_fixed_rotation_30_objects_occ0.7_0.9s/images/train/n02818832_9/n04379243_8/img_bed01_blue_glass_table_2000_gray.jpg,n02818832_9,n04379243_8,fixed,0.712529,n04405907_8,Stimuli/psy_fixed_rotation_30_objects_occ0.7_0.9s/images/train/n03001627_9/n04405907_8/img_chair_eames_plastic_armchair_stylized_tv_2005-3_gray.png,random,fixed,n02818832_9,n03001627_8,Stimuli/canonical view 2/img_n02818832_9_gray.jpg,Stimuli/canonical view 2/img_n03001627_8_gray.jpg,random,left,Experiments/experiment_25/372.jpg,Experiments/experiment_25/373.jpg,Experiments/experiment_25/374.jpg,Experiments/experiment_25/375.jpg,,,left,"[""left""]",[0.7465999999642463],False,,0.0,0.0,93.0,93.0,93.0,1.0,,,,,,
,,,,,,,,,,,,,,,,,,,,,,,,,,201,1,2023-09-17_12h03.48.550,Occlusion_Psychophysics,2022.1.4,Win32,60.0024001,,,0.05,,,,,,,,,,Stimuli/psy_fixed_rotation_30_objects_occ0.7_0.9s/images/train/n04379243_0/n02828884_3/img_17th_c._monastery_dining_table_2010_b04_wood_metal_park_bench_2004_gray.jpg,n04379243_0,n02828884_3,fixed,0.72862,n02828884_3,Stimuli/psy_fixed_rotation_30_objects_occ0.7_0.9s/images/train/n04379243_0/n02828884_3/img_17th_c._monastery_dining_table_2010_b04_wood_metal_park_bench_2004-3_gray.png,foreground,same as foreground,n04379243_0,n02828884_3,Stimuli/canonical view 2/img_n04379243_0_gray.jpg,Stimuli/canonical view 2/img_n02828884_3_gray.jpg,foreground,right,Experiments/experiment_25/376.jpg,Experiments/experiment_25/377.jpg,Experiments/experiment_25/378.jpg,Experiments/experiment_25/379.jpg,,,right,"[""right""]",[0.6259999999999764],False,,0.0,0.0,94.0,94.0,94.0,1.0,,,,,,
,,,,,,,,,,,,,,,,,,,,,,,,,,201,1,2023-09-17_12h03.48.550,Occlusion_Psychophysics,2022.1.4,Win32,60.0024001,,,0.05,,,,,,,,,,Stimuli/psy_flexible_rotation_30_objects_occ0.7_0.9s/images/train/n02818832_0/n04405907_5/img_b03_the_sofa_and_chair_company_-_stanley_bed_2014_samsung_40_uhd_smart_tv_2011_2008_gray.jpg,n02818832_0,n04405907_5,flexible,0.709269,n04405907_5,Stimuli/psy_flexible_rotation_30_objects_occ0.7_0.9s/images/train/n02818832_0/n04405907_5/img_b03_the_sofa_and_chair_company_-_stanley_bed_2014_samsung_40_uhd_smart_tv_2011_2008-3_gray.png,foreground,same as foreground,n02818832_0,n02828884_4,Stimuli/canonical view 2/img_n02818832_0_gray.jpg,Stimuli/canonical view 2/img_n02828884_4_gray.jpg,random,right,Experiments/experiment_25/380.jpg,Experiments/experiment_25/381.jpg,Experiments/experiment_25/382.jpg,Experiments/experiment_25/383.jpg,,,left,"[""left""]",[0.54200000000003],False,,0.0,0.0,95.0,95.0,95.0,1.0,,,,,,
,,,,,,,,,,,,,,,,,,,,,,,,,,201,1,2023-09-17_12h03.48.550,Occlusion_Psychophysics,2022.1.4,Win32,60.0024001,,,0.05,,,,,,,,,,Stimuli/psy_flexible_rotation_30_objects_occ0.7_0.9s/images/train/n04379243_-7/n02883344_15/img_quatre_dining_table_microwave_box_2002_gray.jpg,n04379243_-7,n02883344_15,flexible,0.828123,n02883344_15,Stimuli/psy_flexible_rotation_30_objects_occ0.7_0.9s/images/train/n04379243_-7/n02883344_15/img_quatre_dining_table_microwave_box_2002-3_gray.png,foreground,same as foreground,n04379243_-7,n03928116_4,Stimuli/canonical view 2/img_n04379243_-7_gray.jpg,Stimuli/canonical view 2/img_n03928116_4_gray.jpg,random,left,Experiments/experiment_25/384.jpg,Experiments/experiment_25/385.jpg,Experiments/experiment_25/386.jpg,Experiments/experiment_25/387.jpg,,,left,"[""right""]",[0.39740000003575915],False,,0.0,0.0,96.0,96.0,96.0,1.0,,,,,,
,,,,,,,,,,,,,,,,,,,,,,,,,,201,1,2023-09-17_12h03.48.550,Occlusion_Psychophysics,2022.1.4,Win32,60.0024001,,,0.025,,,,,,,,,,Stimuli/psy_fixed_rotation_30_objects_occ0.7_0.9s/images/train/n02828884_3/n04256520_9/img_b04_wood_metal_park_bench_napoleon_iii_sofa_2005_gray.jpg,n02828884_3,n04256520_9,fixed,0.706303,n04256520_9,Stimuli/psy_fixed_rotation_30_objects_occ0.7_0.9s/images/train/n02828884_3/n04256520_9/img_b04_wood_metal_park_bench_napoleon_iii_sofa_2005-3_gray.png,foreground,same as foreground,n02828884_3,n02883344_-1,Stimuli/canonical view 2/img_n02828884_3_gray.jpg,Stimuli/canonical view 2/img_n02883344_-1_gray.jpg,random,right,Experiments/experiment_25/388.jpg,Experiments/experiment_25/389.jpg,Experiments/experiment_25/390.jpg,Experiments/experiment_25/391.jpg,,,left,"[""right""]",[0.8677999999523536],False,,0.0,0.0,97.0,97.0,97.0,1.0,,,,,,
,,,,,,,,,,,,,,,,,,,,,,,,,,201,1,2023-09-17_12h03.48.550,Occlusion_Psychophysics,2022.1.4,Win32,60.0024001,,,0.025,,,,,,,,,,Stimuli/psy_flexible_rotation_30_objects_occ0.7_0.9s/images/train/n04256520_9/n04379243_-7/img_napoleon_iii_sofa_quatre_dining_table_2005_gray.jpg,n04256520_9,n04379243_-7,flexible,0.74338,n04405907_8,Stimuli/psy_fixed_rotation_30_objects_occ0.7_0.9s/images/train/n04379243_0/n04405907_8/img_17th_c._monastery_dining_table_2010_stylized_tv_2006-3_gray.png,random,fixed,n04256520_9,n04379243_-7,Stimuli/canonical view 2/img_n04256520_9_gray.jpg,Stimuli/canonical view 2/img_n04379243_-7_gray.jpg,foreground,left,Experiments/experiment_25/392.jpg,Experiments/experiment_25/393.jpg,Experiments/experiment_25/394.jpg,Experiments/experiment_25/395.jpg,,,left,"[""left""]",[0.9346000000238064],False,,0.0,0.0,98.0,98.0,98.0,1.0,,,,,,
,,,,,,,,,,,,,,,,,,,,,,,,,,201,1,2023-09-17_12h03.48.550,Occlusion_Psychophysics,2022.1.4,Win32,60.0024001,,,0.025,,,,,,,,,,Stimuli/psy_fixed_rotation_30_objects_occ0.7_0.9s/images/train/n04405907_9/n02883344_15/img_vray_004_microwave_box_2005_gray.jpg,n04405907_9,n02883344_15,fixed,0.757989,n03928116_0,Stimuli/psy_fixed_rotation_30_objects_occ0.7_0.9s/images/train/n02883344_15/n03928116_0/img_microwave_box_b02_piano_2012-3_gray.png,random,fixed,n04405907_9,n02883344_15,Stimuli/canonical view 2/img_n04405907_9_gray.jpg,Stimuli/canonical view 2/img_n02883344_15_gray.jpg,foreground,left,Experiments/experiment_25/396.jpg,Experiments/experiment_25/397.jpg,Experiments/experiment_25/398.jpg,Experiments/experiment_25/399.jpg,,,right,"[""left""]",[0.78810000002386],False,,0.0,0.0,99.0,99.0,99.0,1.0,,,,,,
,,,,,,,,,,,,,,,,,,,,,,,,,,201,1,2023-09-17_12h03.48.550,Occlusion_Psychophysics,2022.1.4,Win32,60.0024001,,,,,,,,,,,,,,,,,,,,,,,,,,,,,,,,,,,,,,,,,,,,,,0.0,0.0,0.0,0.0,1.0
,,,,,,,,,,,,,,,,,,,,,,,,,,201,1,2023-09-17_12h03.48.550,Occlusion_Psychophysics,2022.1.4,Win32,60.0024001,,,0.05,,,,,,,,,,Stimuli/psy_flexible_rotation_30_objects_occ0.7_0.9s/images/train/n02883344_15/n02933112_4/img_microwave_box_buffet_2001_gray.jpg,n02883344_15,n02933112_4,flexible,0.840912,n02933112_4,Stimuli/psy_flexible_rotation_30_objects_occ0.7_0.9s/images/train/n02883344_15/n02933112_4/img_microwave_box_buffet_2001-3_gray.png,foreground,same as foreground,n02883344_15,n02933112_-2,Stimuli/canonical view 2/img_n02883344_15_gray.jpg,Stimuli/canonical view 2/img_n02933112_-2_gray.jpg,random,left,Experiments/experiment_25/400.jpg,Experiments/experiment_25/401.jpg,Experiments/experiment_25/402.jpg,Experiments/experiment_25/403.jpg,,,left,"[""right""]",[0.7289000000357646],False,,0.0,0.0,0.0,0.0,0.0,1.0,,,,,,
,,,,,,,,,,,,,,,,,,,,,,,,,,201,1,2023-09-17_12h03.48.550,Occlusion_Psychophysics,2022.1.4,Win32,60.0024001,,,0.025,,,,,,,,,,Stimuli/psy_flexible_rotation_30_objects_occ0.7_0.9s/images/train/n04256520_4/n02818832_3/img_club_house_italia_nautilus_sofa_b05_ccm_contemporary_bed_max2013_2014_gray.jpg,n04256520_4,n02818832_3,flexible,0.810753,n02818832_3,Stimuli/psy_flexible_rotation_30_objects_occ0.7_0.9s/images/train/n04256520_4/n02818832_3/img_club_house_italia_nautilus_sofa_b05_ccm_contemporary_bed_max2013_2014-3_gray.png,foreground,same as foreground,n04256520_4,n02818832_3,Stimuli/canonical view 2/img_n04256520_4_gray.jpg,Stimuli/canonical view 2/img_n02818832_3_gray.jpg,foreground,right,Experiments/experiment_25/404.jpg,Experiments/experiment_25/405.jpg,Experiments/experiment_25/406.jpg,Experiments/experiment_25/407.jpg,,,right,"[""left""]",[0.7715999999642236],False,,0.0,0.0,1.0,1.0,1.0,1.0,,,,,,
,,,,,,,,,,,,,,,,,,,,,,,,,,201,1,2023-09-17_12h03.48.550,Occlusion_Psychophysics,2022.1.4,Win32,60.0024001,,,0.05,,,,,,,,,,Stimuli/psy_fixed_rotation_30_objects_occ0.7_0.9s/images/train/n02818832_0/n04405907_5/img_b03_the_sofa_and_chair_company_-_stanley_bed_2014_samsung_40_uhd_smart_tv_2011_2006_gray.jpg,n02818832_0,n04405907_5,fixed,0.725179,n04405907_5,Stimuli/psy_fixed_rotation_30_objects_occ0.7_0.9s/images/train/n02818832_0/n04405907_5/img_b03_the_sofa_and_chair_company_-_stanley_bed_2014_samsung_40_uhd_smart_tv_2011_2006-3_gray.png,foreground,same as foreground,n02818832_0,n03928116_0,Stimuli/canonical view 2/img_n02818832_0_gray.jpg,Stimuli/canonical view 2/img_n03928116_0_gray.jpg,random,left,Experiments/experiment_25/408.jpg,Experiments/experiment_25/409.jpg,Experiments/experiment_25/410.jpg,Experiments/experiment_25/411.jpg,,,right,"[""right""]",[0.9985000000000355],False,,0.0,0.0,2.0,2.0,2.0,1.0,,,,,,
,,,,,,,,,,,,,,,,,,,,,,,,,,201,1,2023-09-17_12h03.48.550,Occlusion_Psychophysics,2022.1.4,Win32,60.0024001,,,0.05,,,,,,,,,,Stimuli/psy_flexible_rotation_30_objects_occ0.7_0.9s/images/train/n02828884_9/n02933112_-2/img_cr-96_bench_sink_base_white_wood_2004_gray.jpg,n02828884_9,n02933112_-2,flexible,0.734188,n02818832_0,Stimuli/psy_flexible_rotation_30_objects_occ0.7_0.9s/images/train/n02818832_9/n02818832_0/img_bed01_blue_b03_the_sofa_and_chair_company_-_stanley_bed_2014_2000-3_gray.png,random,flexible,n02828884_9,n03001627_8,Stimuli/canonical view 2/img_n02828884_9_gray.jpg,Stimuli/canonical view 2/img_n03001627_8_gray.jpg,random,left,Experiments/experiment_25/412.jpg,Experiments/experiment_25/413.jpg,Experiments/experiment_25/414.jpg,Experiments/experiment_25/415.jpg,,,right,"[""right""]",[1.0598000000119328],False,,0.0,0.0,3.0,3.0,3.0,1.0,,,,,,
,,,,,,,,,,,,,,,,,,,,,,,,,,201,1,2023-09-17_12h03.48.550,Occlusion_Psychophysics,2022.1.4,Win32,60.0024001,,,0.025,,,,,,,,,,Stimuli/psy_fixed_rotation_30_objects_occ0.7_0.9s/images/train/n02883344_-1/n02933112_-18/img_woven_box_cgaxis_models_48_26_vray_composite_2005_gray.jpg,n02883344_-1,n02933112_-18,fixed,0.85311,n02933112_-18,Stimuli/psy_fixed_rotation_30_objects_occ0.7_0.9s/images/train/n02883344_-1/n02933112_-18/img_woven_box_cgaxis_models_48_26_vray_composite_2005-3_gray.png,foreground,same as foreground,n02883344_-1,n04256520_5,Stimuli/canonical view 2/img_n02883344_-1_gray.jpg,Stimuli/canonical view 2/img_n04256520_5_gray.jpg,random,right,Experiments/experiment_25/416.jpg,Experiments/experiment_25/417.jpg,Experiments/experiment_25/418.jpg,Experiments/experiment_25/419.jpg,,,left,"[""left""]",[0.6546999999881109],False,,0.0,0.0,4.0,4.0,4.0,1.0,,,,,,
,,,,,,,,,,,,,,,,,,,,,,,,,,201,1,2023-09-17_12h03.48.550,Occlusion_Psychophysics,2022.1.4,Win32,60.0024001,,,0.025,,,,,,,,,,Stimuli/psy_fixed_rotation_30_objects_occ0.7_0.9s/images/train/n04256520_4/n02883344_0/img_club_house_italia_nautilus_sofa_b03_box_2003_gray.jpg,n04256520_4,n02883344_0,fixed,0.78438,n02883344_15,Stimuli/psy_flexible_rotation_30_objects_occ0.7_0.9s/images/train/n03928116_0/n02883344_15/img_b02_piano_microwave_box_2006-3_gray.png,random,flexible,n04256520_4,n02883344_0,Stimuli/canonical view 2/img_n04256520_4_gray.jpg,Stimuli/canonical view 2/img_n02883344_0_gray.jpg,foreground,right,Experiments/experiment_25/420.jpg,Experiments/experiment_25/421.jpg,Experiments/experiment_25/422.jpg,Experiments/experiment_25/423.jpg,,,right,"[""left""]",[0.8254000000357564],False,,0.0,0.0,5.0,5.0,5.0,1.0,,,,,,
,,,,,,,,,,,,,,,,,,,,,,,,,,201,1,2023-09-17_12h03.48.550,Occlusion_Psychophysics,2022.1.4,Win32,60.0024001,,,0.05,,,,,,,,,,Stimuli/psy_fixed_rotation_30_objects_occ0.7_0.9s/images/train/n02818832_0/n04256520_5/img_b03_the_sofa_and_chair_company_-_stanley_bed_2014_meridiani_belmondo_bench_sofa_2010_gray.jpg,n02818832_0,n04256520_5,fixed,0.784414,n04256520_5,Stimuli/psy_fixed_rotation_30_objects_occ0.7_0.9s/images/train/n02818832_0/n04256520_5/img_b03_the_sofa_and_chair_company_-_stanley_bed_2014_meridiani_belmondo_bench_sofa_2010-3_gray.png,foreground,same as foreground,n02818832_0,n02818832_3,Stimuli/canonical view 2/img_n02818832_0_gray.jpg,Stimuli/canonical view 2/img_n02818832_3_gray.jpg,random,right,Experiments/experiment_25/424.jpg,Experiments/experiment_25/425.jpg,Experiments/experiment_25/426.jpg,Experiments/experiment_25/427.jpg,,,right,"[""left""]",[0.721599999964269],False,,0.0,0.0,6.0,6.0,6.0,1.0,,,,,,
,,,,,,,,,,,,,,,,,,,,,,,,,,201,1,2023-09-17_12h03.48.550,Occlusion_Psychophysics,2022.1.4,Win32,60.0024001,,,0.05,,,,,,,,,,Stimuli/psy_fixed_rotation_30_objects_occ0.7_0.9s/images/train/n02828884_9/n04256520_5/img_cr-96_bench_meridiani_belmondo_bench_sofa_2000_gray.jpg,n02828884_9,n04256520_5,fixed,0.709975,n02933112_4,Stimuli/psy_flexible_rotation_30_objects_occ0.7_0.9s/images/train/n04256520_5/n02933112_4/img_meridiani_belmondo_bench_sofa_buffet_2008-3_gray.png,random,flexible,n02828884_9,n04256520_5,Stimuli/canonical view 2/img_n02828884_9_gray.jpg,Stimuli/canonical view 2/img_n04256520_5_gray.jpg,foreground,right,Experiments/experiment_25/428.jpg,Experiments/experiment_25/429.jpg,Experiments/experiment_25/430.jpg,Experiments/experiment_25/431.jpg,,,left,"[""right""]",[0.6131999999880691],False,,0.0,0.0,7.0,7.0,7.0,1.0,,,,,,
,,,,,,,,,,,,,,,,,,,,,,,,,,201,1,2023-09-17_12h03.48.550,Occlusion_Psychophysics,2022.1.4,Win32,60.0024001,,,0.025,,,,,,,,,,Stimuli/psy_flexible_rotation_30_objects_occ0.7_0.9s/images/train/n03928116_10/n03928116_0/img_ydp_103_r_2012__vray_b02_piano_2001_gray.jpg,n03928116_10,n03928116_0,flexible,0.709914,n04256520_4,Stimuli/psy_flexible_rotation_30_objects_occ0.7_0.9s/images/train/n02883344_-1/n04256520_4/img_woven_box_club_house_italia_nautilus_sofa_2014-3_gray.png,random,flexible,n03928116_10,n03001627_9,Stimuli/canonical view 2/img_n03928116_10_gray.jpg,Stimuli/canonical view 2/img_n03001627_9_gray.jpg,random,right,Experiments/experiment_25/432.jpg,Experiments/experiment_25/433.jpg,Experiments/experiment_25/434.jpg,Experiments/experiment_25/435.jpg,,,right,"[""right""]",[1.0898999999761827],False,,0.0,0.0,8.0,8.0,8.0,1.0,,,,,,
,,,,,,,,,,,,,,,,,,,,,,,,,,201,1,2023-09-17_12h03.48.550,Occlusion_Psychophysics,2022.1.4,Win32,60.0024001,,,0.05,,,,,,,,,,Stimuli/psy_fixed_rotation_30_objects_occ0.7_0.9s/images/train/n02883344_0/n02818832_9/img_b03_box_bed01_blue_2002_gray.jpg,n02883344_0,n02818832_9,fixed,0.774821,n03001627_9,Stimuli/psy_fixed_rotation_30_objects_occ0.7_0.9s/images/train/n03001627_8/n03001627_9/img_chair_billiani_doll_chair_eames_plastic_armchair_2001-3_gray.png,random,fixed,n02883344_0,n02933112_4,Stimuli/canonical view 2/img_n02883344_0_gray.jpg,Stimuli/canonical view 2/img_n02933112_4_gray.jpg,random,right,Experiments/experiment_25/436.jpg,Experiments/experiment_25/437.jpg,Experiments/experiment_25/438.jpg,Experiments/experiment_25/439.jpg,,,right,"[""left""]",[0.5716000000238637],False,,0.0,0.0,9.0,9.0,9.0,1.0,,,,,,
,,,,,,,,,,,,,,,,,,,,,,,,,,201,1,2023-09-17_12h03.48.550,Occlusion_Psychophysics,2022.1.4,Win32,60.0024001,,,0.025,,,,,,,,,,Stimuli/psy_flexible_rotation_30_objects_occ0.7_0.9s/images/train/n02933112_4/n02933112_-2/img_buffet_sink_base_white_wood_2013_gray.jpg,n02933112_4,n02933112_-2,flexible,0.709884,n03001627_9,Stimuli/psy_flexible_rotation_30_objects_occ0.7_0.9s/images/train/n03928116_0/n03001627_9/img_b02_piano_chair_eames_plastic_armchair_2010-3_gray.png,random,flexible,n02933112_4,n02933112_-2,Stimuli/canonical view 2/img_n02933112_4_gray.jpg,Stimuli/canonical view 2/img_n02933112_-2_gray.jpg,foreground,left,Experiments/experiment_25/440.jpg,Experiments/experiment_25/441.jpg,Experiments/experiment_25/442.jpg,Experiments/experiment_25/443.jpg,,,right,"[""left""]",[0.7454000000357155],False,,0.0,0.0,10.0,10.0,10.0,1.0,,,,,,
,,,,,,,,,,,,,,,,,,,,,,,,,,201,1,2023-09-17_12h03.48.550,Occlusion_Psychophysics,2022.1.4,Win32,60.0024001,,,0.05,,,,,,,,,,Stimuli/psy_flexible_rotation_30_objects_occ0.7_0.9s/images/train/n04405907_8/n03928116_10/img_stylized_tv_ydp_103_r_2012__vray_2014_gray.jpg,n04405907_8,n03928116_10,flexible,0.780955,n02883344_0,Stimuli/psy_flexible_rotation_30_objects_occ0.7_0.9s/images/train/n04405907_8/n02883344_0/img_stylized_tv_b03_box_2002-3_gray.png,random,flexible,n04405907_8,n03928116_10,Stimuli/canonical view 2/img_n04405907_8_gray.jpg,Stimuli/canonical view 2/img_n03928116_10_gray.jpg,foreground,left,Experiments/experiment_25/444.jpg,Experiments/experiment_25/445.jpg,Experiments/experiment_25/446.jpg,Experiments/experiment_25/447.jpg,,,right,"[""left""]",[1.29669999998805],False,,0.0,0.0,11.0,11.0,11.0,1.0,,,,,,
,,,,,,,,,,,,,,,,,,,,,,,,,,201,1,2023-09-17_12h03.48.550,Occlusion_Psychophysics,2022.1.4,Win32,60.0024001,,,0.025,,,,,,,,,,Stimuli/psy_flexible_rotation_30_objects_occ0.7_0.9s/images/train/n02883344_0/n02828884_3/img_b03_box_b04_wood_metal_park_bench_2006_gray.jpg,n02883344_0,n02828884_3,flexible,0.768451,n02828884_3,Stimuli/psy_flexible_rotation_30_objects_occ0.7_0.9s/images/train/n02883344_0/n02828884_3/img_b03_box_b04_wood_metal_park_bench_2006-3_gray.png,foreground,same as foreground,n02883344_0,n02828884_3,Stimuli/canonical view 2/img_n02883344_0_gray.jpg,Stimuli/canonical view 2/img_n02828884_3_gray.jpg,foreground,left,Experiments/experiment_25/448.jpg,Experiments/experiment_25/449.jpg,Experiments/experiment_25/450.jpg,Experiments/experiment_25/451.jpg,,,left,"[""left""]",[0.7060000000000173],False,,0.0,0.0,12.0,12.0,12.0,1.0,,,,,,
