in_color,Instructions_key.keys,Instructions_key.rt,Tutorial_instruction_key.keys,Tutorial_instruction_key.rt,Tutorial_fixation_ley.keys,Tutorial_fixation_ley.rt,Tutorial_single_img_key.keys,Tutorial_single_img_key.rt,Tutorial_intra_trial_fixation_key.keys,Tutorial_intra_trial_fixation_key.rt,Tutorial_stimulus_key.keys,Tutorial_stimulus_key.rt,Tutorial_response_key.keys,Tutorial_response_key.rt,Tutorial_attention_check_key.keys,Tutorial_attention_check_key.rt,advance_or_repeat.keys,advance_or_repeat.rt,Practice_instructions_key.keys,Practice_instructions_key.rt,intra_trial_duration,Practice_key_response.keys,Practice_key_response.rt,Practice_react_key.keys,Practice_react_key.rt,Practice_loop.thisRepN,Practice_loop.thisTrialN,Practice_loop.thisN,Practice_loop.thisIndex,Practice_loop.ran,multi_object_filepath,background_id,foreground_id,multi_object_rotation,occlusion_level,single_object_id,single_object_filepath,single_is_foreground_or_random,single_object_rotation,background_choice_id,alt_choice_id,background_option_filepath,alternative_option_filepath,alternative_is_foreground_or_random,location_of_correct_answer,multi_object_exp_filename,single_object_exp_filename,background_option_exp_filename,alternative_option_exp_filename,participant,session,date,expName,psychopyVersion,OS,frameRate,Practice_end_key.keys,Practice_end_key.rt,correct_answer,Input_selection.keys,Input_selection.rt,Was_attention_check,Attention_check.keys,Attention_check.corr,Each_session_loop.thisRepN,Each_session_loop.thisTrialN,Each_session_loop.thisN,Each_session_loop.thisIndex,Each_session_loop.ran,Attention_check.rt,Num_sessions.thisRepN,Num_sessions.thisTrialN,Num_sessions.thisN,Num_sessions.thisIndex,Num_sessions.ran
False,space,79.8343,space,10.7749,space,13.2077,space,7.4837,space,4.6931,space,27.2094,space,20.7841,right,12.4416,a,9.3666,space,9.6501,0.05,right,1.0351,r,5.8984,0.0,0.0,0.0,0.0,1.0,Stimuli/psy_flexible_rotation_30_objects_occ0.7_0.9s/images/train/n03928116_10/n04405907_9/img_ydp_103_r_2012__vray_vray_004_2009_gray.jpg,n03928116_10,n04405907_9,flexible,0.723838,n04405907_9,Stimuli/psy_flexible_rotation_30_objects_occ0.7_0.9s/images/train/n03928116_10/n04405907_9/img_ydp_103_r_2012__vray_vray_004_2009-3_gray.png,foreground,same as foreground,n03928116_10,n04405907_9,Stimuli/canonical view 2/img_n03928116_10_gray.jpg,Stimuli/canonical view 2/img_n04405907_9_gray.jpg,foreground,left,Experiments/experiment_25/1000.jpg,Experiments/experiment_25/1001.jpg,Experiments/experiment_25/1002.jpg,Experiments/experiment_25/1003.jpg,227,1,2023-05-26_12h51.23.292,Occlusion_Psychophysics,2022.1.4,Win32,60.07088364,,,,,,,,,,,,,,,,,,,
,,,,,,,,,,,,,,,,,,,,,0.025,left,0.8633,r,5.7549,0.0,1.0,1.0,1.0,1.0,Stimuli/psy_fixed_rotation_30_objects_occ0.7_0.9s/images/train/n03001627_9/n02828884_3/img_chair_eames_plastic_armchair_b04_wood_metal_park_bench_2004_gray.jpg,n03001627_9,n02828884_3,fixed,0.715221,n02828884_3,Stimuli/psy_fixed_rotation_30_objects_occ0.7_0.9s/images/train/n03001627_9/n02828884_3/img_chair_eames_plastic_armchair_b04_wood_metal_park_bench_2004-3_gray.png,foreground,same as foreground,n03001627_9,n02828884_3,Stimuli/canonical view 2/img_n03001627_9_gray.jpg,Stimuli/canonical view 2/img_n02828884_3_gray.jpg,foreground,right,Experiments/experiment_25/1004.jpg,Experiments/experiment_25/1005.jpg,Experiments/experiment_25/1006.jpg,Experiments/experiment_25/1007.jpg,227,1,2023-05-26_12h51.23.292,Occlusion_Psychophysics,2022.1.4,Win32,60.07088364,,,,,,,,,,,,,,,,,,,
,,,,,,,,,,,,,,,,,,,,,0.05,right,0.851,r,5.0188,0.0,2.0,2.0,2.0,1.0,Stimuli/psy_fixed_rotation_30_objects_occ0.7_0.9s/images/train/n02883344_15/n04379243_0/img_microwave_box_17th_c._monastery_dining_table_2010_2005_gray.jpg,n02883344_15,n04379243_0,fixed,0.73623,n04379243_0,Stimuli/psy_fixed_rotation_30_objects_occ0.7_0.9s/images/train/n02883344_15/n04379243_0/img_microwave_box_17th_c._monastery_dining_table_2010_2005-3_gray.png,foreground,same as foreground,n02883344_15,n02933112_-18,Stimuli/canonical view 2/img_n02883344_15_gray.jpg,Stimuli/canonical view 2/img_n02933112_-18_gray.jpg,random,left,Experiments/experiment_25/1008.jpg,Experiments/experiment_25/1009.jpg,Experiments/experiment_25/1010.jpg,Experiments/experiment_25/1011.jpg,227,1,2023-05-26_12h51.23.292,Occlusion_Psychophysics,2022.1.4,Win32,60.07088364,,,,,,,,,,,,,,,,,,,
,,,,,,,,,,,,,,,,,,,,,0.025,left,0.8222,r,5.2277,0.0,3.0,3.0,3.0,1.0,Stimuli/psy_flexible_rotation_30_objects_occ0.7_0.9s/images/train/n04256520_4/n02828884_4/img_club_house_italia_nautilus_sofa_b05_c-5_classic_series_bench-2012_2012_gray.jpg,n04256520_4,n02828884_4,flexible,0.703229,n04405907_5,Stimuli/psy_flexible_rotation_30_objects_occ0.7_0.9s/images/train/n03928116_0/n04405907_5/img_b02_piano_samsung_40_uhd_smart_tv_2011_2004-3_gray.png,random,flexible,n04256520_4,n02818832_9,Stimuli/canonical view 2/img_n04256520_4_gray.jpg,Stimuli/canonical view 2/img_n02818832_9_gray.jpg,random,left,Experiments/experiment_25/1012.jpg,Experiments/experiment_25/1013.jpg,Experiments/experiment_25/1014.jpg,Experiments/experiment_25/1015.jpg,227,1,2023-05-26_12h51.23.292,Occlusion_Psychophysics,2022.1.4,Win32,60.07088364,,,,,,,,,,,,,,,,,,,
,,,,,,,,,,,,,,,,,,,,,0.025,right,1.2293,r,5.3735,0.0,4.0,4.0,4.0,1.0,Stimuli/psy_fixed_rotation_30_objects_occ0.7_0.9s/images/train/n04256520_5/n04256520_9/img_meridiani_belmondo_bench_sofa_napoleon_iii_sofa_2009_gray.jpg,n04256520_5,n04256520_9,fixed,0.740485,n02818832_3,Stimuli/psy_fixed_rotation_30_objects_occ0.7_0.9s/images/train/n04070727_5/n02818832_3/img_b05_db_apps_tech_06_13_composite_b05_ccm_contemporary_bed_max2013_2007-3_gray.png,random,fixed,n04256520_5,n02818832_9,Stimuli/canonical view 2/img_n04256520_5_gray.jpg,Stimuli/canonical view 2/img_n02818832_9_gray.jpg,random,right,Experiments/experiment_25/1016.jpg,Experiments/experiment_25/1017.jpg,Experiments/experiment_25/1018.jpg,Experiments/experiment_25/1019.jpg,227,1,2023-05-26_12h51.23.292,Occlusion_Psychophysics,2022.1.4,Win32,60.07088364,,,,,,,,,,,,,,,,,,,
,,,,,,,,,,,,,,,,,,,,,0.025,left,0.746,r,3.4274,0.0,5.0,5.0,5.0,1.0,Stimuli/psy_fixed_rotation_30_objects_occ0.7_0.9s/images/train/n03928116_10/n02818832_9/img_ydp_103_r_2012__vray_bed01_blue_2007_gray.jpg,n03928116_10,n02818832_9,fixed,0.727697,n02818832_9,Stimuli/psy_fixed_rotation_30_objects_occ0.7_0.9s/images/train/n03928116_10/n02818832_9/img_ydp_103_r_2012__vray_bed01_blue_2007-3_gray.png,foreground,same as foreground,n03928116_10,n04256520_4,Stimuli/canonical view 2/img_n03928116_10_gray.jpg,Stimuli/canonical view 2/img_n04256520_4_gray.jpg,random,right,Experiments/experiment_25/1020.jpg,Experiments/experiment_25/1021.jpg,Experiments/experiment_25/1022.jpg,Experiments/experiment_25/1023.jpg,227,1,2023-05-26_12h51.23.292,Occlusion_Psychophysics,2022.1.4,Win32,60.07088364,,,,,,,,,,,,,,,,,,,
,,,,,,,,,,,,,,,,,,,,,0.05,left,0.6842,r,4.7007,0.0,6.0,6.0,6.0,1.0,Stimuli/psy_fixed_rotation_30_objects_occ0.7_0.9s/images/train/n03001627_9/n04405907_5/img_chair_eames_plastic_armchair_samsung_40_uhd_smart_tv_2011_2002_gray.jpg,n03001627_9,n04405907_5,fixed,0.713079,n02883344_-1,Stimuli/psy_fixed_rotation_30_objects_occ0.7_0.9s/images/train/n04256520_5/n02883344_-1/img_meridiani_belmondo_bench_sofa_woven_box_2004-3_gray.png,random,fixed,n03001627_9,n04379243_8,Stimuli/canonical view 2/img_n03001627_9_gray.jpg,Stimuli/canonical view 2/img_n04379243_8_gray.jpg,random,left,Experiments/experiment_25/1024.jpg,Experiments/experiment_25/1025.jpg,Experiments/experiment_25/1026.jpg,Experiments/experiment_25/1027.jpg,227,1,2023-05-26_12h51.23.292,Occlusion_Psychophysics,2022.1.4,Win32,60.07088364,,,,,,,,,,,,,,,,,,,
,,,,,,,,,,,,,,,,,,,,,0.025,right,0.6138,a,3.9593,0.0,7.0,7.0,7.0,1.0,Stimuli/psy_flexible_rotation_30_objects_occ0.7_0.9s/images/train/n03928116_0/n04379243_0/img_b02_piano_17th_c._monastery_dining_table_2010_2002_gray.jpg,n03928116_0,n04379243_0,flexible,0.709658,n04405907_5,Stimuli/psy_fixed_rotation_30_objects_occ0.7_0.9s/images/train/n02828884_3/n04405907_5/img_b04_wood_metal_park_bench_samsung_40_uhd_smart_tv_2011_2013-3_gray.png,random,fixed,n03928116_0,n02818832_0,Stimuli/canonical view 2/img_n03928116_0_gray.jpg,Stimuli/canonical view 2/img_n02818832_0_gray.jpg,random,right,Experiments/experiment_25/1028.jpg,Experiments/experiment_25/1029.jpg,Experiments/experiment_25/1030.jpg,Experiments/experiment_25/1031.jpg,227,1,2023-05-26_12h51.23.292,Occlusion_Psychophysics,2022.1.4,Win32,60.07088364,,,,,,,,,,,,,,,,,,,
,,,,,,,,,,,,,,,,,,,,,0.05,,,,,,,,,,Stimuli/psy_flexible_rotation_30_objects_occ0.7_0.9s/images/train/n02828884_3/n04405907_8/img_b04_wood_metal_park_bench_stylized_tv_2002_gray.jpg,n02828884_3,n04405907_8,flexible,0.805676,n04405907_8,Stimuli/psy_flexible_rotation_30_objects_occ0.7_0.9s/images/train/n02828884_3/n04405907_8/img_b04_wood_metal_park_bench_stylized_tv_2002-3_gray.png,foreground,same as foreground,n02828884_3,n04256520_9,Stimuli/canonical view 2/img_n02828884_3_gray.jpg,Stimuli/canonical view 2/img_n04256520_9_gray.jpg,random,left,Experiments/experiment_25/0.jpg,Experiments/experiment_25/1.jpg,Experiments/experiment_25/2.jpg,Experiments/experiment_25/3.jpg,227,1,2023-05-26_12h51.23.292,Occlusion_Psychophysics,2022.1.4,Win32,60.07088364,space,4.0608,right,"[""left""]",[1.2414000000952683],False,,0.0,0.0,0.0,0.0,0.0,1.0,,,,,,
,,,,,,,,,,,,,,,,,,,,,0.025,,,,,,,,,,Stimuli/psy_fixed_rotation_30_objects_occ0.7_0.9s/images/train/n02828884_9/n03928116_0/img_cr-96_bench_b02_piano_2005_gray.jpg,n02828884_9,n03928116_0,fixed,0.752162,n03928116_0,Stimuli/psy_fixed_rotation_30_objects_occ0.7_0.9s/images/train/n02828884_9/n03928116_0/img_cr-96_bench_b02_piano_2005-3_gray.png,foreground,same as foreground,n02828884_9,n03001627_-2,Stimuli/canonical view 2/img_n02828884_9_gray.jpg,Stimuli/canonical view 2/img_n03001627_-2_gray.jpg,random,left,Experiments/experiment_25/4.jpg,Experiments/experiment_25/5.jpg,Experiments/experiment_25/6.jpg,Experiments/experiment_25/7.jpg,227,1,2023-05-26_12h51.23.292,Occlusion_Psychophysics,2022.1.4,Win32,60.07088364,,,right,"[""right""]",[0.7727000000477346],False,,0.0,0.0,1.0,1.0,1.0,1.0,,,,,,
,,,,,,,,,,,,,,,,,,,,,0.025,,,,,,,,,,Stimuli/psy_fixed_rotation_30_objects_occ0.7_0.9s/images/train/n04379243_8/n02818832_3/img_glass_table_b05_ccm_contemporary_bed_max2013_2011_gray.jpg,n04379243_8,n02818832_3,fixed,0.752155,n02818832_3,Stimuli/psy_fixed_rotation_30_objects_occ0.7_0.9s/images/train/n04379243_8/n02818832_3/img_glass_table_b05_ccm_contemporary_bed_max2013_2011-3_gray.png,foreground,same as foreground,n04379243_8,n02818832_3,Stimuli/canonical view 2/img_n04379243_8_gray.jpg,Stimuli/canonical view 2/img_n02818832_3_gray.jpg,foreground,right,Experiments/experiment_25/8.jpg,Experiments/experiment_25/9.jpg,Experiments/experiment_25/10.jpg,Experiments/experiment_25/11.jpg,227,1,2023-05-26_12h51.23.292,Occlusion_Psychophysics,2022.1.4,Win32,60.07088364,,,right,"[""right""]",[0.7736000001431194],False,,0.0,0.0,2.0,2.0,2.0,1.0,,,,,,
,,,,,,,,,,,,,,,,,,,,,0.05,,,,,,,,,,Stimuli/psy_fixed_rotation_30_objects_occ0.7_0.9s/images/train/n02883344_-1/n04405907_5/img_woven_box_samsung_40_uhd_smart_tv_2011_2000_gray.jpg,n02883344_-1,n04405907_5,fixed,0.817399,n04405907_5,Stimuli/psy_fixed_rotation_30_objects_occ0.7_0.9s/images/train/n02883344_-1/n04405907_5/img_woven_box_samsung_40_uhd_smart_tv_2011_2000-3_gray.png,foreground,same as foreground,n02883344_-1,n04405907_5,Stimuli/canonical view 2/img_n02883344_-1_gray.jpg,Stimuli/canonical view 2/img_n04405907_5_gray.jpg,foreground,left,Experiments/experiment_25/12.jpg,Experiments/experiment_25/13.jpg,Experiments/experiment_25/14.jpg,Experiments/experiment_25/15.jpg,227,1,2023-05-26_12h51.23.292,Occlusion_Psychophysics,2022.1.4,Win32,60.07088364,,,left,"[""left""]",[0.7297999999523199],False,,0.0,0.0,3.0,3.0,3.0,1.0,,,,,,
,,,,,,,,,,,,,,,,,,,,,0.025,,,,,,,,,,Stimuli/psy_flexible_rotation_30_objects_occ0.7_0.9s/images/train/n04379243_8/n03928116_10/img_glass_table_ydp_103_r_2012__vray_2010_gray.jpg,n04379243_8,n03928116_10,flexible,0.762732,n03928116_10,Stimuli/psy_flexible_rotation_30_objects_occ0.7_0.9s/images/train/n04379243_8/n03928116_10/img_glass_table_ydp_103_r_2012__vray_2010-3_gray.png,foreground,same as foreground,n04379243_8,n03928116_10,Stimuli/canonical view 2/img_n04379243_8_gray.jpg,Stimuli/canonical view 2/img_n03928116_10_gray.jpg,foreground,right,Experiments/experiment_25/16.jpg,Experiments/experiment_25/17.jpg,Experiments/experiment_25/18.jpg,Experiments/experiment_25/19.jpg,227,1,2023-05-26_12h51.23.292,Occlusion_Psychophysics,2022.1.4,Win32,60.07088364,,,right,"[""right""]",[0.5704999999999245],True,left,1.0,0.0,4.0,4.0,4.0,1.0,1.5983,,,,,
,,,,,,,,,,,,,,,,,,,,,0.05,,,,,,,,,,Stimuli/psy_fixed_rotation_30_objects_occ0.7_0.9s/images/train/n04256520_4/n04256520_5/img_club_house_italia_nautilus_sofa_meridiani_belmondo_bench_sofa_2010_gray.jpg,n04256520_4,n04256520_5,fixed,0.797266,n04379243_0,Stimuli/psy_fixed_rotation_30_objects_occ0.7_0.9s/images/train/n02828884_4/n04379243_0/img_b05_c-5_classic_series_bench-2012_17th_c._monastery_dining_table_2010_2002-3_gray.png,random,fixed,n04256520_4,n02883344_15,Stimuli/canonical view 2/img_n04256520_4_gray.jpg,Stimuli/canonical view 2/img_n02883344_15_gray.jpg,random,right,Experiments/experiment_25/20.jpg,Experiments/experiment_25/21.jpg,Experiments/experiment_25/22.jpg,Experiments/experiment_25/23.jpg,227,1,2023-05-26_12h51.23.292,Occlusion_Psychophysics,2022.1.4,Win32,60.07088364,,,left,"[""right""]",[1.1472000000476328],False,,0.0,0.0,5.0,5.0,5.0,1.0,,,,,,
,,,,,,,,,,,,,,,,,,,,,0.025,,,,,,,,,,Stimuli/psy_flexible_rotation_30_objects_occ0.7_0.9s/images/train/n02828884_9/n02883344_15/img_cr-96_bench_microwave_box_2001_gray.jpg,n02828884_9,n02883344_15,flexible,0.734403,n03928116_4,Stimuli/psy_fixed_rotation_30_objects_occ0.7_0.9s/images/train/n04379243_8/n03928116_4/img_glass_table_dp_33_b_2013__vray_2007-3_gray.png,random,fixed,n02828884_9,n02828884_3,Stimuli/canonical view 2/img_n02828884_9_gray.jpg,Stimuli/canonical view 2/img_n02828884_3_gray.jpg,random,left,Experiments/experiment_25/24.jpg,Experiments/experiment_25/25.jpg,Experiments/experiment_25/26.jpg,Experiments/experiment_25/27.jpg,227,1,2023-05-26_12h51.23.292,Occlusion_Psychophysics,2022.1.4,Win32,60.07088364,,,right,"[""left""]",[0.7519999999999527],False,,0.0,0.0,6.0,6.0,6.0,1.0,,,,,,
,,,,,,,,,,,,,,,,,,,,,0.05,,,,,,,,,,Stimuli/psy_fixed_rotation_30_objects_occ0.7_0.9s/images/train/n04256520_4/n04405907_5/img_club_house_italia_nautilus_sofa_samsung_40_uhd_smart_tv_2011_2014_gray.jpg,n04256520_4,n04405907_5,fixed,0.703837,n02883344_15,Stimuli/psy_fixed_rotation_30_objects_occ0.7_0.9s/images/train/n04070727_5/n02883344_15/img_b05_db_apps_tech_06_13_composite_microwave_box_2001-3_gray.png,random,fixed,n04256520_4,n04405907_5,Stimuli/canonical view 2/img_n04256520_4_gray.jpg,Stimuli/canonical view 2/img_n04405907_5_gray.jpg,foreground,right,Experiments/experiment_25/28.jpg,Experiments/experiment_25/29.jpg,Experiments/experiment_25/30.jpg,Experiments/experiment_25/31.jpg,227,1,2023-05-26_12h51.23.292,Occlusion_Psychophysics,2022.1.4,Win32,60.07088364,,,right,"[""left""]",[1.1127000000477665],False,,0.0,0.0,7.0,7.0,7.0,1.0,,,,,,
,,,,,,,,,,,,,,,,,,,,,0.025,,,,,,,,,,Stimuli/psy_flexible_rotation_30_objects_occ0.7_0.9s/images/train/n02828884_9/n03928116_0/img_cr-96_bench_b02_piano_2005_gray.jpg,n02828884_9,n03928116_0,flexible,0.734999,n04256520_5,Stimuli/psy_flexible_rotation_30_objects_occ0.7_0.9s/images/train/n02933112_-2/n04256520_5/img_sink_base_white_wood_meridiani_belmondo_bench_sofa_2003-3_gray.png,random,flexible,n02828884_9,n02828884_4,Stimuli/canonical view 2/img_n02828884_9_gray.jpg,Stimuli/canonical view 2/img_n02828884_4_gray.jpg,random,right,Experiments/experiment_25/32.jpg,Experiments/experiment_25/33.jpg,Experiments/experiment_25/34.jpg,Experiments/experiment_25/35.jpg,227,1,2023-05-26_12h51.23.292,Occlusion_Psychophysics,2022.1.4,Win32,60.07088364,,,left,"[""left""]",[1.080799999952319],True,left,1.0,0.0,8.0,8.0,8.0,1.0,1.2374,,,,,
,,,,,,,,,,,,,,,,,,,,,0.05,,,,,,,,,,Stimuli/psy_fixed_rotation_30_objects_occ0.7_0.9s/images/train/n04405907_8/n04405907_5/img_stylized_tv_samsung_40_uhd_smart_tv_2011_2002_gray.jpg,n04405907_8,n04405907_5,fixed,0.880198,n04405907_5,Stimuli/psy_fixed_rotation_30_objects_occ0.7_0.9s/images/train/n04405907_8/n04405907_5/img_stylized_tv_samsung_40_uhd_smart_tv_2011_2002-3_gray.png,foreground,same as foreground,n04405907_8,n04405907_5,Stimuli/canonical view 2/img_n04405907_8_gray.jpg,Stimuli/canonical view 2/img_n04405907_5_gray.jpg,foreground,left,Experiments/experiment_25/36.jpg,Experiments/experiment_25/37.jpg,Experiments/experiment_25/38.jpg,Experiments/experiment_25/39.jpg,227,1,2023-05-26_12h51.23.292,Occlusion_Psychophysics,2022.1.4,Win32,60.07088364,,,left,"[""left""]",[1.0045000000000073],False,,0.0,0.0,9.0,9.0,9.0,1.0,,,,,,
,,,,,,,,,,,,,,,,,,,,,0.025,,,,,,,,,,Stimuli/psy_flexible_rotation_30_objects_occ0.7_0.9s/images/train/n04256520_4/n02883344_-1/img_club_house_italia_nautilus_sofa_woven_box_2010_gray.jpg,n04256520_4,n02883344_-1,flexible,0.755131,n04256520_4,Stimuli/psy_fixed_rotation_30_objects_occ0.7_0.9s/images/train/n03001627_9/n04256520_4/img_chair_eames_plastic_armchair_club_house_italia_nautilus_sofa_2011-3_gray.png,random,fixed,n04256520_4,n04405907_9,Stimuli/canonical view 2/img_n04256520_4_gray.jpg,Stimuli/canonical view 2/img_n04405907_9_gray.jpg,random,right,Experiments/experiment_25/40.jpg,Experiments/experiment_25/41.jpg,Experiments/experiment_25/42.jpg,Experiments/experiment_25/43.jpg,227,1,2023-05-26_12h51.23.292,Occlusion_Psychophysics,2022.1.4,Win32,60.07088364,,,right,"[""left""]",[0.9213999998569307],False,,0.0,0.0,10.0,10.0,10.0,1.0,,,,,,
,,,,,,,,,,,,,,,,,,,,,0.025,,,,,,,,,,Stimuli/psy_flexible_rotation_30_objects_occ0.7_0.9s/images/train/n02818832_0/n04405907_9/img_b03_the_sofa_and_chair_company_-_stanley_bed_2014_vray_004_2014_gray.jpg,n02818832_0,n04405907_9,flexible,0.717949,n02818832_3,Stimuli/psy_fixed_rotation_30_objects_occ0.7_0.9s/images/train/n02883344_-1/n02818832_3/img_woven_box_b05_ccm_contemporary_bed_max2013_2011-3_gray.png,random,fixed,n02818832_0,n02883344_-1,Stimuli/canonical view 2/img_n02818832_0_gray.jpg,Stimuli/canonical view 2/img_n02883344_-1_gray.jpg,random,right,Experiments/experiment_25/44.jpg,Experiments/experiment_25/45.jpg,Experiments/experiment_25/46.jpg,Experiments/experiment_25/47.jpg,227,1,2023-05-26_12h51.23.292,Occlusion_Psychophysics,2022.1.4,Win32,60.07088364,,,right,"[""right""]",[0.9473000001908076],False,,0.0,0.0,11.0,11.0,11.0,1.0,,,,,,
,,,,,,,,,,,,,,,,,,,,,0.05,,,,,,,,,,Stimuli/psy_flexible_rotation_30_objects_occ0.7_0.9s/images/train/n02818832_0/n04405907_9/img_b03_the_sofa_and_chair_company_-_stanley_bed_2014_vray_004_2005_gray.jpg,n02818832_0,n04405907_9,flexible,0.838316,n04405907_9,Stimuli/psy_flexible_rotation_30_objects_occ0.7_0.9s/images/train/n02818832_0/n04405907_9/img_b03_the_sofa_and_chair_company_-_stanley_bed_2014_vray_004_2005-3_gray.png,foreground,same as foreground,n02818832_0,n04405907_9,Stimuli/canonical view 2/img_n02818832_0_gray.jpg,Stimuli/canonical view 2/img_n04405907_9_gray.jpg,foreground,left,Experiments/experiment_25/48.jpg,Experiments/experiment_25/49.jpg,Experiments/experiment_25/50.jpg,Experiments/experiment_25/51.jpg,227,1,2023-05-26_12h51.23.292,Occlusion_Psychophysics,2022.1.4,Win32,60.07088364,,,left,"[""left""]",[0.7802999999522626],False,,0.0,0.0,12.0,12.0,12.0,1.0,,,,,,
,,,,,,,,,,,,,,,,,,,,,0.05,,,,,,,,,,Stimuli/psy_flexible_rotation_30_objects_occ0.7_0.9s/images/train/n04379243_8/n02933112_-2/img_glass_table_sink_base_white_wood_2013_gray.jpg,n04379243_8,n02933112_-2,flexible,0.738069,n02933112_-2,Stimuli/psy_flexible_rotation_30_objects_occ0.7_0.9s/images/train/n04379243_8/n02933112_-2/img_glass_table_sink_base_white_wood_2013-3_gray.png,foreground,same as foreground,n04379243_8,n02933112_-2,Stimuli/canonical view 2/img_n04379243_8_gray.jpg,Stimuli/canonical view 2/img_n02933112_-2_gray.jpg,foreground,right,Experiments/experiment_25/52.jpg,Experiments/experiment_25/53.jpg,Experiments/experiment_25/54.jpg,Experiments/experiment_25/55.jpg,227,1,2023-05-26_12h51.23.292,Occlusion_Psychophysics,2022.1.4,Win32,60.07088364,,,left,"[""left""]",[1.125],False,,0.0,0.0,13.0,13.0,13.0,1.0,,,,,,
,,,,,,,,,,,,,,,,,,,,,0.025,,,,,,,,,,Stimuli/psy_flexible_rotation_30_objects_occ0.7_0.9s/images/train/n03001627_8/n02933112_-2/img_chair_billiani_doll_sink_base_white_wood_2010_gray.jpg,n03001627_8,n02933112_-2,flexible,0.710752,n02883344_15,Stimuli/psy_flexible_rotation_30_objects_occ0.7_0.9s/images/train/n04405907_9/n02883344_15/img_vray_004_microwave_box_2015-3_gray.png,random,flexible,n03001627_8,n02933112_-18,Stimuli/canonical view 2/img_n03001627_8_gray.jpg,Stimuli/canonical view 2/img_n02933112_-18_gray.jpg,random,right,Experiments/experiment_25/56.jpg,Experiments/experiment_25/57.jpg,Experiments/experiment_25/58.jpg,Experiments/experiment_25/59.jpg,227,1,2023-05-26_12h51.23.292,Occlusion_Psychophysics,2022.1.4,Win32,60.07088364,,,left,"[""right""]",[1.1957000000476228],False,,0.0,0.0,14.0,14.0,14.0,1.0,,,,,,
,,,,,,,,,,,,,,,,,,,,,0.05,,,,,,,,,,Stimuli/psy_fixed_rotation_30_objects_occ0.7_0.9s/images/train/n04256520_9/n04405907_9/img_napoleon_iii_sofa_vray_004_2008_gray.jpg,n04256520_9,n04405907_9,fixed,0.716079,n02883344_0,Stimuli/psy_flexible_rotation_30_objects_occ0.7_0.9s/images/train/n02933112_4/n02883344_0/img_buffet_b03_box_2003-3_gray.png,random,flexible,n04256520_9,n02883344_15,Stimuli/canonical view 2/img_n04256520_9_gray.jpg,Stimuli/canonical view 2/img_n02883344_15_gray.jpg,random,left,Experiments/experiment_25/60.jpg,Experiments/experiment_25/61.jpg,Experiments/experiment_25/62.jpg,Experiments/experiment_25/63.jpg,227,1,2023-05-26_12h51.23.292,Occlusion_Psychophysics,2022.1.4,Win32,60.07088364,,,left,"[""left""]",[1.1398999998568797],False,,0.0,0.0,15.0,15.0,15.0,1.0,,,,,,
,,,,,,,,,,,,,,,,,,,,,0.025,,,,,,,,,,Stimuli/psy_fixed_rotation_30_objects_occ0.7_0.9s/images/train/n02933112_-18/n03001627_8/img_cgaxis_models_48_26_vray_composite_chair_billiani_doll_2010_gray.jpg,n02933112_-18,n03001627_8,fixed,0.719836,n03001627_8,Stimuli/psy_fixed_rotation_30_objects_occ0.7_0.9s/images/train/n02933112_-18/n03001627_8/img_cgaxis_models_48_26_vray_composite_chair_billiani_doll_2010-3_gray.png,foreground,same as foreground,n02933112_-18,n03001627_8,Stimuli/canonical view 2/img_n02933112_-18_gray.jpg,Stimuli/canonical view 2/img_n03001627_8_gray.jpg,foreground,left,Experiments/experiment_25/64.jpg,Experiments/experiment_25/65.jpg,Experiments/experiment_25/66.jpg,Experiments/experiment_25/67.jpg,227,1,2023-05-26_12h51.23.292,Occlusion_Psychophysics,2022.1.4,Win32,60.07088364,,,right,"[""right""]",[1.0272999999523336],False,,0.0,0.0,16.0,16.0,16.0,1.0,,,,,,
,,,,,,,,,,,,,,,,,,,,,0.05,,,,,,,,,,Stimuli/psy_fixed_rotation_30_objects_occ0.7_0.9s/images/train/n03928116_0/n04256520_5/img_b02_piano_meridiani_belmondo_bench_sofa_2006_gray.jpg,n03928116_0,n04256520_5,fixed,0.705537,n04256520_5,Stimuli/psy_fixed_rotation_30_objects_occ0.7_0.9s/images/train/n03928116_0/n04256520_5/img_b02_piano_meridiani_belmondo_bench_sofa_2006-3_gray.png,foreground,same as foreground,n03928116_0,n04405907_9,Stimuli/canonical view 2/img_n03928116_0_gray.jpg,Stimuli/canonical view 2/img_n04405907_9_gray.jpg,random,left,Experiments/experiment_25/68.jpg,Experiments/experiment_25/69.jpg,Experiments/experiment_25/70.jpg,Experiments/experiment_25/71.jpg,227,1,2023-05-26_12h51.23.292,Occlusion_Psychophysics,2022.1.4,Win32,60.07088364,,,left,"[""left""]",[0.7215999999046971],False,,0.0,0.0,17.0,17.0,17.0,1.0,,,,,,
,,,,,,,,,,,,,,,,,,,,,0.025,,,,,,,,,,Stimuli/psy_flexible_rotation_30_objects_occ0.7_0.9s/images/train/n02883344_0/n04256520_4/img_b03_box_club_house_italia_nautilus_sofa_2001_gray.jpg,n02883344_0,n04256520_4,flexible,0.760688,n02883344_0,Stimuli/psy_fixed_rotation_30_objects_occ0.7_0.9s/images/train/n03928116_10/n02883344_0/img_ydp_103_r_2012__vray_b03_box_2012-3_gray.png,random,fixed,n02883344_0,n04256520_4,Stimuli/canonical view 2/img_n02883344_0_gray.jpg,Stimuli/canonical view 2/img_n04256520_4_gray.jpg,foreground,left,Experiments/experiment_25/72.jpg,Experiments/experiment_25/73.jpg,Experiments/experiment_25/74.jpg,Experiments/experiment_25/75.jpg,227,1,2023-05-26_12h51.23.292,Occlusion_Psychophysics,2022.1.4,Win32,60.07088364,,,left,"[""left""]",[0.6207999999522826],False,,0.0,0.0,18.0,18.0,18.0,1.0,,,,,,
,,,,,,,,,,,,,,,,,,,,,0.025,,,,,,,,,,Stimuli/psy_flexible_rotation_30_objects_occ0.7_0.9s/images/train/n02818832_9/n02883344_0/img_bed01_blue_b03_box_2004_gray.jpg,n02818832_9,n02883344_0,flexible,0.738952,n02933112_-18,Stimuli/psy_fixed_rotation_30_objects_occ0.7_0.9s/images/train/n02883344_-1/n02933112_-18/img_woven_box_cgaxis_models_48_26_vray_composite_2013-3_gray.png,random,fixed,n02818832_9,n02883344_0,Stimuli/canonical view 2/img_n02818832_9_gray.jpg,Stimuli/canonical view 2/img_n02883344_0_gray.jpg,foreground,right,Experiments/experiment_25/76.jpg,Experiments/experiment_25/77.jpg,Experiments/experiment_25/78.jpg,Experiments/experiment_25/79.jpg,227,1,2023-05-26_12h51.23.292,Occlusion_Psychophysics,2022.1.4,Win32,60.07088364,,,left,"[""left""]",[1.1843999998568506],False,,0.0,0.0,19.0,19.0,19.0,1.0,,,,,,
,,,,,,,,,,,,,,,,,,,,,0.025,,,,,,,,,,Stimuli/psy_flexible_rotation_30_objects_occ0.7_0.9s/images/train/n02828884_4/n04405907_8/img_b05_c-5_classic_series_bench-2012_stylized_tv_2010_gray.jpg,n02828884_4,n04405907_8,flexible,0.716842,n04405907_8,Stimuli/psy_flexible_rotation_30_objects_occ0.7_0.9s/images/train/n02828884_4/n04405907_8/img_b05_c-5_classic_series_bench-2012_stylized_tv_2010-3_gray.png,foreground,same as foreground,n02828884_4,n04379243_0,Stimuli/canonical view 2/img_n02828884_4_gray.jpg,Stimuli/canonical view 2/img_n04379243_0_gray.jpg,random,right,Experiments/experiment_25/80.jpg,Experiments/experiment_25/81.jpg,Experiments/experiment_25/82.jpg,Experiments/experiment_25/83.jpg,227,1,2023-05-26_12h51.23.292,Occlusion_Psychophysics,2022.1.4,Win32,60.07088364,,,left,"[""right""]",[0.8917000000476492],False,,0.0,0.0,20.0,20.0,20.0,1.0,,,,,,
,,,,,,,,,,,,,,,,,,,,,0.05,,,,,,,,,,Stimuli/psy_fixed_rotation_30_objects_occ0.7_0.9s/images/train/n04405907_9/n02818832_3/img_vray_004_b05_ccm_contemporary_bed_max2013_2010_gray.jpg,n04405907_9,n02818832_3,fixed,0.720893,n02818832_3,Stimuli/psy_fixed_rotation_30_objects_occ0.7_0.9s/images/train/n04405907_9/n02818832_3/img_vray_004_b05_ccm_contemporary_bed_max2013_2010-3_gray.png,foreground,same as foreground,n04405907_9,n02818832_3,Stimuli/canonical view 2/img_n04405907_9_gray.jpg,Stimuli/canonical view 2/img_n02818832_3_gray.jpg,foreground,right,Experiments/experiment_25/84.jpg,Experiments/experiment_25/85.jpg,Experiments/experiment_25/86.jpg,Experiments/experiment_25/87.jpg,227,1,2023-05-26_12h51.23.292,Occlusion_Psychophysics,2022.1.4,Win32,60.07088364,,,left,"[""left""]",[1.2540999999047244],False,,0.0,0.0,21.0,21.0,21.0,1.0,,,,,,
,,,,,,,,,,,,,,,,,,,,,0.025,,,,,,,,,,Stimuli/psy_fixed_rotation_30_objects_occ0.7_0.9s/images/train/n04256520_5/n02883344_15/img_meridiani_belmondo_bench_sofa_microwave_box_2015_gray.jpg,n04256520_5,n02883344_15,fixed,0.794334,n04405907_9,Stimuli/psy_flexible_rotation_30_objects_occ0.7_0.9s/images/train/n03928116_0/n04405907_9/img_b02_piano_vray_004_2014-3_gray.png,random,flexible,n04256520_5,n04379243_8,Stimuli/canonical view 2/img_n04256520_5_gray.jpg,Stimuli/canonical view 2/img_n04379243_8_gray.jpg,random,left,Experiments/experiment_25/88.jpg,Experiments/experiment_25/89.jpg,Experiments/experiment_25/90.jpg,Experiments/experiment_25/91.jpg,227,1,2023-05-26_12h51.23.292,Occlusion_Psychophysics,2022.1.4,Win32,60.07088364,,,left,"[""left""]",[0.9205000000000609],False,,0.0,0.0,22.0,22.0,22.0,1.0,,,,,,
,,,,,,,,,,,,,,,,,,,,,0.05,,,,,,,,,,Stimuli/psy_flexible_rotation_30_objects_occ0.7_0.9s/images/train/n02818832_9/n02933112_-18/img_bed01_blue_cgaxis_models_48_26_vray_composite_2009_gray.jpg,n02818832_9,n02933112_-18,flexible,0.759926,n02933112_-18,Stimuli/psy_flexible_rotation_30_objects_occ0.7_0.9s/images/train/n02818832_9/n02933112_-18/img_bed01_blue_cgaxis_models_48_26_vray_composite_2009-3_gray.png,foreground,same as foreground,n02818832_9,n02933112_-2,Stimuli/canonical view 2/img_n02818832_9_gray.jpg,Stimuli/canonical view 2/img_n02933112_-2_gray.jpg,random,right,Experiments/experiment_25/92.jpg,Experiments/experiment_25/93.jpg,Experiments/experiment_25/94.jpg,Experiments/experiment_25/95.jpg,227,1,2023-05-26_12h51.23.292,Occlusion_Psychophysics,2022.1.4,Win32,60.07088364,,,right,"[""right""]",[0.8924999999999272],False,,0.0,0.0,23.0,23.0,23.0,1.0,,,,,,
,,,,,,,,,,,,,,,,,,,,,0.025,,,,,,,,,,Stimuli/psy_flexible_rotation_30_objects_occ0.7_0.9s/images/train/n02828884_4/n02883344_-1/img_b05_c-5_classic_series_bench-2012_woven_box_2014_gray.jpg,n02828884_4,n02883344_-1,flexible,0.789708,n04379243_8,Stimuli/psy_flexible_rotation_30_objects_occ0.7_0.9s/images/train/n04256520_5/n04379243_8/img_meridiani_belmondo_bench_sofa_glass_table_2006-3_gray.png,random,flexible,n02828884_4,n02883344_-1,Stimuli/canonical view 2/img_n02828884_4_gray.jpg,Stimuli/canonical view 2/img_n02883344_-1_gray.jpg,foreground,right,Experiments/experiment_25/96.jpg,Experiments/experiment_25/97.jpg,Experiments/experiment_25/98.jpg,Experiments/experiment_25/99.jpg,227,1,2023-05-26_12h51.23.292,Occlusion_Psychophysics,2022.1.4,Win32,60.07088364,,,right,"[""right""]",[0.8035999999046908],False,,0.0,0.0,24.0,24.0,24.0,1.0,,,,,,
,,,,,,,,,,,,,,,,,,,,,0.05,,,,,,,,,,Stimuli/psy_fixed_rotation_30_objects_occ0.7_0.9s/images/train/n02933112_-2/n04405907_8/img_sink_base_white_wood_stylized_tv_2003_gray.jpg,n02933112_-2,n04405907_8,fixed,0.80783,n04405907_8,Stimuli/psy_fixed_rotation_30_objects_occ0.7_0.9s/images/train/n02933112_-2/n04405907_8/img_sink_base_white_wood_stylized_tv_2003-3_gray.png,foreground,same as foreground,n02933112_-2,n04405907_8,Stimuli/canonical view 2/img_n02933112_-2_gray.jpg,Stimuli/canonical view 2/img_n04405907_8_gray.jpg,foreground,right,Experiments/experiment_25/100.jpg,Experiments/experiment_25/101.jpg,Experiments/experiment_25/102.jpg,Experiments/experiment_25/103.jpg,227,1,2023-05-26_12h51.23.292,Occlusion_Psychophysics,2022.1.4,Win32,60.07088364,,,left,"[""left""]",[0.7117000000476992],False,,0.0,0.0,25.0,25.0,25.0,1.0,,,,,,
,,,,,,,,,,,,,,,,,,,,,0.05,,,,,,,,,,Stimuli/psy_fixed_rotation_30_objects_occ0.7_0.9s/images/train/n02828884_3/n02818832_0/img_b04_wood_metal_park_bench_b03_the_sofa_and_chair_company_-_stanley_bed_2014_2000_gray.jpg,n02828884_3,n02818832_0,fixed,0.703305,n02818832_0,Stimuli/psy_fixed_rotation_30_objects_occ0.7_0.9s/images/train/n02828884_3/n02818832_0/img_b04_wood_metal_park_bench_b03_the_sofa_and_chair_company_-_stanley_bed_2014_2000-3_gray.png,foreground,same as foreground,n02828884_3,n03001627_8,Stimuli/canonical view 2/img_n02828884_3_gray.jpg,Stimuli/canonical view 2/img_n03001627_8_gray.jpg,random,right,Experiments/experiment_25/104.jpg,Experiments/experiment_25/105.jpg,Experiments/experiment_25/106.jpg,Experiments/experiment_25/107.jpg,227,1,2023-05-26_12h51.23.292,Occlusion_Psychophysics,2022.1.4,Win32,60.07088364,,,right,"[""right""]",[0.9256999998093534],False,,0.0,0.0,26.0,26.0,26.0,1.0,,,,,,
,,,,,,,,,,,,,,,,,,,,,0.025,,,,,,,,,,Stimuli/psy_fixed_rotation_30_objects_occ0.7_0.9s/images/train/n02933112_-2/n02818832_3/img_sink_base_white_wood_b05_ccm_contemporary_bed_max2013_2000_gray.jpg,n02933112_-2,n02818832_3,fixed,0.771726,n02818832_3,Stimuli/psy_fixed_rotation_30_objects_occ0.7_0.9s/images/train/n02933112_-2/n02818832_3/img_sink_base_white_wood_b05_ccm_contemporary_bed_max2013_2000-3_gray.png,foreground,same as foreground,n02933112_-2,n04379243_8,Stimuli/canonical view 2/img_n02933112_-2_gray.jpg,Stimuli/canonical view 2/img_n04379243_8_gray.jpg,random,right,Experiments/experiment_25/108.jpg,Experiments/experiment_25/109.jpg,Experiments/experiment_25/110.jpg,Experiments/experiment_25/111.jpg,227,1,2023-05-26_12h51.23.292,Occlusion_Psychophysics,2022.1.4,Win32,60.07088364,,,left,"[""left""]",[0.8087000000476792],False,,0.0,0.0,27.0,27.0,27.0,1.0,,,,,,
,,,,,,,,,,,,,,,,,,,,,0.025,,,,,,,,,,Stimuli/psy_flexible_rotation_30_objects_occ0.7_0.9s/images/train/n02818832_0/n02818832_9/img_b03_the_sofa_and_chair_company_-_stanley_bed_2014_bed01_blue_2014_gray.jpg,n02818832_0,n02818832_9,flexible,0.845482,n04379243_-7,Stimuli/psy_fixed_rotation_30_objects_occ0.7_0.9s/images/train/n04256520_9/n04379243_-7/img_napoleon_iii_sofa_quatre_dining_table_2008-3_gray.png,random,fixed,n02818832_0,n02818832_9,Stimuli/canonical view 2/img_n02818832_0_gray.jpg,Stimuli/canonical view 2/img_n02818832_9_gray.jpg,foreground,right,Experiments/experiment_25/112.jpg,Experiments/experiment_25/113.jpg,Experiments/experiment_25/114.jpg,Experiments/experiment_25/115.jpg,227,1,2023-05-26_12h51.23.292,Occlusion_Psychophysics,2022.1.4,Win32,60.07088364,,,left,"[""right""]",[0.7735999999046044],False,,0.0,0.0,28.0,28.0,28.0,1.0,,,,,,
,,,,,,,,,,,,,,,,,,,,,0.05,,,,,,,,,,Stimuli/psy_flexible_rotation_30_objects_occ0.7_0.9s/images/train/n04405907_9/n04256520_4/img_vray_004_club_house_italia_nautilus_sofa_2002_gray.jpg,n04405907_9,n04256520_4,flexible,0.74721,n04256520_4,Stimuli/psy_flexible_rotation_30_objects_occ0.7_0.9s/images/train/n04405907_9/n04256520_4/img_vray_004_club_house_italia_nautilus_sofa_2002-3_gray.png,foreground,same as foreground,n04405907_9,n02818832_0,Stimuli/canonical view 2/img_n04405907_9_gray.jpg,Stimuli/canonical view 2/img_n02818832_0_gray.jpg,random,right,Experiments/experiment_25/116.jpg,Experiments/experiment_25/117.jpg,Experiments/experiment_25/118.jpg,Experiments/experiment_25/119.jpg,227,1,2023-05-26_12h51.23.292,Occlusion_Psychophysics,2022.1.4,Win32,60.07088364,,,right,"[""right""]",[0.9092999999522817],False,,0.0,0.0,29.0,29.0,29.0,1.0,,,,,,
,,,,,,,,,,,,,,,,,,,,,0.025,,,,,,,,,,Stimuli/psy_flexible_rotation_30_objects_occ0.7_0.9s/images/train/n02828884_4/n02883344_-1/img_b05_c-5_classic_series_bench-2012_woven_box_2006_gray.jpg,n02828884_4,n02883344_-1,flexible,0.744169,n02883344_-1,Stimuli/psy_flexible_rotation_30_objects_occ0.7_0.9s/images/train/n02828884_4/n02883344_-1/img_b05_c-5_classic_series_bench-2012_woven_box_2006-3_gray.png,foreground,same as foreground,n02828884_4,n02883344_-1,Stimuli/canonical view 2/img_n02828884_4_gray.jpg,Stimuli/canonical view 2/img_n02883344_-1_gray.jpg,foreground,left,Experiments/experiment_25/120.jpg,Experiments/experiment_25/121.jpg,Experiments/experiment_25/122.jpg,Experiments/experiment_25/123.jpg,227,1,2023-05-26_12h51.23.292,Occlusion_Psychophysics,2022.1.4,Win32,60.07088364,,,right,"[""right""]",[0.8036000001430921],False,,0.0,0.0,30.0,30.0,30.0,1.0,,,,,,
,,,,,,,,,,,,,,,,,,,,,0.025,,,,,,,,,,Stimuli/psy_fixed_rotation_30_objects_occ0.7_0.9s/images/train/n03928116_10/n04256520_4/img_ydp_103_r_2012__vray_club_house_italia_nautilus_sofa_2006_gray.jpg,n03928116_10,n04256520_4,fixed,0.890439,n04256520_4,Stimuli/psy_fixed_rotation_30_objects_occ0.7_0.9s/images/train/n03928116_10/n04256520_4/img_ydp_103_r_2012__vray_club_house_italia_nautilus_sofa_2006-3_gray.png,foreground,same as foreground,n03928116_10,n04256520_4,Stimuli/canonical view 2/img_n03928116_10_gray.jpg,Stimuli/canonical view 2/img_n04256520_4_gray.jpg,foreground,right,Experiments/experiment_25/124.jpg,Experiments/experiment_25/125.jpg,Experiments/experiment_25/126.jpg,Experiments/experiment_25/127.jpg,227,1,2023-05-26_12h51.23.292,Occlusion_Psychophysics,2022.1.4,Win32,60.07088364,,,right,"[""right""]",[1.3736999998093324],False,,0.0,0.0,31.0,31.0,31.0,1.0,,,,,,
,,,,,,,,,,,,,,,,,,,,,0.025,,,,,,,,,,Stimuli/psy_flexible_rotation_30_objects_occ0.7_0.9s/images/train/n02933112_-18/n02818832_9/img_cgaxis_models_48_26_vray_composite_bed01_blue_2010_gray.jpg,n02933112_-18,n02818832_9,flexible,0.84007,n04405907_5,Stimuli/psy_flexible_rotation_30_objects_occ0.7_0.9s/images/train/n02883344_-1/n04405907_5/img_woven_box_samsung_40_uhd_smart_tv_2011_2008-3_gray.png,random,flexible,n02933112_-18,n02828884_9,Stimuli/canonical view 2/img_n02933112_-18_gray.jpg,Stimuli/canonical view 2/img_n02828884_9_gray.jpg,random,right,Experiments/experiment_25/128.jpg,Experiments/experiment_25/129.jpg,Experiments/experiment_25/130.jpg,Experiments/experiment_25/131.jpg,227,1,2023-05-26_12h51.23.292,Occlusion_Psychophysics,2022.1.4,Win32,60.07088364,,,right,"[""right""]",[1.288499999999999],False,,0.0,0.0,32.0,32.0,32.0,1.0,,,,,,
,,,,,,,,,,,,,,,,,,,,,0.05,,,,,,,,,,Stimuli/psy_fixed_rotation_30_objects_occ0.7_0.9s/images/train/n04379243_-7/n02818832_0/img_quatre_dining_table_b03_the_sofa_and_chair_company_-_stanley_bed_2014_2011_gray.jpg,n04379243_-7,n02818832_0,fixed,0.756039,n02933112_-2,Stimuli/psy_flexible_rotation_30_objects_occ0.7_0.9s/images/train/n03001627_-2/n02933112_-2/img_wood_chair_sink_base_white_wood_2009-3_gray.png,random,flexible,n04379243_-7,n02818832_0,Stimuli/canonical view 2/img_n04379243_-7_gray.jpg,Stimuli/canonical view 2/img_n02818832_0_gray.jpg,foreground,right,Experiments/experiment_25/132.jpg,Experiments/experiment_25/133.jpg,Experiments/experiment_25/134.jpg,Experiments/experiment_25/135.jpg,227,1,2023-05-26_12h51.23.292,Occlusion_Psychophysics,2022.1.4,Win32,60.07088364,,,left,"[""left""]",[1.2052999999523308],False,,0.0,0.0,33.0,33.0,33.0,1.0,,,,,,
,,,,,,,,,,,,,,,,,,,,,0.025,,,,,,,,,,Stimuli/psy_flexible_rotation_30_objects_occ0.7_0.9s/images/train/n02883344_-1/n04405907_8/img_woven_box_stylized_tv_2015_gray.jpg,n02883344_-1,n04405907_8,flexible,0.726933,n04405907_8,Stimuli/psy_flexible_rotation_30_objects_occ0.7_0.9s/images/train/n02883344_-1/n04405907_8/img_woven_box_stylized_tv_2015-3_gray.png,foreground,same as foreground,n02883344_-1,n04405907_8,Stimuli/canonical view 2/img_n02883344_-1_gray.jpg,Stimuli/canonical view 2/img_n04405907_8_gray.jpg,foreground,right,Experiments/experiment_25/136.jpg,Experiments/experiment_25/137.jpg,Experiments/experiment_25/138.jpg,Experiments/experiment_25/139.jpg,227,1,2023-05-26_12h51.23.292,Occlusion_Psychophysics,2022.1.4,Win32,60.07088364,,,right,"[""right""]",[0.921100000143042],False,,0.0,0.0,34.0,34.0,34.0,1.0,,,,,,
,,,,,,,,,,,,,,,,,,,,,0.025,,,,,,,,,,Stimuli/psy_flexible_rotation_30_objects_occ0.7_0.9s/images/train/n04256520_9/n04379243_0/img_napoleon_iii_sofa_17th_c._monastery_dining_table_2010_2011_gray.jpg,n04256520_9,n04379243_0,flexible,0.790077,n04405907_9,Stimuli/psy_flexible_rotation_30_objects_occ0.7_0.9s/images/train/n04405907_5/n04405907_9/img_samsung_40_uhd_smart_tv_2011_vray_004_2004-3_gray.png,random,flexible,n04256520_9,n04379243_0,Stimuli/canonical view 2/img_n04256520_9_gray.jpg,Stimuli/canonical view 2/img_n04379243_0_gray.jpg,foreground,left,Experiments/experiment_25/140.jpg,Experiments/experiment_25/141.jpg,Experiments/experiment_25/142.jpg,Experiments/experiment_25/143.jpg,227,1,2023-05-26_12h51.23.292,Occlusion_Psychophysics,2022.1.4,Win32,60.07088364,,,left,"[""left""]",[0.8315000000000055],False,,0.0,0.0,35.0,35.0,35.0,1.0,,,,,,
,,,,,,,,,,,,,,,,,,,,,0.05,,,,,,,,,,Stimuli/psy_flexible_rotation_30_objects_occ0.7_0.9s/images/train/n02818832_0/n03001627_-2/img_b03_the_sofa_and_chair_company_-_stanley_bed_2014_wood_chair_2014_gray.jpg,n02818832_0,n03001627_-2,flexible,0.734974,n04405907_8,Stimuli/psy_flexible_rotation_30_objects_occ0.7_0.9s/images/train/n04256520_9/n04405907_8/img_napoleon_iii_sofa_stylized_tv_2010-3_gray.png,random,flexible,n02818832_0,n04405907_9,Stimuli/canonical view 2/img_n02818832_0_gray.jpg,Stimuli/canonical view 2/img_n04405907_9_gray.jpg,random,right,Experiments/experiment_25/144.jpg,Experiments/experiment_25/145.jpg,Experiments/experiment_25/146.jpg,Experiments/experiment_25/147.jpg,227,1,2023-05-26_12h51.23.292,Occlusion_Psychophysics,2022.1.4,Win32,60.07088364,,,left,"[""right""]",[1.1050000000000182],True,right,1.0,0.0,36.0,36.0,36.0,1.0,1.3672,,,,,
,,,,,,,,,,,,,,,,,,,,,0.025,,,,,,,,,,Stimuli/psy_fixed_rotation_30_objects_occ0.7_0.9s/images/train/n04256520_4/n04256520_5/img_club_house_italia_nautilus_sofa_meridiani_belmondo_bench_sofa_2010_gray.jpg,n04256520_4,n04256520_5,fixed,0.797266,n04379243_0,Stimuli/psy_fixed_rotation_30_objects_occ0.7_0.9s/images/train/n02828884_4/n04379243_0/img_b05_c-5_classic_series_bench-2012_17th_c._monastery_dining_table_2010_2002-3_gray.png,random,fixed,n04256520_4,n02883344_15,Stimuli/canonical view 2/img_n04256520_4_gray.jpg,Stimuli/canonical view 2/img_n02883344_15_gray.jpg,random,right,Experiments/experiment_25/148.jpg,Experiments/experiment_25/149.jpg,Experiments/experiment_25/150.jpg,Experiments/experiment_25/151.jpg,227,1,2023-05-26_12h51.23.292,Occlusion_Psychophysics,2022.1.4,Win32,60.07088364,,,left,"[""left""]",[0.9552000000476255],False,,0.0,0.0,37.0,37.0,37.0,1.0,,,,,,
,,,,,,,,,,,,,,,,,,,,,0.05,,,,,,,,,,Stimuli/psy_fixed_rotation_30_objects_occ0.7_0.9s/images/train/n04256520_9/n03928116_4/img_napoleon_iii_sofa_dp_33_b_2013__vray_2007_gray.jpg,n04256520_9,n03928116_4,fixed,0.739255,n03928116_4,Stimuli/psy_fixed_rotation_30_objects_occ0.7_0.9s/images/train/n04256520_9/n03928116_4/img_napoleon_iii_sofa_dp_33_b_2013__vray_2007-3_gray.png,foreground,same as foreground,n04256520_9,n02883344_0,Stimuli/canonical view 2/img_n04256520_9_gray.jpg,Stimuli/canonical view 2/img_n02883344_0_gray.jpg,random,right,Experiments/experiment_25/152.jpg,Experiments/experiment_25/153.jpg,Experiments/experiment_25/154.jpg,Experiments/experiment_25/155.jpg,227,1,2023-05-26_12h51.23.292,Occlusion_Psychophysics,2022.1.4,Win32,60.07088364,,,right,"[""right""]",[0.9179000000954147],False,,0.0,0.0,38.0,38.0,38.0,1.0,,,,,,
,,,,,,,,,,,,,,,,,,,,,0.05,,,,,,,,,,Stimuli/psy_flexible_rotation_30_objects_occ0.7_0.9s/images/train/n04379243_-7/n04256520_4/img_quatre_dining_table_club_house_italia_nautilus_sofa_2000_gray.jpg,n04379243_-7,n04256520_4,flexible,0.719438,n04256520_4,Stimuli/psy_flexible_rotation_30_objects_occ0.7_0.9s/images/train/n04379243_-7/n04256520_4/img_quatre_dining_table_club_house_italia_nautilus_sofa_2000-3_gray.png,foreground,same as foreground,n04379243_-7,n04256520_4,Stimuli/canonical view 2/img_n04379243_-7_gray.jpg,Stimuli/canonical view 2/img_n04256520_4_gray.jpg,foreground,left,Experiments/experiment_25/156.jpg,Experiments/experiment_25/157.jpg,Experiments/experiment_25/158.jpg,Experiments/experiment_25/159.jpg,227,1,2023-05-26_12h51.23.292,Occlusion_Psychophysics,2022.1.4,Win32,60.07088364,,,right,"[""right""]",[1.1440000000000055],False,,0.0,0.0,39.0,39.0,39.0,1.0,,,,,,
,,,,,,,,,,,,,,,,,,,,,0.05,,,,,,,,,,Stimuli/psy_fixed_rotation_30_objects_occ0.7_0.9s/images/train/n02933112_-18/n02818832_3/img_cgaxis_models_48_26_vray_composite_b05_ccm_contemporary_bed_max2013_2001_gray.jpg,n02933112_-18,n02818832_3,fixed,0.869519,n04405907_5,Stimuli/psy_flexible_rotation_30_objects_occ0.7_0.9s/images/train/n04405907_5/n04405907_5/img_samsung_40_uhd_smart_tv_2011_samsung_40_uhd_smart_tv_2011_2009-3_gray.png,random,flexible,n02933112_-18,n02883344_15,Stimuli/canonical view 2/img_n02933112_-18_gray.jpg,Stimuli/canonical view 2/img_n02883344_15_gray.jpg,random,right,Experiments/experiment_25/160.jpg,Experiments/experiment_25/161.jpg,Experiments/experiment_25/162.jpg,Experiments/experiment_25/163.jpg,227,1,2023-05-26_12h51.23.292,Occlusion_Psychophysics,2022.1.4,Win32,60.07088364,,,right,"[""right""]",[0.7309999999999945],False,,0.0,0.0,40.0,40.0,40.0,1.0,,,,,,
,,,,,,,,,,,,,,,,,,,,,0.025,,,,,,,,,,Stimuli/psy_flexible_rotation_30_objects_occ0.7_0.9s/images/train/n04256520_4/n02883344_-1/img_club_house_italia_nautilus_sofa_woven_box_2010_gray.jpg,n04256520_4,n02883344_-1,flexible,0.755131,n02883344_-1,Stimuli/psy_flexible_rotation_30_objects_occ0.7_0.9s/images/train/n04256520_4/n02883344_-1/img_club_house_italia_nautilus_sofa_woven_box_2010-3_gray.png,foreground,same as foreground,n04256520_4,n02883344_-1,Stimuli/canonical view 2/img_n04256520_4_gray.jpg,Stimuli/canonical view 2/img_n02883344_-1_gray.jpg,foreground,left,Experiments/experiment_25/164.jpg,Experiments/experiment_25/165.jpg,Experiments/experiment_25/166.jpg,Experiments/experiment_25/167.jpg,227,1,2023-05-26_12h51.23.292,Occlusion_Psychophysics,2022.1.4,Win32,60.07088364,,,right,"[""right""]",[0.9612999999523026],False,,0.0,0.0,41.0,41.0,41.0,1.0,,,,,,
,,,,,,,,,,,,,,,,,,,,,0.025,,,,,,,,,,Stimuli/psy_flexible_rotation_30_objects_occ0.7_0.9s/images/train/n02883344_0/n02828884_9/img_b03_box_cr-96_bench_2006_gray.jpg,n02883344_0,n02828884_9,flexible,0.709756,n03001627_-2,Stimuli/psy_fixed_rotation_30_objects_occ0.7_0.9s/images/train/n03001627_-2/n03001627_-2/img_wood_chair_wood_chair_2001-3_gray.png,random,fixed,n02883344_0,n02828884_9,Stimuli/canonical view 2/img_n02883344_0_gray.jpg,Stimuli/canonical view 2/img_n02828884_9_gray.jpg,foreground,right,Experiments/experiment_25/168.jpg,Experiments/experiment_25/169.jpg,Experiments/experiment_25/170.jpg,Experiments/experiment_25/171.jpg,227,1,2023-05-26_12h51.23.292,Occlusion_Psychophysics,2022.1.4,Win32,60.07088364,,,right,"[""right""]",[0.7048999998569343],False,,0.0,0.0,42.0,42.0,42.0,1.0,,,,,,
,,,,,,,,,,,,,,,,,,,,,0.05,,,,,,,,,,Stimuli/psy_flexible_rotation_30_objects_occ0.7_0.9s/images/train/n03001627_9/n02933112_4/img_chair_eames_plastic_armchair_buffet_2002_gray.jpg,n03001627_9,n02933112_4,flexible,0.862389,n02818832_0,Stimuli/psy_flexible_rotation_30_objects_occ0.7_0.9s/images/train/n04070727_5/n02818832_0/img_b05_db_apps_tech_06_13_composite_b03_the_sofa_and_chair_company_-_stanley_bed_2014_2009-3_gray.png,random,flexible,n03001627_9,n03928116_4,Stimuli/canonical view 2/img_n03001627_9_gray.jpg,Stimuli/canonical view 2/img_n03928116_4_gray.jpg,random,left,Experiments/experiment_25/172.jpg,Experiments/experiment_25/173.jpg,Experiments/experiment_25/174.jpg,Experiments/experiment_25/175.jpg,227,1,2023-05-26_12h51.23.292,Occlusion_Psychophysics,2022.1.4,Win32,60.07088364,,,left,"[""left""]",[0.7904999999999518],True,left,1.0,0.0,43.0,43.0,43.0,1.0,0.8185,,,,,
,,,,,,,,,,,,,,,,,,,,,0.05,,,,,,,,,,Stimuli/psy_fixed_rotation_30_objects_occ0.7_0.9s/images/train/n03001627_9/n02933112_-18/img_chair_eames_plastic_armchair_cgaxis_models_48_26_vray_composite_2013_gray.jpg,n03001627_9,n02933112_-18,fixed,0.814201,n02933112_-18,Stimuli/psy_fixed_rotation_30_objects_occ0.7_0.9s/images/train/n03001627_9/n02933112_-18/img_chair_eames_plastic_armchair_cgaxis_models_48_26_vray_composite_2013-3_gray.png,foreground,same as foreground,n03001627_9,n04379243_8,Stimuli/canonical view 2/img_n03001627_9_gray.jpg,Stimuli/canonical view 2/img_n04379243_8_gray.jpg,random,right,Experiments/experiment_25/176.jpg,Experiments/experiment_25/177.jpg,Experiments/experiment_25/178.jpg,Experiments/experiment_25/179.jpg,227,1,2023-05-26_12h51.23.292,Occlusion_Psychophysics,2022.1.4,Win32,60.07088364,,,left,"[""left""]",[1.5855000000000246],False,,0.0,0.0,44.0,44.0,44.0,1.0,,,,,,
,,,,,,,,,,,,,,,,,,,,,0.05,,,,,,,,,,Stimuli/psy_fixed_rotation_30_objects_occ0.7_0.9s/images/train/n04379243_8/n02883344_0/img_glass_table_b03_box_2003_gray.jpg,n04379243_8,n02883344_0,fixed,0.733523,n04405907_9,Stimuli/psy_flexible_rotation_30_objects_occ0.7_0.9s/images/train/n04405907_5/n04405907_9/img_samsung_40_uhd_smart_tv_2011_vray_004_2015-3_gray.png,random,flexible,n04379243_8,n03928116_4,Stimuli/canonical view 2/img_n04379243_8_gray.jpg,Stimuli/canonical view 2/img_n03928116_4_gray.jpg,random,right,Experiments/experiment_25/180.jpg,Experiments/experiment_25/181.jpg,Experiments/experiment_25/182.jpg,Experiments/experiment_25/183.jpg,227,1,2023-05-26_12h51.23.292,Occlusion_Psychophysics,2022.1.4,Win32,60.07088364,,,right,"[""right""]",[0.7400000000000091],False,,0.0,0.0,45.0,45.0,45.0,1.0,,,,,,
,,,,,,,,,,,,,,,,,,,,,0.05,,,,,,,,,,Stimuli/psy_flexible_rotation_30_objects_occ0.7_0.9s/images/train/n04405907_9/n04405907_8/img_vray_004_stylized_tv_2007_gray.jpg,n04405907_9,n04405907_8,flexible,0.746781,n04256520_9,Stimuli/psy_fixed_rotation_30_objects_occ0.7_0.9s/images/train/n02818832_9/n04256520_9/img_bed01_blue_napoleon_iii_sofa_2004-3_gray.png,random,fixed,n04405907_9,n04405907_8,Stimuli/canonical view 2/img_n04405907_9_gray.jpg,Stimuli/canonical view 2/img_n04405907_8_gray.jpg,foreground,left,Experiments/experiment_25/184.jpg,Experiments/experiment_25/185.jpg,Experiments/experiment_25/186.jpg,Experiments/experiment_25/187.jpg,227,1,2023-05-26_12h51.23.292,Occlusion_Psychophysics,2022.1.4,Win32,60.07088364,,,right,"[""right""]",[0.9846000001430184],False,,0.0,0.0,46.0,46.0,46.0,1.0,,,,,,
,,,,,,,,,,,,,,,,,,,,,0.05,,,,,,,,,,Stimuli/psy_fixed_rotation_30_objects_occ0.7_0.9s/images/train/n02933112_4/n04405907_8/img_buffet_stylized_tv_2010_gray.jpg,n02933112_4,n04405907_8,fixed,0.778772,n02883344_-1,Stimuli/psy_flexible_rotation_30_objects_occ0.7_0.9s/images/train/n03001627_-2/n02883344_-1/img_wood_chair_woven_box_2009-3_gray.png,random,flexible,n02933112_4,n04405907_8,Stimuli/canonical view 2/img_n02933112_4_gray.jpg,Stimuli/canonical view 2/img_n04405907_8_gray.jpg,foreground,left,Experiments/experiment_25/188.jpg,Experiments/experiment_25/189.jpg,Experiments/experiment_25/190.jpg,Experiments/experiment_25/191.jpg,227,1,2023-05-26_12h51.23.292,Occlusion_Psychophysics,2022.1.4,Win32,60.07088364,,,right,"[""right""]",[0.9297000000477738],True,right,1.0,0.0,47.0,47.0,47.0,1.0,0.8348,,,,,
,,,,,,,,,,,,,,,,,,,,,0.05,,,,,,,,,,Stimuli/psy_fixed_rotation_30_objects_occ0.7_0.9s/images/train/n03001627_9/n02883344_-1/img_chair_eames_plastic_armchair_woven_box_2002_gray.jpg,n03001627_9,n02883344_-1,fixed,0.897504,n02828884_3,Stimuli/psy_flexible_rotation_30_objects_occ0.7_0.9s/images/train/n04256520_5/n02828884_3/img_meridiani_belmondo_bench_sofa_b04_wood_metal_park_bench_2000-3_gray.png,random,flexible,n03001627_9,n03001627_8,Stimuli/canonical view 2/img_n03001627_9_gray.jpg,Stimuli/canonical view 2/img_n03001627_8_gray.jpg,random,right,Experiments/experiment_25/192.jpg,Experiments/experiment_25/193.jpg,Experiments/experiment_25/194.jpg,Experiments/experiment_25/195.jpg,227,1,2023-05-26_12h51.23.292,Occlusion_Psychophysics,2022.1.4,Win32,60.07088364,,,left,"[""left""]",[1.2856999998092533],False,,0.0,0.0,48.0,48.0,48.0,1.0,,,,,,
,,,,,,,,,,,,,,,,,,,,,0.025,,,,,,,,,,Stimuli/psy_fixed_rotation_30_objects_occ0.7_0.9s/images/train/n04256520_9/n02883344_-1/img_napoleon_iii_sofa_woven_box_2014_gray.jpg,n04256520_9,n02883344_-1,fixed,0.753737,n02828884_3,Stimuli/psy_flexible_rotation_30_objects_occ0.7_0.9s/images/train/n04405907_9/n02828884_3/img_vray_004_b04_wood_metal_park_bench_2000-3_gray.png,random,flexible,n04256520_9,n02883344_-1,Stimuli/canonical view 2/img_n04256520_9_gray.jpg,Stimuli/canonical view 2/img_n02883344_-1_gray.jpg,foreground,left,Experiments/experiment_25/196.jpg,Experiments/experiment_25/197.jpg,Experiments/experiment_25/198.jpg,Experiments/experiment_25/199.jpg,227,1,2023-05-26_12h51.23.292,Occlusion_Psychophysics,2022.1.4,Win32,60.07088364,,,left,"[""left""]",[0.8037000000476837],False,,0.0,0.0,49.0,49.0,49.0,1.0,,,,,,
,,,,,,,,,,,,,,,,,,,,,0.05,,,,,,,,,,Stimuli/psy_flexible_rotation_30_objects_occ0.7_0.9s/images/train/n02883344_15/n03928116_4/img_microwave_box_dp_33_b_2013__vray_2000_gray.jpg,n02883344_15,n03928116_4,flexible,0.719504,n04405907_9,Stimuli/psy_fixed_rotation_30_objects_occ0.7_0.9s/images/train/n03928116_4/n04405907_9/img_dp_33_b_2013__vray_vray_004_2000-3_gray.png,random,fixed,n02883344_15,n03928116_4,Stimuli/canonical view 2/img_n02883344_15_gray.jpg,Stimuli/canonical view 2/img_n03928116_4_gray.jpg,foreground,left,Experiments/experiment_25/200.jpg,Experiments/experiment_25/201.jpg,Experiments/experiment_25/202.jpg,Experiments/experiment_25/203.jpg,227,1,2023-05-26_12h51.23.292,Occlusion_Psychophysics,2022.1.4,Win32,60.07088364,,,right,"[""left""]",[1.1512000000477656],False,,0.0,0.0,50.0,50.0,50.0,1.0,,,,,,
,,,,,,,,,,,,,,,,,,,,,0.05,,,,,,,,,,Stimuli/psy_flexible_rotation_30_objects_occ0.7_0.9s/images/train/n04256520_5/n04405907_5/img_meridiani_belmondo_bench_sofa_samsung_40_uhd_smart_tv_2011_2002_gray.jpg,n04256520_5,n04405907_5,flexible,0.870163,n04405907_5,Stimuli/psy_flexible_rotation_30_objects_occ0.7_0.9s/images/train/n04256520_5/n04405907_5/img_meridiani_belmondo_bench_sofa_samsung_40_uhd_smart_tv_2011_2002-3_gray.png,foreground,same as foreground,n04256520_5,n04405907_5,Stimuli/canonical view 2/img_n04256520_5_gray.jpg,Stimuli/canonical view 2/img_n04405907_5_gray.jpg,foreground,left,Experiments/experiment_25/204.jpg,Experiments/experiment_25/205.jpg,Experiments/experiment_25/206.jpg,Experiments/experiment_25/207.jpg,227,1,2023-05-26_12h51.23.292,Occlusion_Psychophysics,2022.1.4,Win32,60.07088364,,,right,"[""right""]",[1.1180000000000518],False,,0.0,0.0,51.0,51.0,51.0,1.0,,,,,,
,,,,,,,,,,,,,,,,,,,,,0.05,,,,,,,,,,Stimuli/psy_fixed_rotation_30_objects_occ0.7_0.9s/images/train/n02818832_0/n02883344_-1/img_b03_the_sofa_and_chair_company_-_stanley_bed_2014_woven_box_2015_gray.jpg,n02818832_0,n02883344_-1,fixed,0.72456,n02933112_-18,Stimuli/psy_fixed_rotation_30_objects_occ0.7_0.9s/images/train/n04379243_0/n02933112_-18/img_17th_c._monastery_dining_table_2010_cgaxis_models_48_26_vray_composite_2014-3_gray.png,random,fixed,n02818832_0,n02883344_-1,Stimuli/canonical view 2/img_n02818832_0_gray.jpg,Stimuli/canonical view 2/img_n02883344_-1_gray.jpg,foreground,right,Experiments/experiment_25/208.jpg,Experiments/experiment_25/209.jpg,Experiments/experiment_25/210.jpg,Experiments/experiment_25/211.jpg,227,1,2023-05-26_12h51.23.292,Occlusion_Psychophysics,2022.1.4,Win32,60.07088364,,,left,"[""left""]",[0.8149999999999409],False,,0.0,0.0,52.0,52.0,52.0,1.0,,,,,,
,,,,,,,,,,,,,,,,,,,,,0.05,,,,,,,,,,Stimuli/psy_fixed_rotation_30_objects_occ0.7_0.9s/images/train/n04405907_9/n02883344_0/img_vray_004_b03_box_2014_gray.jpg,n04405907_9,n02883344_0,fixed,0.788348,n02883344_0,Stimuli/psy_fixed_rotation_30_objects_occ0.7_0.9s/images/train/n04405907_9/n02883344_0/img_vray_004_b03_box_2014-3_gray.png,foreground,same as foreground,n04405907_9,n02818832_9,Stimuli/canonical view 2/img_n04405907_9_gray.jpg,Stimuli/canonical view 2/img_n02818832_9_gray.jpg,random,right,Experiments/experiment_25/212.jpg,Experiments/experiment_25/213.jpg,Experiments/experiment_25/214.jpg,Experiments/experiment_25/215.jpg,227,1,2023-05-26_12h51.23.292,Occlusion_Psychophysics,2022.1.4,Win32,60.07088364,,,right,"[""right""]",[1.3015000000000327],False,,0.0,0.0,53.0,53.0,53.0,1.0,,,,,,
,,,,,,,,,,,,,,,,,,,,,0.05,,,,,,,,,,Stimuli/psy_fixed_rotation_30_objects_occ0.7_0.9s/images/train/n04256520_5/n02883344_15/img_meridiani_belmondo_bench_sofa_microwave_box_2011_gray.jpg,n04256520_5,n02883344_15,fixed,0.866971,n02883344_15,Stimuli/psy_fixed_rotation_30_objects_occ0.7_0.9s/images/train/n04256520_5/n02883344_15/img_meridiani_belmondo_bench_sofa_microwave_box_2011-3_gray.png,foreground,same as foreground,n04256520_5,n02883344_-1,Stimuli/canonical view 2/img_n04256520_5_gray.jpg,Stimuli/canonical view 2/img_n02883344_-1_gray.jpg,random,right,Experiments/experiment_25/216.jpg,Experiments/experiment_25/217.jpg,Experiments/experiment_25/218.jpg,Experiments/experiment_25/219.jpg,227,1,2023-05-26_12h51.23.292,Occlusion_Psychophysics,2022.1.4,Win32,60.07088364,,,right,"[""right""]",[0.9422000000477055],False,,0.0,0.0,54.0,54.0,54.0,1.0,,,,,,
,,,,,,,,,,,,,,,,,,,,,0.05,,,,,,,,,,Stimuli/psy_fixed_rotation_30_objects_occ0.7_0.9s/images/train/n02818832_9/n03928116_0/img_bed01_blue_b02_piano_2003_gray.jpg,n02818832_9,n03928116_0,fixed,0.771453,n03928116_0,Stimuli/psy_fixed_rotation_30_objects_occ0.7_0.9s/images/train/n02818832_9/n03928116_0/img_bed01_blue_b02_piano_2003-3_gray.png,foreground,same as foreground,n02818832_9,n03928116_0,Stimuli/canonical view 2/img_n02818832_9_gray.jpg,Stimuli/canonical view 2/img_n03928116_0_gray.jpg,foreground,right,Experiments/experiment_25/220.jpg,Experiments/experiment_25/221.jpg,Experiments/experiment_25/222.jpg,Experiments/experiment_25/223.jpg,227,1,2023-05-26_12h51.23.292,Occlusion_Psychophysics,2022.1.4,Win32,60.07088364,,,right,"[""right""]",[0.7382999999523463],False,,0.0,0.0,55.0,55.0,55.0,1.0,,,,,,
,,,,,,,,,,,,,,,,,,,,,0.025,,,,,,,,,,Stimuli/psy_flexible_rotation_30_objects_occ0.7_0.9s/images/train/n03001627_9/n03928116_0/img_chair_eames_plastic_armchair_b02_piano_2014_gray.jpg,n03001627_9,n03928116_0,flexible,0.870534,n03928116_0,Stimuli/psy_flexible_rotation_30_objects_occ0.7_0.9s/images/train/n03001627_9/n03928116_0/img_chair_eames_plastic_armchair_b02_piano_2014-3_gray.png,foreground,same as foreground,n03001627_9,n03928116_0,Stimuli/canonical view 2/img_n03001627_9_gray.jpg,Stimuli/canonical view 2/img_n03928116_0_gray.jpg,foreground,left,Experiments/experiment_25/224.jpg,Experiments/experiment_25/225.jpg,Experiments/experiment_25/226.jpg,Experiments/experiment_25/227.jpg,227,1,2023-05-26_12h51.23.292,Occlusion_Psychophysics,2022.1.4,Win32,60.07088364,,,right,"[""right""]",[0.9574000000952765],False,,0.0,0.0,56.0,56.0,56.0,1.0,,,,,,
,,,,,,,,,,,,,,,,,,,,,0.05,,,,,,,,,,Stimuli/psy_flexible_rotation_30_objects_occ0.7_0.9s/images/train/n04405907_9/n02933112_4/img_vray_004_buffet_2005_gray.jpg,n04405907_9,n02933112_4,flexible,0.754717,n02933112_4,Stimuli/psy_flexible_rotation_30_objects_occ0.7_0.9s/images/train/n04405907_9/n02933112_4/img_vray_004_buffet_2005-3_gray.png,foreground,same as foreground,n04405907_9,n03001627_-2,Stimuli/canonical view 2/img_n04405907_9_gray.jpg,Stimuli/canonical view 2/img_n03001627_-2_gray.jpg,random,left,Experiments/experiment_25/228.jpg,Experiments/experiment_25/229.jpg,Experiments/experiment_25/230.jpg,Experiments/experiment_25/231.jpg,227,1,2023-05-26_12h51.23.292,Occlusion_Psychophysics,2022.1.4,Win32,60.07088364,,,left,"[""left""]",[0.7763000001906448],False,,0.0,0.0,57.0,57.0,57.0,1.0,,,,,,
,,,,,,,,,,,,,,,,,,,,,0.025,,,,,,,,,,Stimuli/psy_fixed_rotation_30_objects_occ0.7_0.9s/images/train/n02883344_15/n04256520_4/img_microwave_box_club_house_italia_nautilus_sofa_2007_gray.jpg,n02883344_15,n04256520_4,fixed,0.708582,n04405907_8,Stimuli/psy_fixed_rotation_30_objects_occ0.7_0.9s/images/train/n03928116_0/n04405907_8/img_b02_piano_stylized_tv_2009-3_gray.png,random,fixed,n02883344_15,n03001627_9,Stimuli/canonical view 2/img_n02883344_15_gray.jpg,Stimuli/canonical view 2/img_n03001627_9_gray.jpg,random,right,Experiments/experiment_25/232.jpg,Experiments/experiment_25/233.jpg,Experiments/experiment_25/234.jpg,Experiments/experiment_25/235.jpg,227,1,2023-05-26_12h51.23.292,Occlusion_Psychophysics,2022.1.4,Win32,60.07088364,,,left,"[""left""]",[0.8664999999999736],False,,0.0,0.0,58.0,58.0,58.0,1.0,,,,,,
,,,,,,,,,,,,,,,,,,,,,0.025,,,,,,,,,,Stimuli/psy_fixed_rotation_30_objects_occ0.7_0.9s/images/train/n02933112_4/n02883344_-1/img_buffet_woven_box_2011_gray.jpg,n02933112_4,n02883344_-1,fixed,0.741726,n02883344_-1,Stimuli/psy_fixed_rotation_30_objects_occ0.7_0.9s/images/train/n02933112_4/n02883344_-1/img_buffet_woven_box_2011-3_gray.png,foreground,same as foreground,n02933112_4,n04256520_5,Stimuli/canonical view 2/img_n02933112_4_gray.jpg,Stimuli/canonical view 2/img_n04256520_5_gray.jpg,random,left,Experiments/experiment_25/236.jpg,Experiments/experiment_25/237.jpg,Experiments/experiment_25/238.jpg,Experiments/experiment_25/239.jpg,227,1,2023-05-26_12h51.23.292,Occlusion_Psychophysics,2022.1.4,Win32,60.07088364,,,left,"[""right""]",[0.8721000001430639],False,,0.0,0.0,59.0,59.0,59.0,1.0,,,,,,
,,,,,,,,,,,,,,,,,,,,,0.025,,,,,,,,,,Stimuli/psy_fixed_rotation_30_objects_occ0.7_0.9s/images/train/n02933112_-2/n04256520_4/img_sink_base_white_wood_club_house_italia_nautilus_sofa_2013_gray.jpg,n02933112_-2,n04256520_4,fixed,0.731103,n02883344_0,Stimuli/psy_flexible_rotation_30_objects_occ0.7_0.9s/images/train/n03928116_0/n02883344_0/img_b02_piano_b03_box_2009-3_gray.png,random,flexible,n02933112_-2,n03928116_10,Stimuli/canonical view 2/img_n02933112_-2_gray.jpg,Stimuli/canonical view 2/img_n03928116_10_gray.jpg,random,left,Experiments/experiment_25/240.jpg,Experiments/experiment_25/241.jpg,Experiments/experiment_25/242.jpg,Experiments/experiment_25/243.jpg,227,1,2023-05-26_12h51.23.292,Occlusion_Psychophysics,2022.1.4,Win32,60.07088364,,,left,"[""left""]",[0.7720000000001619],False,,0.0,0.0,60.0,60.0,60.0,1.0,,,,,,
,,,,,,,,,,,,,,,,,,,,,0.05,,,,,,,,,,Stimuli/psy_fixed_rotation_30_objects_occ0.7_0.9s/images/train/n02883344_15/n02933112_4/img_microwave_box_buffet_2000_gray.jpg,n02883344_15,n02933112_4,fixed,0.710024,n02933112_4,Stimuli/psy_fixed_rotation_30_objects_occ0.7_0.9s/images/train/n02883344_15/n02933112_4/img_microwave_box_buffet_2000-3_gray.png,foreground,same as foreground,n02883344_15,n04405907_8,Stimuli/canonical view 2/img_n02883344_15_gray.jpg,Stimuli/canonical view 2/img_n04405907_8_gray.jpg,random,left,Experiments/experiment_25/244.jpg,Experiments/experiment_25/245.jpg,Experiments/experiment_25/246.jpg,Experiments/experiment_25/247.jpg,227,1,2023-05-26_12h51.23.292,Occlusion_Psychophysics,2022.1.4,Win32,60.07088364,,,left,"[""left""]",[0.7250000000002501],False,,0.0,0.0,61.0,61.0,61.0,1.0,,,,,,
,,,,,,,,,,,,,,,,,,,,,0.05,,,,,,,,,,Stimuli/psy_flexible_rotation_30_objects_occ0.7_0.9s/images/train/n02933112_4/n02883344_0/img_buffet_b03_box_2003_gray.jpg,n02933112_4,n02883344_0,flexible,0.749885,n02883344_0,Stimuli/psy_flexible_rotation_30_objects_occ0.7_0.9s/images/train/n02933112_4/n02883344_0/img_buffet_b03_box_2003-3_gray.png,foreground,same as foreground,n02933112_4,n02883344_0,Stimuli/canonical view 2/img_n02933112_4_gray.jpg,Stimuli/canonical view 2/img_n02883344_0_gray.jpg,foreground,right,Experiments/experiment_25/248.jpg,Experiments/experiment_25/249.jpg,Experiments/experiment_25/250.jpg,Experiments/experiment_25/251.jpg,227,1,2023-05-26_12h51.23.292,Occlusion_Psychophysics,2022.1.4,Win32,60.07088364,,,right,"[""right""]",[0.7622000000476419],False,,0.0,0.0,62.0,62.0,62.0,1.0,,,,,,
,,,,,,,,,,,,,,,,,,,,,0.05,,,,,,,,,,Stimuli/psy_flexible_rotation_30_objects_occ0.7_0.9s/images/train/n04256520_5/n02818832_0/img_meridiani_belmondo_bench_sofa_b03_the_sofa_and_chair_company_-_stanley_bed_2014_2013_gray.jpg,n04256520_5,n02818832_0,flexible,0.781512,n02818832_0,Stimuli/psy_flexible_rotation_30_objects_occ0.7_0.9s/images/train/n04256520_5/n02818832_0/img_meridiani_belmondo_bench_sofa_b03_the_sofa_and_chair_company_-_stanley_bed_2014_2013-3_gray.png,foreground,same as foreground,n04256520_5,n04379243_8,Stimuli/canonical view 2/img_n04256520_5_gray.jpg,Stimuli/canonical view 2/img_n04379243_8_gray.jpg,random,left,Experiments/experiment_25/252.jpg,Experiments/experiment_25/253.jpg,Experiments/experiment_25/254.jpg,Experiments/experiment_25/255.jpg,227,1,2023-05-26_12h51.23.292,Occlusion_Psychophysics,2022.1.4,Win32,60.07088364,,,right,"[""left""]",[1.2980000000000018],False,,0.0,0.0,63.0,63.0,63.0,1.0,,,,,,
,,,,,,,,,,,,,,,,,,,,,0.025,,,,,,,,,,Stimuli/psy_flexible_rotation_30_objects_occ0.7_0.9s/images/train/n03001627_-2/n03001627_8/img_wood_chair_chair_billiani_doll_2002_gray.jpg,n03001627_-2,n03001627_8,flexible,0.732225,n03001627_8,Stimuli/psy_flexible_rotation_30_objects_occ0.7_0.9s/images/train/n03001627_-2/n03001627_8/img_wood_chair_chair_billiani_doll_2002-3_gray.png,foreground,same as foreground,n03001627_-2,n03001627_8,Stimuli/canonical view 2/img_n03001627_-2_gray.jpg,Stimuli/canonical view 2/img_n03001627_8_gray.jpg,foreground,left,Experiments/experiment_25/256.jpg,Experiments/experiment_25/257.jpg,Experiments/experiment_25/258.jpg,Experiments/experiment_25/259.jpg,227,1,2023-05-26_12h51.23.292,Occlusion_Psychophysics,2022.1.4,Win32,60.07088364,,,right,"[""right""]",[1.1177999999524673],False,,0.0,0.0,64.0,64.0,64.0,1.0,,,,,,
,,,,,,,,,,,,,,,,,,,,,0.05,,,,,,,,,,Stimuli/psy_fixed_rotation_30_objects_occ0.7_0.9s/images/train/n02933112_4/n02883344_15/img_buffet_microwave_box_2013_gray.jpg,n02933112_4,n02883344_15,fixed,0.703129,n02883344_15,Stimuli/psy_fixed_rotation_30_objects_occ0.7_0.9s/images/train/n02933112_4/n02883344_15/img_buffet_microwave_box_2013-3_gray.png,foreground,same as foreground,n02933112_4,n02883344_15,Stimuli/canonical view 2/img_n02933112_4_gray.jpg,Stimuli/canonical view 2/img_n02883344_15_gray.jpg,foreground,right,Experiments/experiment_25/260.jpg,Experiments/experiment_25/261.jpg,Experiments/experiment_25/262.jpg,Experiments/experiment_25/263.jpg,227,1,2023-05-26_12h51.23.292,Occlusion_Psychophysics,2022.1.4,Win32,60.07088364,,,right,"[""right""]",[0.7847000000476783],False,,0.0,0.0,65.0,65.0,65.0,1.0,,,,,,
,,,,,,,,,,,,,,,,,,,,,0.025,,,,,,,,,,Stimuli/psy_flexible_rotation_30_objects_occ0.7_0.9s/images/train/n02818832_0/n02828884_4/img_b03_the_sofa_and_chair_company_-_stanley_bed_2014_b05_c-5_classic_series_bench-2012_2015_gray.jpg,n02818832_0,n02828884_4,flexible,0.779523,n02828884_4,Stimuli/psy_flexible_rotation_30_objects_occ0.7_0.9s/images/train/n02818832_0/n02828884_4/img_b03_the_sofa_and_chair_company_-_stanley_bed_2014_b05_c-5_classic_series_bench-2012_2015-3_gray.png,foreground,same as foreground,n02818832_0,n02828884_4,Stimuli/canonical view 2/img_n02818832_0_gray.jpg,Stimuli/canonical view 2/img_n02828884_4_gray.jpg,foreground,right,Experiments/experiment_25/264.jpg,Experiments/experiment_25/265.jpg,Experiments/experiment_25/266.jpg,Experiments/experiment_25/267.jpg,227,1,2023-05-26_12h51.23.292,Occlusion_Psychophysics,2022.1.4,Win32,60.07088364,,,right,"[""right""]",[0.9756000001432312],False,,0.0,0.0,66.0,66.0,66.0,1.0,,,,,,
,,,,,,,,,,,,,,,,,,,,,0.025,,,,,,,,,,Stimuli/psy_fixed_rotation_30_objects_occ0.7_0.9s/images/train/n04379243_0/n02883344_15/img_17th_c._monastery_dining_table_2010_microwave_box_2010_gray.jpg,n04379243_0,n02883344_15,fixed,0.700641,n04405907_9,Stimuli/psy_fixed_rotation_30_objects_occ0.7_0.9s/images/train/n04256520_9/n04405907_9/img_napoleon_iii_sofa_vray_004_2015-3_gray.png,random,fixed,n04379243_0,n02883344_15,Stimuli/canonical view 2/img_n04379243_0_gray.jpg,Stimuli/canonical view 2/img_n02883344_15_gray.jpg,foreground,left,Experiments/experiment_25/268.jpg,Experiments/experiment_25/269.jpg,Experiments/experiment_25/270.jpg,Experiments/experiment_25/271.jpg,227,1,2023-05-26_12h51.23.292,Occlusion_Psychophysics,2022.1.4,Win32,60.07088364,,,right,"[""right""]",[1.3517000000476855],False,,0.0,0.0,67.0,67.0,67.0,1.0,,,,,,
,,,,,,,,,,,,,,,,,,,,,0.05,,,,,,,,,,Stimuli/psy_flexible_rotation_30_objects_occ0.7_0.9s/images/train/n02818832_9/n04405907_5/img_bed01_blue_samsung_40_uhd_smart_tv_2011_2015_gray.jpg,n02818832_9,n04405907_5,flexible,0.730593,n04405907_5,Stimuli/psy_flexible_rotation_30_objects_occ0.7_0.9s/images/train/n02818832_9/n04405907_5/img_bed01_blue_samsung_40_uhd_smart_tv_2011_2015-3_gray.png,foreground,same as foreground,n02818832_9,n04405907_5,Stimuli/canonical view 2/img_n02818832_9_gray.jpg,Stimuli/canonical view 2/img_n04405907_5_gray.jpg,foreground,right,Experiments/experiment_25/272.jpg,Experiments/experiment_25/273.jpg,Experiments/experiment_25/274.jpg,Experiments/experiment_25/275.jpg,227,1,2023-05-26_12h51.23.292,Occlusion_Psychophysics,2022.1.4,Win32,60.07088364,,,right,"[""right""]",[0.9788999998568215],False,,0.0,0.0,68.0,68.0,68.0,1.0,,,,,,
,,,,,,,,,,,,,,,,,,,,,0.05,,,,,,,,,,Stimuli/psy_fixed_rotation_30_objects_occ0.7_0.9s/images/train/n02883344_15/n02828884_3/img_microwave_box_b04_wood_metal_park_bench_2004_gray.jpg,n02883344_15,n02828884_3,fixed,0.774966,n03928116_4,Stimuli/psy_fixed_rotation_30_objects_occ0.7_0.9s/images/train/n02818832_3/n03928116_4/img_b05_ccm_contemporary_bed_max2013_dp_33_b_2013__vray_2008-3_gray.png,random,fixed,n02883344_15,n02933112_-18,Stimuli/canonical view 2/img_n02883344_15_gray.jpg,Stimuli/canonical view 2/img_n02933112_-18_gray.jpg,random,left,Experiments/experiment_25/276.jpg,Experiments/experiment_25/277.jpg,Experiments/experiment_25/278.jpg,Experiments/experiment_25/279.jpg,227,1,2023-05-26_12h51.23.292,Occlusion_Psychophysics,2022.1.4,Win32,60.07088364,,,right,"[""left""]",[1.1092999999523272],False,,0.0,0.0,69.0,69.0,69.0,1.0,,,,,,
,,,,,,,,,,,,,,,,,,,,,0.025,,,,,,,,,,Stimuli/psy_fixed_rotation_30_objects_occ0.7_0.9s/images/train/n02933112_-2/n03928116_0/img_sink_base_white_wood_b02_piano_2003_gray.jpg,n02933112_-2,n03928116_0,fixed,0.84494,n02883344_-1,Stimuli/psy_fixed_rotation_30_objects_occ0.7_0.9s/images/train/n04256520_4/n02883344_-1/img_club_house_italia_nautilus_sofa_woven_box_2002-3_gray.png,random,fixed,n02933112_-2,n04379243_8,Stimuli/canonical view 2/img_n02933112_-2_gray.jpg,Stimuli/canonical view 2/img_n04379243_8_gray.jpg,random,left,Experiments/experiment_25/280.jpg,Experiments/experiment_25/281.jpg,Experiments/experiment_25/282.jpg,Experiments/experiment_25/283.jpg,227,1,2023-05-26_12h51.23.292,Occlusion_Psychophysics,2022.1.4,Win32,60.07088364,,,right,"[""right""]",[1.0462999999522253],False,,0.0,0.0,70.0,70.0,70.0,1.0,,,,,,
,,,,,,,,,,,,,,,,,,,,,0.05,,,,,,,,,,Stimuli/psy_flexible_rotation_30_objects_occ0.7_0.9s/images/train/n04256520_4/n02828884_4/img_club_house_italia_nautilus_sofa_b05_c-5_classic_series_bench-2012_2001_gray.jpg,n04256520_4,n02828884_4,flexible,0.726811,n03928116_10,Stimuli/psy_flexible_rotation_30_objects_occ0.7_0.9s/images/train/n02828884_3/n03928116_10/img_b04_wood_metal_park_bench_ydp_103_r_2012__vray_2000-3_gray.png,random,flexible,n04256520_4,n02828884_4,Stimuli/canonical view 2/img_n04256520_4_gray.jpg,Stimuli/canonical view 2/img_n02828884_4_gray.jpg,foreground,left,Experiments/experiment_25/284.jpg,Experiments/experiment_25/285.jpg,Experiments/experiment_25/286.jpg,Experiments/experiment_25/287.jpg,227,1,2023-05-26_12h51.23.292,Occlusion_Psychophysics,2022.1.4,Win32,60.07088364,,,right,"[""right""]",[1.0791000001431712],False,,0.0,0.0,71.0,71.0,71.0,1.0,,,,,,
,,,,,,,,,,,,,,,,,,,,,0.05,,,,,,,,,,Stimuli/psy_flexible_rotation_30_objects_occ0.7_0.9s/images/train/n03001627_9/n02933112_4/img_chair_eames_plastic_armchair_buffet_2005_gray.jpg,n03001627_9,n02933112_4,flexible,0.76591,n02933112_4,Stimuli/psy_flexible_rotation_30_objects_occ0.7_0.9s/images/train/n03001627_9/n02933112_4/img_chair_eames_plastic_armchair_buffet_2005-3_gray.png,foreground,same as foreground,n03001627_9,n02933112_4,Stimuli/canonical view 2/img_n03001627_9_gray.jpg,Stimuli/canonical view 2/img_n02933112_4_gray.jpg,foreground,left,Experiments/experiment_25/288.jpg,Experiments/experiment_25/289.jpg,Experiments/experiment_25/290.jpg,Experiments/experiment_25/291.jpg,227,1,2023-05-26_12h51.23.292,Occlusion_Psychophysics,2022.1.4,Win32,60.07088364,,,left,"[""right""]",[1.3352999999522126],False,,0.0,0.0,72.0,72.0,72.0,1.0,,,,,,
,,,,,,,,,,,,,,,,,,,,,0.025,,,,,,,,,,Stimuli/psy_fixed_rotation_30_objects_occ0.7_0.9s/images/train/n04256520_9/n02883344_-1/img_napoleon_iii_sofa_woven_box_2000_gray.jpg,n04256520_9,n02883344_-1,fixed,0.722722,n02883344_-1,Stimuli/psy_fixed_rotation_30_objects_occ0.7_0.9s/images/train/n04256520_9/n02883344_-1/img_napoleon_iii_sofa_woven_box_2000-3_gray.png,foreground,same as foreground,n04256520_9,n02883344_-1,Stimuli/canonical view 2/img_n04256520_9_gray.jpg,Stimuli/canonical view 2/img_n02883344_-1_gray.jpg,foreground,right,Experiments/experiment_25/292.jpg,Experiments/experiment_25/293.jpg,Experiments/experiment_25/294.jpg,Experiments/experiment_25/295.jpg,227,1,2023-05-26_12h51.23.292,Occlusion_Psychophysics,2022.1.4,Win32,60.07088364,,,left,"[""right""]",[0.9682000000477728],False,,0.0,0.0,73.0,73.0,73.0,1.0,,,,,,
,,,,,,,,,,,,,,,,,,,,,0.025,,,,,,,,,,Stimuli/psy_fixed_rotation_30_objects_occ0.7_0.9s/images/train/n04405907_5/n03928116_0/img_samsung_40_uhd_smart_tv_2011_b02_piano_2001_gray.jpg,n04405907_5,n03928116_0,fixed,0.713813,n02883344_-1,Stimuli/psy_fixed_rotation_30_objects_occ0.7_0.9s/images/train/n03928116_10/n02883344_-1/img_ydp_103_r_2012__vray_woven_box_2004-3_gray.png,random,fixed,n04405907_5,n02818832_9,Stimuli/canonical view 2/img_n04405907_5_gray.jpg,Stimuli/canonical view 2/img_n02818832_9_gray.jpg,random,right,Experiments/experiment_25/296.jpg,Experiments/experiment_25/297.jpg,Experiments/experiment_25/298.jpg,Experiments/experiment_25/299.jpg,227,1,2023-05-26_12h51.23.292,Occlusion_Psychophysics,2022.1.4,Win32,60.07088364,,,right,"[""right""]",[1.8153000001907458],False,,0.0,0.0,74.0,74.0,74.0,1.0,,,,,,
,,,,,,,,,,,,,,,,,,,,,0.025,,,,,,,,,,Stimuli/psy_fixed_rotation_30_objects_occ0.7_0.9s/images/train/n02883344_15/n03928116_0/img_microwave_box_b02_piano_2008_gray.jpg,n02883344_15,n03928116_0,fixed,0.705232,n03928116_0,Stimuli/psy_fixed_rotation_30_objects_occ0.7_0.9s/images/train/n02883344_15/n03928116_0/img_microwave_box_b02_piano_2008-3_gray.png,foreground,same as foreground,n02883344_15,n03001627_8,Stimuli/canonical view 2/img_n02883344_15_gray.jpg,Stimuli/canonical view 2/img_n03001627_8_gray.jpg,random,left,Experiments/experiment_25/300.jpg,Experiments/experiment_25/301.jpg,Experiments/experiment_25/302.jpg,Experiments/experiment_25/303.jpg,227,1,2023-05-26_12h51.23.292,Occlusion_Psychophysics,2022.1.4,Win32,60.07088364,,,right,"[""left""]",[1.2480000000000473],False,,0.0,0.0,75.0,75.0,75.0,1.0,,,,,,
,,,,,,,,,,,,,,,,,,,,,0.05,,,,,,,,,,Stimuli/psy_flexible_rotation_30_objects_occ0.7_0.9s/images/train/n02828884_4/n04256520_5/img_b05_c-5_classic_series_bench-2012_meridiani_belmondo_bench_sofa_2006_gray.jpg,n02828884_4,n04256520_5,flexible,0.702146,n04256520_5,Stimuli/psy_flexible_rotation_30_objects_occ0.7_0.9s/images/train/n02828884_4/n04256520_5/img_b05_c-5_classic_series_bench-2012_meridiani_belmondo_bench_sofa_2006-3_gray.png,foreground,same as foreground,n02828884_4,n04379243_-7,Stimuli/canonical view 2/img_n02828884_4_gray.jpg,Stimuli/canonical view 2/img_n04379243_-7_gray.jpg,random,right,Experiments/experiment_25/304.jpg,Experiments/experiment_25/305.jpg,Experiments/experiment_25/306.jpg,Experiments/experiment_25/307.jpg,227,1,2023-05-26_12h51.23.292,Occlusion_Psychophysics,2022.1.4,Win32,60.07088364,,,left,"[""right""]",[0.9677999999523763],False,,0.0,0.0,76.0,76.0,76.0,1.0,,,,,,
,,,,,,,,,,,,,,,,,,,,,0.05,,,,,,,,,,Stimuli/psy_fixed_rotation_30_objects_occ0.7_0.9s/images/train/n02883344_15/n02933112_4/img_microwave_box_buffet_2004_gray.jpg,n02883344_15,n02933112_4,fixed,0.712382,n02933112_4,Stimuli/psy_fixed_rotation_30_objects_occ0.7_0.9s/images/train/n02883344_15/n02933112_4/img_microwave_box_buffet_2004-3_gray.png,foreground,same as foreground,n02883344_15,n04256520_9,Stimuli/canonical view 2/img_n02883344_15_gray.jpg,Stimuli/canonical view 2/img_n04256520_9_gray.jpg,random,left,Experiments/experiment_25/308.jpg,Experiments/experiment_25/309.jpg,Experiments/experiment_25/310.jpg,Experiments/experiment_25/311.jpg,227,1,2023-05-26_12h51.23.292,Occlusion_Psychophysics,2022.1.4,Win32,60.07088364,,,right,"[""right""]",[1.4195999999044489],False,,0.0,0.0,77.0,77.0,77.0,1.0,,,,,,
,,,,,,,,,,,,,,,,,,,,,0.025,,,,,,,,,,Stimuli/psy_fixed_rotation_30_objects_occ0.7_0.9s/images/train/n02828884_4/n02828884_3/img_b05_c-5_classic_series_bench-2012_b04_wood_metal_park_bench_2004_gray.jpg,n02828884_4,n02828884_3,fixed,0.718594,n02828884_3,Stimuli/psy_fixed_rotation_30_objects_occ0.7_0.9s/images/train/n02828884_4/n02828884_3/img_b05_c-5_classic_series_bench-2012_b04_wood_metal_park_bench_2004-3_gray.png,foreground,same as foreground,n02828884_4,n03001627_-2,Stimuli/canonical view 2/img_n02828884_4_gray.jpg,Stimuli/canonical view 2/img_n03001627_-2_gray.jpg,random,right,Experiments/experiment_25/312.jpg,Experiments/experiment_25/313.jpg,Experiments/experiment_25/314.jpg,Experiments/experiment_25/315.jpg,227,1,2023-05-26_12h51.23.292,Occlusion_Psychophysics,2022.1.4,Win32,60.07088364,,,right,"[""right""]",[0.8011000001429238],False,,0.0,0.0,78.0,78.0,78.0,1.0,,,,,,
,,,,,,,,,,,,,,,,,,,,,0.05,,,,,,,,,,Stimuli/psy_fixed_rotation_30_objects_occ0.7_0.9s/images/train/n03928116_10/n04256520_4/img_ydp_103_r_2012__vray_club_house_italia_nautilus_sofa_2014_gray.jpg,n03928116_10,n04256520_4,fixed,0.712764,n04256520_4,Stimuli/psy_fixed_rotation_30_objects_occ0.7_0.9s/images/train/n03928116_10/n04256520_4/img_ydp_103_r_2012__vray_club_house_italia_nautilus_sofa_2014-3_gray.png,foreground,same as foreground,n03928116_10,n04256520_4,Stimuli/canonical view 2/img_n03928116_10_gray.jpg,Stimuli/canonical view 2/img_n04256520_4_gray.jpg,foreground,left,Experiments/experiment_25/316.jpg,Experiments/experiment_25/317.jpg,Experiments/experiment_25/318.jpg,Experiments/experiment_25/319.jpg,227,1,2023-05-26_12h51.23.292,Occlusion_Psychophysics,2022.1.4,Win32,60.07088364,,,right,"[""right""]",[0.8756000001428674],False,,0.0,0.0,79.0,79.0,79.0,1.0,,,,,,
,,,,,,,,,,,,,,,,,,,,,0.025,,,,,,,,,,Stimuli/psy_flexible_rotation_30_objects_occ0.7_0.9s/images/train/n02818832_9/n02883344_0/img_bed01_blue_b03_box_2008_gray.jpg,n02818832_9,n02883344_0,flexible,0.811219,n03928116_4,Stimuli/psy_flexible_rotation_30_objects_occ0.7_0.9s/images/train/n02883344_-1/n03928116_4/img_woven_box_dp_33_b_2013__vray_2002-3_gray.png,random,flexible,n02818832_9,n04256520_4,Stimuli/canonical view 2/img_n02818832_9_gray.jpg,Stimuli/canonical view 2/img_n04256520_4_gray.jpg,random,right,Experiments/experiment_25/320.jpg,Experiments/experiment_25/321.jpg,Experiments/experiment_25/322.jpg,Experiments/experiment_25/323.jpg,227,1,2023-05-26_12h51.23.292,Occlusion_Psychophysics,2022.1.4,Win32,60.07088364,,,left,"[""left""]",[0.9876000001429475],False,,0.0,0.0,80.0,80.0,80.0,1.0,,,,,,
,,,,,,,,,,,,,,,,,,,,,0.05,,,,,,,,,,Stimuli/psy_flexible_rotation_30_objects_occ0.7_0.9s/images/train/n02933112_4/n02883344_-1/img_buffet_woven_box_2001_gray.jpg,n02933112_4,n02883344_-1,flexible,0.759619,n02883344_-1,Stimuli/psy_flexible_rotation_30_objects_occ0.7_0.9s/images/train/n02933112_4/n02883344_-1/img_buffet_woven_box_2001-3_gray.png,foreground,same as foreground,n02933112_4,n02883344_-1,Stimuli/canonical view 2/img_n02933112_4_gray.jpg,Stimuli/canonical view 2/img_n02883344_-1_gray.jpg,foreground,left,Experiments/experiment_25/324.jpg,Experiments/experiment_25/325.jpg,Experiments/experiment_25/326.jpg,Experiments/experiment_25/327.jpg,227,1,2023-05-26_12h51.23.292,Occlusion_Psychophysics,2022.1.4,Win32,60.07088364,,,left,"[""left""]",[1.008800000190604],False,,0.0,0.0,81.0,81.0,81.0,1.0,,,,,,
,,,,,,,,,,,,,,,,,,,,,0.025,,,,,,,,,,Stimuli/psy_flexible_rotation_30_objects_occ0.7_0.9s/images/train/n02933112_4/n02883344_15/img_buffet_microwave_box_2005_gray.jpg,n02933112_4,n02883344_15,flexible,0.704481,n02933112_4,Stimuli/psy_fixed_rotation_30_objects_occ0.7_0.9s/images/train/n02933112_4/n02933112_4/img_buffet_buffet_2008-3_gray.png,random,fixed,n02933112_4,n02883344_15,Stimuli/canonical view 2/img_n02933112_4_gray.jpg,Stimuli/canonical view 2/img_n02883344_15_gray.jpg,foreground,right,Experiments/experiment_25/328.jpg,Experiments/experiment_25/329.jpg,Experiments/experiment_25/330.jpg,Experiments/experiment_25/331.jpg,227,1,2023-05-26_12h51.23.292,Occlusion_Psychophysics,2022.1.4,Win32,60.07088364,,,left,"[""left""]",[0.8190999999046653],False,,0.0,0.0,82.0,82.0,82.0,1.0,,,,,,
,,,,,,,,,,,,,,,,,,,,,0.025,,,,,,,,,,Stimuli/psy_fixed_rotation_30_objects_occ0.7_0.9s/images/train/n02828884_3/n04405907_9/img_b04_wood_metal_park_bench_vray_004_2001_gray.jpg,n02828884_3,n04405907_9,fixed,0.830878,n04405907_9,Stimuli/psy_fixed_rotation_30_objects_occ0.7_0.9s/images/train/n02828884_3/n04405907_9/img_b04_wood_metal_park_bench_vray_004_2001-3_gray.png,foreground,same as foreground,n02828884_3,n02933112_-2,Stimuli/canonical view 2/img_n02828884_3_gray.jpg,Stimuli/canonical view 2/img_n02933112_-2_gray.jpg,random,right,Experiments/experiment_25/332.jpg,Experiments/experiment_25/333.jpg,Experiments/experiment_25/334.jpg,Experiments/experiment_25/335.jpg,227,1,2023-05-26_12h51.23.292,Occlusion_Psychophysics,2022.1.4,Win32,60.07088364,,,right,"[""right""]",[0.9190999999045744],False,,0.0,0.0,83.0,83.0,83.0,1.0,,,,,,
,,,,,,,,,,,,,,,,,,,,,0.05,,,,,,,,,,Stimuli/psy_flexible_rotation_30_objects_occ0.7_0.9s/images/train/n04379243_-7/n04256520_9/img_quatre_dining_table_napoleon_iii_sofa_2015_gray.jpg,n04379243_-7,n04256520_9,flexible,0.741797,n04256520_9,Stimuli/psy_flexible_rotation_30_objects_occ0.7_0.9s/images/train/n04379243_-7/n04256520_9/img_quatre_dining_table_napoleon_iii_sofa_2015-3_gray.png,foreground,same as foreground,n04379243_-7,n04405907_8,Stimuli/canonical view 2/img_n04379243_-7_gray.jpg,Stimuli/canonical view 2/img_n04405907_8_gray.jpg,random,right,Experiments/experiment_25/336.jpg,Experiments/experiment_25/337.jpg,Experiments/experiment_25/338.jpg,Experiments/experiment_25/339.jpg,227,1,2023-05-26_12h51.23.292,Occlusion_Psychophysics,2022.1.4,Win32,60.07088364,,,right,"[""right""]",[0.8057999999523418],False,,0.0,0.0,84.0,84.0,84.0,1.0,,,,,,
,,,,,,,,,,,,,,,,,,,,,0.05,,,,,,,,,,Stimuli/psy_fixed_rotation_30_objects_occ0.7_0.9s/images/train/n04256520_5/n04256520_9/img_meridiani_belmondo_bench_sofa_napoleon_iii_sofa_2012_gray.jpg,n04256520_5,n04256520_9,fixed,0.715933,n02883344_-1,Stimuli/psy_fixed_rotation_30_objects_occ0.7_0.9s/images/train/n03001627_9/n02883344_-1/img_chair_eames_plastic_armchair_woven_box_2012-3_gray.png,random,fixed,n04256520_5,n02883344_-1,Stimuli/canonical view 2/img_n04256520_5_gray.jpg,Stimuli/canonical view 2/img_n02883344_-1_gray.jpg,random,right,Experiments/experiment_25/340.jpg,Experiments/experiment_25/341.jpg,Experiments/experiment_25/342.jpg,Experiments/experiment_25/343.jpg,227,1,2023-05-26_12h51.23.292,Occlusion_Psychophysics,2022.1.4,Win32,60.07088364,,,right,"[""right""]",[0.8704000000952874],False,,0.0,0.0,85.0,85.0,85.0,1.0,,,,,,
,,,,,,,,,,,,,,,,,,,,,0.05,,,,,,,,,,Stimuli/psy_fixed_rotation_30_objects_occ0.7_0.9s/images/train/n02933112_-18/n04379243_-7/img_cgaxis_models_48_26_vray_composite_quatre_dining_table_2015_gray.jpg,n02933112_-18,n04379243_-7,fixed,0.771738,n04379243_-7,Stimuli/psy_fixed_rotation_30_objects_occ0.7_0.9s/images/train/n02933112_-18/n04379243_-7/img_cgaxis_models_48_26_vray_composite_quatre_dining_table_2015-3_gray.png,foreground,same as foreground,n02933112_-18,n02828884_4,Stimuli/canonical view 2/img_n02933112_-18_gray.jpg,Stimuli/canonical view 2/img_n02828884_4_gray.jpg,random,left,Experiments/experiment_25/344.jpg,Experiments/experiment_25/345.jpg,Experiments/experiment_25/346.jpg,Experiments/experiment_25/347.jpg,227,1,2023-05-26_12h51.23.292,Occlusion_Psychophysics,2022.1.4,Win32,60.07088364,,,right,"[""left""]",[0.9539999999999509],True,right,1.0,0.0,86.0,86.0,86.0,1.0,0.9077,,,,,
,,,,,,,,,,,,,,,,,,,,,0.025,,,,,,,,,,Stimuli/psy_fixed_rotation_30_objects_occ0.7_0.9s/images/train/n02818832_0/n04379243_-7/img_b03_the_sofa_and_chair_company_-_stanley_bed_2014_quatre_dining_table_2001_gray.jpg,n02818832_0,n04379243_-7,fixed,0.86229,n04379243_-7,Stimuli/psy_fixed_rotation_30_objects_occ0.7_0.9s/images/train/n02818832_0/n04379243_-7/img_b03_the_sofa_and_chair_company_-_stanley_bed_2014_quatre_dining_table_2001-3_gray.png,foreground,same as foreground,n02818832_0,n04379243_0,Stimuli/canonical view 2/img_n02818832_0_gray.jpg,Stimuli/canonical view 2/img_n04379243_0_gray.jpg,random,right,Experiments/experiment_25/348.jpg,Experiments/experiment_25/349.jpg,Experiments/experiment_25/350.jpg,Experiments/experiment_25/351.jpg,227,1,2023-05-26_12h51.23.292,Occlusion_Psychophysics,2022.1.4,Win32,60.07088364,,,right,"[""right""]",[0.9638999998569489],False,,0.0,0.0,87.0,87.0,87.0,1.0,,,,,,
,,,,,,,,,,,,,,,,,,,,,0.05,,,,,,,,,,Stimuli/psy_flexible_rotation_30_objects_occ0.7_0.9s/images/train/n03928116_4/n02818832_9/img_dp_33_b_2013__vray_bed01_blue_2002_gray.jpg,n03928116_4,n02818832_9,flexible,0.727301,n04256520_4,Stimuli/psy_fixed_rotation_30_objects_occ0.7_0.9s/images/train/n03928116_0/n04256520_4/img_b02_piano_club_house_italia_nautilus_sofa_2008-3_gray.png,random,fixed,n03928116_4,n02933112_-2,Stimuli/canonical view 2/img_n03928116_4_gray.jpg,Stimuli/canonical view 2/img_n02933112_-2_gray.jpg,random,right,Experiments/experiment_25/352.jpg,Experiments/experiment_25/353.jpg,Experiments/experiment_25/354.jpg,Experiments/experiment_25/355.jpg,227,1,2023-05-26_12h51.23.292,Occlusion_Psychophysics,2022.1.4,Win32,60.07088364,,,left,"[""left""]",[0.9777000000476619],False,,0.0,0.0,88.0,88.0,88.0,1.0,,,,,,
,,,,,,,,,,,,,,,,,,,,,0.025,,,,,,,,,,Stimuli/psy_flexible_rotation_30_objects_occ0.7_0.9s/images/train/n02818832_0/n02933112_4/img_b03_the_sofa_and_chair_company_-_stanley_bed_2014_buffet_2000_gray.jpg,n02818832_0,n02933112_4,flexible,0.764757,n02933112_-18,Stimuli/psy_fixed_rotation_30_objects_occ0.7_0.9s/images/train/n03001627_9/n02933112_-18/img_chair_eames_plastic_armchair_cgaxis_models_48_26_vray_composite_2008-3_gray.png,random,fixed,n02818832_0,n02933112_4,Stimuli/canonical view 2/img_n02818832_0_gray.jpg,Stimuli/canonical view 2/img_n02933112_4_gray.jpg,foreground,left,Experiments/experiment_25/356.jpg,Experiments/experiment_25/357.jpg,Experiments/experiment_25/358.jpg,Experiments/experiment_25/359.jpg,227,1,2023-05-26_12h51.23.292,Occlusion_Psychophysics,2022.1.4,Win32,60.07088364,,,right,"[""right""]",[0.8073999998568979],False,,0.0,0.0,89.0,89.0,89.0,1.0,,,,,,
,,,,,,,,,,,,,,,,,,,,,0.025,,,,,,,,,,Stimuli/psy_fixed_rotation_30_objects_occ0.7_0.9s/images/train/n02818832_9/n02883344_0/img_bed01_blue_b03_box_2009_gray.jpg,n02818832_9,n02883344_0,fixed,0.736017,n02883344_15,Stimuli/psy_fixed_rotation_30_objects_occ0.7_0.9s/images/train/n04070727_0/n02883344_15/img_b03_ka90ivi20r_2013__vray_microwave_box_2006-3_gray.png,random,fixed,n02818832_9,n02883344_15,Stimuli/canonical view 2/img_n02818832_9_gray.jpg,Stimuli/canonical view 2/img_n02883344_15_gray.jpg,random,left,Experiments/experiment_25/360.jpg,Experiments/experiment_25/361.jpg,Experiments/experiment_25/362.jpg,Experiments/experiment_25/363.jpg,227,1,2023-05-26_12h51.23.292,Occlusion_Psychophysics,2022.1.4,Win32,60.07088364,,,right,"[""right""]",[0.6051999998092015],False,,0.0,0.0,90.0,90.0,90.0,1.0,,,,,,
,,,,,,,,,,,,,,,,,,,,,0.05,,,,,,,,,,Stimuli/psy_fixed_rotation_30_objects_occ0.7_0.9s/images/train/n02933112_4/n02883344_15/img_buffet_microwave_box_2012_gray.jpg,n02933112_4,n02883344_15,fixed,0.705493,n02933112_-2,Stimuli/psy_flexible_rotation_30_objects_occ0.7_0.9s/images/train/n04256520_5/n02933112_-2/img_meridiani_belmondo_bench_sofa_sink_base_white_wood_2008-3_gray.png,random,flexible,n02933112_4,n03928116_4,Stimuli/canonical view 2/img_n02933112_4_gray.jpg,Stimuli/canonical view 2/img_n03928116_4_gray.jpg,random,right,Experiments/experiment_25/364.jpg,Experiments/experiment_25/365.jpg,Experiments/experiment_25/366.jpg,Experiments/experiment_25/367.jpg,227,1,2023-05-26_12h51.23.292,Occlusion_Psychophysics,2022.1.4,Win32,60.07088364,,,left,"[""left""]",[0.6209000000953893],False,,0.0,0.0,91.0,91.0,91.0,1.0,,,,,,
,,,,,,,,,,,,,,,,,,,,,0.025,,,,,,,,,,Stimuli/psy_fixed_rotation_30_objects_occ0.7_0.9s/images/train/n02818832_0/n02818832_3/img_b03_the_sofa_and_chair_company_-_stanley_bed_2014_b05_ccm_contemporary_bed_max2013_2006_gray.jpg,n02818832_0,n02818832_3,fixed,0.842211,n02828884_3,Stimuli/psy_flexible_rotation_30_objects_occ0.7_0.9s/images/train/n03928116_10/n02828884_3/img_ydp_103_r_2012__vray_b04_wood_metal_park_bench_2000-3_gray.png,random,flexible,n02818832_0,n02818832_3,Stimuli/canonical view 2/img_n02818832_0_gray.jpg,Stimuli/canonical view 2/img_n02818832_3_gray.jpg,foreground,right,Experiments/experiment_25/368.jpg,Experiments/experiment_25/369.jpg,Experiments/experiment_25/370.jpg,Experiments/experiment_25/371.jpg,227,1,2023-05-26_12h51.23.292,Occlusion_Psychophysics,2022.1.4,Win32,60.07088364,,,right,"[""right""]",[1.0434999999999945],False,,0.0,0.0,92.0,92.0,92.0,1.0,,,,,,
,,,,,,,,,,,,,,,,,,,,,0.025,,,,,,,,,,Stimuli/psy_fixed_rotation_30_objects_occ0.7_0.9s/images/train/n02818832_9/n04379243_8/img_bed01_blue_glass_table_2000_gray.jpg,n02818832_9,n04379243_8,fixed,0.712529,n04405907_8,Stimuli/psy_fixed_rotation_30_objects_occ0.7_0.9s/images/train/n03001627_9/n04405907_8/img_chair_eames_plastic_armchair_stylized_tv_2005-3_gray.png,random,fixed,n02818832_9,n03001627_8,Stimuli/canonical view 2/img_n02818832_9_gray.jpg,Stimuli/canonical view 2/img_n03001627_8_gray.jpg,random,left,Experiments/experiment_25/372.jpg,Experiments/experiment_25/373.jpg,Experiments/experiment_25/374.jpg,Experiments/experiment_25/375.jpg,227,1,2023-05-26_12h51.23.292,Occlusion_Psychophysics,2022.1.4,Win32,60.07088364,,,left,"[""right""]",[1.1554999999998472],False,,0.0,0.0,93.0,93.0,93.0,1.0,,,,,,
,,,,,,,,,,,,,,,,,,,,,0.025,,,,,,,,,,Stimuli/psy_fixed_rotation_30_objects_occ0.7_0.9s/images/train/n04379243_0/n02828884_3/img_17th_c._monastery_dining_table_2010_b04_wood_metal_park_bench_2004_gray.jpg,n04379243_0,n02828884_3,fixed,0.72862,n02828884_3,Stimuli/psy_fixed_rotation_30_objects_occ0.7_0.9s/images/train/n04379243_0/n02828884_3/img_17th_c._monastery_dining_table_2010_b04_wood_metal_park_bench_2004-3_gray.png,foreground,same as foreground,n04379243_0,n02828884_3,Stimuli/canonical view 2/img_n04379243_0_gray.jpg,Stimuli/canonical view 2/img_n02828884_3_gray.jpg,foreground,right,Experiments/experiment_25/376.jpg,Experiments/experiment_25/377.jpg,Experiments/experiment_25/378.jpg,Experiments/experiment_25/379.jpg,227,1,2023-05-26_12h51.23.292,Occlusion_Psychophysics,2022.1.4,Win32,60.07088364,,,left,"[""left""]",[0.9945000000000164],False,,0.0,0.0,94.0,94.0,94.0,1.0,,,,,,
,,,,,,,,,,,,,,,,,,,,,0.05,,,,,,,,,,Stimuli/psy_flexible_rotation_30_objects_occ0.7_0.9s/images/train/n02818832_0/n04405907_5/img_b03_the_sofa_and_chair_company_-_stanley_bed_2014_samsung_40_uhd_smart_tv_2011_2008_gray.jpg,n02818832_0,n04405907_5,flexible,0.709269,n04405907_5,Stimuli/psy_flexible_rotation_30_objects_occ0.7_0.9s/images/train/n02818832_0/n04405907_5/img_b03_the_sofa_and_chair_company_-_stanley_bed_2014_samsung_40_uhd_smart_tv_2011_2008-3_gray.png,foreground,same as foreground,n02818832_0,n02828884_4,Stimuli/canonical view 2/img_n02818832_0_gray.jpg,Stimuli/canonical view 2/img_n02828884_4_gray.jpg,random,right,Experiments/experiment_25/380.jpg,Experiments/experiment_25/381.jpg,Experiments/experiment_25/382.jpg,Experiments/experiment_25/383.jpg,227,1,2023-05-26_12h51.23.292,Occlusion_Psychophysics,2022.1.4,Win32,60.07088364,,,left,"[""left""]",[0.7044000000953474],False,,0.0,0.0,95.0,95.0,95.0,1.0,,,,,,
,,,,,,,,,,,,,,,,,,,,,0.025,,,,,,,,,,Stimuli/psy_flexible_rotation_30_objects_occ0.7_0.9s/images/train/n04379243_-7/n02883344_15/img_quatre_dining_table_microwave_box_2002_gray.jpg,n04379243_-7,n02883344_15,flexible,0.828123,n02883344_15,Stimuli/psy_flexible_rotation_30_objects_occ0.7_0.9s/images/train/n04379243_-7/n02883344_15/img_quatre_dining_table_microwave_box_2002-3_gray.png,foreground,same as foreground,n04379243_-7,n03928116_4,Stimuli/canonical view 2/img_n04379243_-7_gray.jpg,Stimuli/canonical view 2/img_n03928116_4_gray.jpg,random,left,Experiments/experiment_25/384.jpg,Experiments/experiment_25/385.jpg,Experiments/experiment_25/386.jpg,Experiments/experiment_25/387.jpg,227,1,2023-05-26_12h51.23.292,Occlusion_Psychophysics,2022.1.4,Win32,60.07088364,,,left,"[""left""]",[1.0376999998093197],False,,0.0,0.0,96.0,96.0,96.0,1.0,,,,,,
,,,,,,,,,,,,,,,,,,,,,0.025,,,,,,,,,,Stimuli/psy_fixed_rotation_30_objects_occ0.7_0.9s/images/train/n02828884_3/n04256520_9/img_b04_wood_metal_park_bench_napoleon_iii_sofa_2005_gray.jpg,n02828884_3,n04256520_9,fixed,0.706303,n04256520_9,Stimuli/psy_fixed_rotation_30_objects_occ0.7_0.9s/images/train/n02828884_3/n04256520_9/img_b04_wood_metal_park_bench_napoleon_iii_sofa_2005-3_gray.png,foreground,same as foreground,n02828884_3,n02883344_-1,Stimuli/canonical view 2/img_n02828884_3_gray.jpg,Stimuli/canonical view 2/img_n02883344_-1_gray.jpg,random,right,Experiments/experiment_25/388.jpg,Experiments/experiment_25/389.jpg,Experiments/experiment_25/390.jpg,Experiments/experiment_25/391.jpg,227,1,2023-05-26_12h51.23.292,Occlusion_Psychophysics,2022.1.4,Win32,60.07088364,,,right,"[""right""]",[0.7864000000952274],False,,0.0,0.0,97.0,97.0,97.0,1.0,,,,,,
,,,,,,,,,,,,,,,,,,,,,0.025,,,,,,,,,,Stimuli/psy_flexible_rotation_30_objects_occ0.7_0.9s/images/train/n04256520_9/n04379243_-7/img_napoleon_iii_sofa_quatre_dining_table_2005_gray.jpg,n04256520_9,n04379243_-7,flexible,0.74338,n04405907_8,Stimuli/psy_fixed_rotation_30_objects_occ0.7_0.9s/images/train/n04379243_0/n04405907_8/img_17th_c._monastery_dining_table_2010_stylized_tv_2006-3_gray.png,random,fixed,n04256520_9,n04379243_-7,Stimuli/canonical view 2/img_n04256520_9_gray.jpg,Stimuli/canonical view 2/img_n04379243_-7_gray.jpg,foreground,left,Experiments/experiment_25/392.jpg,Experiments/experiment_25/393.jpg,Experiments/experiment_25/394.jpg,Experiments/experiment_25/395.jpg,227,1,2023-05-26_12h51.23.292,Occlusion_Psychophysics,2022.1.4,Win32,60.07088364,,,left,"[""left""]",[0.6967999999521908],False,,0.0,0.0,98.0,98.0,98.0,1.0,,,,,,
,,,,,,,,,,,,,,,,,,,,,0.025,,,,,,,,,,Stimuli/psy_fixed_rotation_30_objects_occ0.7_0.9s/images/train/n04405907_9/n02883344_15/img_vray_004_microwave_box_2005_gray.jpg,n04405907_9,n02883344_15,fixed,0.757989,n03928116_0,Stimuli/psy_fixed_rotation_30_objects_occ0.7_0.9s/images/train/n02883344_15/n03928116_0/img_microwave_box_b02_piano_2012-3_gray.png,random,fixed,n04405907_9,n02883344_15,Stimuli/canonical view 2/img_n04405907_9_gray.jpg,Stimuli/canonical view 2/img_n02883344_15_gray.jpg,foreground,left,Experiments/experiment_25/396.jpg,Experiments/experiment_25/397.jpg,Experiments/experiment_25/398.jpg,Experiments/experiment_25/399.jpg,227,1,2023-05-26_12h51.23.292,Occlusion_Psychophysics,2022.1.4,Win32,60.07088364,,,right,"[""right""]",[0.9899000000953038],False,,0.0,0.0,99.0,99.0,99.0,1.0,,,,,,
,,,,,,,,,,,,,,,,,,,,,,,,,,,,,,,,,,,,,,,,,,,,,,,,,,227,1,2023-05-26_12h51.23.292,Occlusion_Psychophysics,2022.1.4,Win32,60.07088364,,,,,,,,,,,,,,,0.0,0.0,0.0,0.0,1.0
,,,,,,,,,,,,,,,,,,,,,0.05,,,,,,,,,,Stimuli/psy_flexible_rotation_30_objects_occ0.7_0.9s/images/train/n02883344_15/n02933112_4/img_microwave_box_buffet_2001_gray.jpg,n02883344_15,n02933112_4,flexible,0.840912,n02933112_4,Stimuli/psy_flexible_rotation_30_objects_occ0.7_0.9s/images/train/n02883344_15/n02933112_4/img_microwave_box_buffet_2001-3_gray.png,foreground,same as foreground,n02883344_15,n02933112_-2,Stimuli/canonical view 2/img_n02883344_15_gray.jpg,Stimuli/canonical view 2/img_n02933112_-2_gray.jpg,random,left,Experiments/experiment_25/400.jpg,Experiments/experiment_25/401.jpg,Experiments/experiment_25/402.jpg,Experiments/experiment_25/403.jpg,227,1,2023-05-26_12h51.23.292,Occlusion_Psychophysics,2022.1.4,Win32,60.07088364,,,right,"[""right""]",[1.0295999999048036],False,,0.0,0.0,0.0,0.0,0.0,1.0,,,,,,
,,,,,,,,,,,,,,,,,,,,,0.05,,,,,,,,,,Stimuli/psy_flexible_rotation_30_objects_occ0.7_0.9s/images/train/n04256520_4/n02818832_3/img_club_house_italia_nautilus_sofa_b05_ccm_contemporary_bed_max2013_2014_gray.jpg,n04256520_4,n02818832_3,flexible,0.810753,n02818832_3,Stimuli/psy_flexible_rotation_30_objects_occ0.7_0.9s/images/train/n04256520_4/n02818832_3/img_club_house_italia_nautilus_sofa_b05_ccm_contemporary_bed_max2013_2014-3_gray.png,foreground,same as foreground,n04256520_4,n02818832_3,Stimuli/canonical view 2/img_n04256520_4_gray.jpg,Stimuli/canonical view 2/img_n02818832_3_gray.jpg,foreground,right,Experiments/experiment_25/404.jpg,Experiments/experiment_25/405.jpg,Experiments/experiment_25/406.jpg,Experiments/experiment_25/407.jpg,227,1,2023-05-26_12h51.23.292,Occlusion_Psychophysics,2022.1.4,Win32,60.07088364,,,right,"[""right""]",[0.777100000143264],False,,0.0,0.0,1.0,1.0,1.0,1.0,,,,,,
,,,,,,,,,,,,,,,,,,,,,0.025,,,,,,,,,,Stimuli/psy_fixed_rotation_30_objects_occ0.7_0.9s/images/train/n02818832_0/n04405907_5/img_b03_the_sofa_and_chair_company_-_stanley_bed_2014_samsung_40_uhd_smart_tv_2011_2006_gray.jpg,n02818832_0,n04405907_5,fixed,0.725179,n04405907_5,Stimuli/psy_fixed_rotation_30_objects_occ0.7_0.9s/images/train/n02818832_0/n04405907_5/img_b03_the_sofa_and_chair_company_-_stanley_bed_2014_samsung_40_uhd_smart_tv_2011_2006-3_gray.png,foreground,same as foreground,n02818832_0,n03928116_0,Stimuli/canonical view 2/img_n02818832_0_gray.jpg,Stimuli/canonical view 2/img_n03928116_0_gray.jpg,random,left,Experiments/experiment_25/408.jpg,Experiments/experiment_25/409.jpg,Experiments/experiment_25/410.jpg,Experiments/experiment_25/411.jpg,227,1,2023-05-26_12h51.23.292,Occlusion_Psychophysics,2022.1.4,Win32,60.07088364,,,right,"[""left""]",[1.077599999904578],False,,0.0,0.0,2.0,2.0,2.0,1.0,,,,,,
,,,,,,,,,,,,,,,,,,,,,0.025,,,,,,,,,,Stimuli/psy_flexible_rotation_30_objects_occ0.7_0.9s/images/train/n02828884_9/n02933112_-2/img_cr-96_bench_sink_base_white_wood_2004_gray.jpg,n02828884_9,n02933112_-2,flexible,0.734188,n02818832_0,Stimuli/psy_flexible_rotation_30_objects_occ0.7_0.9s/images/train/n02818832_9/n02818832_0/img_bed01_blue_b03_the_sofa_and_chair_company_-_stanley_bed_2014_2000-3_gray.png,random,flexible,n02828884_9,n03001627_8,Stimuli/canonical view 2/img_n02828884_9_gray.jpg,Stimuli/canonical view 2/img_n03001627_8_gray.jpg,random,left,Experiments/experiment_25/412.jpg,Experiments/experiment_25/413.jpg,Experiments/experiment_25/414.jpg,Experiments/experiment_25/415.jpg,227,1,2023-05-26_12h51.23.292,Occlusion_Psychophysics,2022.1.4,Win32,60.07088364,,,left,"[""left""]",[0.8521000001430821],False,,0.0,0.0,3.0,3.0,3.0,1.0,,,,,,
,,,,,,,,,,,,,,,,,,,,,0.025,,,,,,,,,,Stimuli/psy_fixed_rotation_30_objects_occ0.7_0.9s/images/train/n02883344_-1/n02933112_-18/img_woven_box_cgaxis_models_48_26_vray_composite_2005_gray.jpg,n02883344_-1,n02933112_-18,fixed,0.85311,n02933112_-18,Stimuli/psy_fixed_rotation_30_objects_occ0.7_0.9s/images/train/n02883344_-1/n02933112_-18/img_woven_box_cgaxis_models_48_26_vray_composite_2005-3_gray.png,foreground,same as foreground,n02883344_-1,n04256520_5,Stimuli/canonical view 2/img_n02883344_-1_gray.jpg,Stimuli/canonical view 2/img_n04256520_5_gray.jpg,random,right,Experiments/experiment_25/416.jpg,Experiments/experiment_25/417.jpg,Experiments/experiment_25/418.jpg,Experiments/experiment_25/419.jpg,227,1,2023-05-26_12h51.23.292,Occlusion_Psychophysics,2022.1.4,Win32,60.07088364,,,right,"[""left""]",[1.0104999999998654],False,,0.0,0.0,4.0,4.0,4.0,1.0,,,,,,
,,,,,,,,,,,,,,,,,,,,,0.025,,,,,,,,,,Stimuli/psy_fixed_rotation_30_objects_occ0.7_0.9s/images/train/n04256520_4/n02883344_0/img_club_house_italia_nautilus_sofa_b03_box_2003_gray.jpg,n04256520_4,n02883344_0,fixed,0.78438,n02883344_15,Stimuli/psy_flexible_rotation_30_objects_occ0.7_0.9s/images/train/n03928116_0/n02883344_15/img_b02_piano_microwave_box_2006-3_gray.png,random,flexible,n04256520_4,n02883344_0,Stimuli/canonical view 2/img_n04256520_4_gray.jpg,Stimuli/canonical view 2/img_n02883344_0_gray.jpg,foreground,right,Experiments/experiment_25/420.jpg,Experiments/experiment_25/421.jpg,Experiments/experiment_25/422.jpg,Experiments/experiment_25/423.jpg,227,1,2023-05-26_12h51.23.292,Occlusion_Psychophysics,2022.1.4,Win32,60.07088364,,,right,"[""right""]",[0.7398999998567888],False,,0.0,0.0,5.0,5.0,5.0,1.0,,,,,,
,,,,,,,,,,,,,,,,,,,,,0.05,,,,,,,,,,Stimuli/psy_fixed_rotation_30_objects_occ0.7_0.9s/images/train/n02818832_0/n04256520_5/img_b03_the_sofa_and_chair_company_-_stanley_bed_2014_meridiani_belmondo_bench_sofa_2010_gray.jpg,n02818832_0,n04256520_5,fixed,0.784414,n04256520_5,Stimuli/psy_fixed_rotation_30_objects_occ0.7_0.9s/images/train/n02818832_0/n04256520_5/img_b03_the_sofa_and_chair_company_-_stanley_bed_2014_meridiani_belmondo_bench_sofa_2010-3_gray.png,foreground,same as foreground,n02818832_0,n02818832_3,Stimuli/canonical view 2/img_n02818832_0_gray.jpg,Stimuli/canonical view 2/img_n02818832_3_gray.jpg,random,right,Experiments/experiment_25/424.jpg,Experiments/experiment_25/425.jpg,Experiments/experiment_25/426.jpg,Experiments/experiment_25/427.jpg,227,1,2023-05-26_12h51.23.292,Occlusion_Psychophysics,2022.1.4,Win32,60.07088364,,,left,"[""left""]",[1.138900000095191],False,,0.0,0.0,6.0,6.0,6.0,1.0,,,,,,
