in_color,Instructions_key.keys,Instructions_key.rt,Tutorial_instruction_key.keys,Tutorial_instruction_key.rt,Tutorial_fixation_ley.keys,Tutorial_fixation_ley.rt,Tutorial_single_img_key.keys,Tutorial_single_img_key.rt,Tutorial_intra_trial_fixation_key.keys,Tutorial_intra_trial_fixation_key.rt,Tutorial_stimulus_key.keys,Tutorial_stimulus_key.rt,Tutorial_response_key.keys,Tutorial_response_key.rt,Tutorial_attention_check_key.keys,Tutorial_attention_check_key.rt,advance_or_repeat.keys,advance_or_repeat.rt,Practice_instructions_key.keys,Practice_instructions_key.rt,intra_trial_duration,Practice_key_response.keys,Practice_key_response.rt,Practice_react_key.keys,Practice_react_key.rt,Practice_loop.thisRepN,Practice_loop.thisTrialN,Practice_loop.thisN,Practice_loop.thisIndex,Practice_loop.ran,multi_object_filepath,background_id,foreground_id,multi_object_rotation,occlusion_level,single_object_id,single_object_filepath,single_is_foreground_or_random,single_object_rotation,background_choice_id,alt_choice_id,background_option_filepath,alternative_option_filepath,alternative_is_foreground_or_random,location_of_correct_answer,multi_object_exp_filename,single_object_exp_filename,background_option_exp_filename,alternative_option_exp_filename,participant,session,date,expName,psychopyVersion,OS,frameRate,Practice_end_key.keys,Practice_end_key.rt,correct_answer,Input_selection.keys,Input_selection.rt,Was_attention_check,Attention_check.keys,Attention_check.corr,Each_session_loop.thisRepN,Each_session_loop.thisTrialN,Each_session_loop.thisN,Each_session_loop.thisIndex,Each_session_loop.ran,Attention_check.rt,Num_sessions.thisRepN,Num_sessions.thisTrialN,Num_sessions.thisN,Num_sessions.thisIndex,Num_sessions.ran
False,space,23.9548,space,2.4027,space,2.419,space,3.0695,space,1.5023,space,9.707,left,4.7838,space,3.937,a,6.5005,space,2.5781,0.025,right,1.3853,a,3.1524,0.0,0.0,0.0,0.0,1.0,Stimuli/psy_flexible_rotation_30_objects_occ0.7_0.9s/images/train/n03928116_10/n02933112_-2/img_ydp_103_r_2012__vray_sink_base_white_wood_2012_gray.jpg,n03928116_10,n02933112_-2,flexible,0.718361,n02828884_3,Stimuli/psy_flexible_rotation_30_objects_occ0.7_0.9s/images/train/n04379243_-7/n02828884_3/img_quatre_dining_table_b04_wood_metal_park_bench_2015-3_gray.png,random,flexible,n03928116_10,n02933112_-2,Stimuli/canonical view 2/img_n03928116_10_gray.jpg,Stimuli/canonical view 2/img_n02933112_-2_gray.jpg,foreground,right,Experiments/experiment_18/1000.jpg,Experiments/experiment_18/1001.jpg,Experiments/experiment_18/1002.jpg,Experiments/experiment_18/1003.jpg,264,1,2023-04-03_17h22.23.629,Occlusion_Psychophysics,2022.1.4,MacIntel,59.93407252,,,,,,,,,,,,,,,,,,,
,,,,,,,,,,,,,,,,,,,,,0.05,,,,,,,,,,Stimuli/psy_flexible_rotation_30_objects_occ0.7_0.9s/images/train/n04256520_9/n03928116_4/img_napoleon_iii_sofa_dp_33_b_2013__vray_2008_gray.jpg,n04256520_9,n03928116_4,flexible,0.734595,n03928116_4,Stimuli/psy_flexible_rotation_30_objects_occ0.7_0.9s/images/train/n04256520_9/n03928116_4/img_napoleon_iii_sofa_dp_33_b_2013__vray_2008-3_gray.png,foreground,same as foreground,n04256520_9,n02883344_15,Stimuli/canonical view 2/img_n04256520_9_gray.jpg,Stimuli/canonical view 2/img_n02883344_15_gray.jpg,random,left,Experiments/experiment_18/0.jpg,Experiments/experiment_18/1.jpg,Experiments/experiment_18/2.jpg,Experiments/experiment_18/3.jpg,264,1,2023-04-03_17h22.23.629,Occlusion_Psychophysics,2022.1.4,MacIntel,59.93407252,space,1.4664,right,"[""left""]",[1.4258999999761386],False,,0.0,0.0,0.0,0.0,0.0,1.0,,,,,,
,,,,,,,,,,,,,,,,,,,,,0.05,,,,,,,,,,Stimuli/psy_flexible_rotation_30_objects_occ0.7_0.9s/images/train/n03928116_4/n02933112_4/img_dp_33_b_2013__vray_buffet_2009_gray.jpg,n03928116_4,n02933112_4,flexible,0.841064,n04405907_5,Stimuli/psy_fixed_rotation_30_objects_occ0.7_0.9s/images/train/n04379243_8/n04405907_5/img_glass_table_samsung_40_uhd_smart_tv_2011_2003-3_gray.png,random,fixed,n03928116_4,n02818832_9,Stimuli/canonical view 2/img_n03928116_4_gray.jpg,Stimuli/canonical view 2/img_n02818832_9_gray.jpg,random,right,Experiments/experiment_18/4.jpg,Experiments/experiment_18/5.jpg,Experiments/experiment_18/6.jpg,Experiments/experiment_18/7.jpg,264,1,2023-04-03_17h22.23.629,Occlusion_Psychophysics,2022.1.4,MacIntel,59.93407252,,,right,"[""right""]",[1.0628999999761959],True,right,1.0,0.0,1.0,1.0,1.0,1.0,1.4012,,,,,
,,,,,,,,,,,,,,,,,,,,,0.025,,,,,,,,,,Stimuli/psy_flexible_rotation_30_objects_occ0.7_0.9s/images/train/n04405907_9/n04405907_5/img_vray_004_samsung_40_uhd_smart_tv_2011_2001_gray.jpg,n04405907_9,n04405907_5,flexible,0.807564,n04379243_0,Stimuli/psy_flexible_rotation_30_objects_occ0.7_0.9s/images/train/n02883344_-1/n04379243_0/img_woven_box_17th_c._monastery_dining_table_2010_2000-3_gray.png,random,flexible,n04405907_9,n02883344_0,Stimuli/canonical view 2/img_n04405907_9_gray.jpg,Stimuli/canonical view 2/img_n02883344_0_gray.jpg,random,right,Experiments/experiment_18/8.jpg,Experiments/experiment_18/9.jpg,Experiments/experiment_18/10.jpg,Experiments/experiment_18/11.jpg,264,1,2023-04-03_17h22.23.629,Occlusion_Psychophysics,2022.1.4,MacIntel,59.93407252,,,left,"[""left""]",[0.8478000000715156],False,,0.0,0.0,2.0,2.0,2.0,1.0,,,,,,
,,,,,,,,,,,,,,,,,,,,,0.05,,,,,,,,,,Stimuli/psy_fixed_rotation_30_objects_occ0.7_0.9s/images/train/n02883344_-1/n02828884_3/img_woven_box_b04_wood_metal_park_bench_2013_gray.jpg,n02883344_-1,n02828884_3,fixed,0.808198,n02828884_3,Stimuli/psy_fixed_rotation_30_objects_occ0.7_0.9s/images/train/n02883344_-1/n02828884_3/img_woven_box_b04_wood_metal_park_bench_2013-3_gray.png,foreground,same as foreground,n02883344_-1,n02828884_3,Stimuli/canonical view 2/img_n02883344_-1_gray.jpg,Stimuli/canonical view 2/img_n02828884_3_gray.jpg,foreground,right,Experiments/experiment_18/12.jpg,Experiments/experiment_18/13.jpg,Experiments/experiment_18/14.jpg,Experiments/experiment_18/15.jpg,264,1,2023-04-03_17h22.23.629,Occlusion_Psychophysics,2022.1.4,MacIntel,59.93407252,,,right,"[""right""]",[1.5318000000715415],True,left,1.0,0.0,3.0,3.0,3.0,1.0,0.7737,,,,,
,,,,,,,,,,,,,,,,,,,,,0.05,,,,,,,,,,Stimuli/psy_flexible_rotation_30_objects_occ0.7_0.9s/images/train/n04256520_5/n04379243_8/img_meridiani_belmondo_bench_sofa_glass_table_2003_gray.jpg,n04256520_5,n04379243_8,flexible,0.748689,n04379243_8,Stimuli/psy_flexible_rotation_30_objects_occ0.7_0.9s/images/train/n04256520_5/n04379243_8/img_meridiani_belmondo_bench_sofa_glass_table_2003-3_gray.png,foreground,same as foreground,n04256520_5,n02828884_4,Stimuli/canonical view 2/img_n04256520_5_gray.jpg,Stimuli/canonical view 2/img_n02828884_4_gray.jpg,random,left,Experiments/experiment_18/16.jpg,Experiments/experiment_18/17.jpg,Experiments/experiment_18/18.jpg,Experiments/experiment_18/19.jpg,264,1,2023-04-03_17h22.23.629,Occlusion_Psychophysics,2022.1.4,MacIntel,59.93407252,,,left,"[""right""]",[1.6946999999285026],False,,0.0,0.0,4.0,4.0,4.0,1.0,,,,,,
,,,,,,,,,,,,,,,,,,,,,0.05,,,,,,,,,,Stimuli/psy_flexible_rotation_30_objects_occ0.7_0.9s/images/train/n04405907_5/n02883344_0/img_samsung_40_uhd_smart_tv_2011_b03_box_2000_gray.jpg,n04405907_5,n02883344_0,flexible,0.790205,n02883344_0,Stimuli/psy_flexible_rotation_30_objects_occ0.7_0.9s/images/train/n04405907_5/n02883344_0/img_samsung_40_uhd_smart_tv_2011_b03_box_2000-3_gray.png,foreground,same as foreground,n04405907_5,n04379243_-7,Stimuli/canonical view 2/img_n04405907_5_gray.jpg,Stimuli/canonical view 2/img_n04379243_-7_gray.jpg,random,left,Experiments/experiment_18/20.jpg,Experiments/experiment_18/21.jpg,Experiments/experiment_18/22.jpg,Experiments/experiment_18/23.jpg,264,1,2023-04-03_17h22.23.629,Occlusion_Psychophysics,2022.1.4,MacIntel,59.93407252,,,right,"[""right""]",[0.7586000000238755],False,,0.0,0.0,5.0,5.0,5.0,1.0,,,,,,
,,,,,,,,,,,,,,,,,,,,,0.025,,,,,,,,,,Stimuli/psy_fixed_rotation_30_objects_occ0.7_0.9s/images/train/n02883344_-1/n04379243_-7/img_woven_box_quatre_dining_table_2011_gray.jpg,n02883344_-1,n04379243_-7,fixed,0.814619,n02933112_4,Stimuli/psy_flexible_rotation_30_objects_occ0.7_0.9s/images/train/n03928116_4/n02933112_4/img_dp_33_b_2013__vray_buffet_2013-3_gray.png,random,flexible,n02883344_-1,n04405907_5,Stimuli/canonical view 2/img_n02883344_-1_gray.jpg,Stimuli/canonical view 2/img_n04405907_5_gray.jpg,random,left,Experiments/experiment_18/24.jpg,Experiments/experiment_18/25.jpg,Experiments/experiment_18/26.jpg,Experiments/experiment_18/27.jpg,264,1,2023-04-03_17h22.23.629,Occlusion_Psychophysics,2022.1.4,MacIntel,59.93407252,,,right,"[""right""]",[0.8204000000953897],False,,0.0,0.0,6.0,6.0,6.0,1.0,,,,,,
,,,,,,,,,,,,,,,,,,,,,0.025,,,,,,,,,,Stimuli/psy_fixed_rotation_30_objects_occ0.7_0.9s/images/train/n02933112_4/n02883344_0/img_buffet_b03_box_2014_gray.jpg,n02933112_4,n02883344_0,fixed,0.865091,n02883344_15,Stimuli/psy_flexible_rotation_30_objects_occ0.7_0.9s/images/train/n02933112_4/n02883344_15/img_buffet_microwave_box_2011-3_gray.png,random,flexible,n02933112_4,n03928116_0,Stimuli/canonical view 2/img_n02933112_4_gray.jpg,Stimuli/canonical view 2/img_n03928116_0_gray.jpg,random,right,Experiments/experiment_18/28.jpg,Experiments/experiment_18/29.jpg,Experiments/experiment_18/30.jpg,Experiments/experiment_18/31.jpg,264,1,2023-04-03_17h22.23.629,Occlusion_Psychophysics,2022.1.4,MacIntel,59.93407252,,,left,"[""left""]",[0.7213999999761995],False,,0.0,0.0,7.0,7.0,7.0,1.0,,,,,,
,,,,,,,,,,,,,,,,,,,,,0.025,,,,,,,,,,Stimuli/psy_fixed_rotation_30_objects_occ0.7_0.9s/images/train/n03928116_10/n03928116_4/img_ydp_103_r_2012__vray_dp_33_b_2013__vray_2011_gray.jpg,n03928116_10,n03928116_4,fixed,0.70879,n04256520_5,Stimuli/psy_flexible_rotation_30_objects_occ0.7_0.9s/images/train/n04379243_-7/n04256520_5/img_quatre_dining_table_meridiani_belmondo_bench_sofa_2015-3_gray.png,random,flexible,n03928116_10,n03928116_4,Stimuli/canonical view 2/img_n03928116_10_gray.jpg,Stimuli/canonical view 2/img_n03928116_4_gray.jpg,foreground,left,Experiments/experiment_18/32.jpg,Experiments/experiment_18/33.jpg,Experiments/experiment_18/34.jpg,Experiments/experiment_18/35.jpg,264,1,2023-04-03_17h22.23.629,Occlusion_Psychophysics,2022.1.4,MacIntel,59.93407252,,,right,"[""right""]",[1.0496000000238155],False,,0.0,0.0,8.0,8.0,8.0,1.0,,,,,,
,,,,,,,,,,,,,,,,,,,,,0.025,,,,,,,,,,Stimuli/psy_flexible_rotation_30_objects_occ0.7_0.9s/images/train/n02828884_3/n02818832_3/img_b04_wood_metal_park_bench_b05_ccm_contemporary_bed_max2013_2010_gray.jpg,n02828884_3,n02818832_3,flexible,0.703477,n04405907_5,Stimuli/psy_fixed_rotation_30_objects_occ0.7_0.9s/images/train/n02933112_4/n04405907_5/img_buffet_samsung_40_uhd_smart_tv_2011_2010-3_gray.png,random,fixed,n02828884_3,n02933112_4,Stimuli/canonical view 2/img_n02828884_3_gray.jpg,Stimuli/canonical view 2/img_n02933112_4_gray.jpg,random,right,Experiments/experiment_18/36.jpg,Experiments/experiment_18/37.jpg,Experiments/experiment_18/38.jpg,Experiments/experiment_18/39.jpg,264,1,2023-04-03_17h22.23.629,Occlusion_Psychophysics,2022.1.4,MacIntel,59.93407252,,,left,"[""left""]",[0.6599999999999682],False,,0.0,0.0,9.0,9.0,9.0,1.0,,,,,,
,,,,,,,,,,,,,,,,,,,,,0.025,,,,,,,,,,Stimuli/psy_flexible_rotation_30_objects_occ0.7_0.9s/images/train/n02828884_4/n04256520_5/img_b05_c-5_classic_series_bench-2012_meridiani_belmondo_bench_sofa_2011_gray.jpg,n02828884_4,n04256520_5,flexible,0.751422,n04379243_-7,Stimuli/psy_fixed_rotation_30_objects_occ0.7_0.9s/images/train/n02818832_9/n04379243_-7/img_bed01_blue_quatre_dining_table_2013-3_gray.png,random,fixed,n02828884_4,n03928116_4,Stimuli/canonical view 2/img_n02828884_4_gray.jpg,Stimuli/canonical view 2/img_n03928116_4_gray.jpg,random,right,Experiments/experiment_18/40.jpg,Experiments/experiment_18/41.jpg,Experiments/experiment_18/42.jpg,Experiments/experiment_18/43.jpg,264,1,2023-04-03_17h22.23.629,Occlusion_Psychophysics,2022.1.4,MacIntel,59.93407252,,,right,"[""right""]",[1.2440000000000282],False,,0.0,0.0,10.0,10.0,10.0,1.0,,,,,,
,,,,,,,,,,,,,,,,,,,,,0.05,,,,,,,,,,Stimuli/psy_fixed_rotation_30_objects_occ0.7_0.9s/images/train/n02828884_3/n02818832_9/img_b04_wood_metal_park_bench_bed01_blue_2007_gray.jpg,n02828884_3,n02818832_9,fixed,0.78718,n04379243_8,Stimuli/psy_flexible_rotation_30_objects_occ0.7_0.9s/images/train/n02818832_9/n04379243_8/img_bed01_blue_glass_table_2001-3_gray.png,random,flexible,n02828884_3,n03928116_4,Stimuli/canonical view 2/img_n02828884_3_gray.jpg,Stimuli/canonical view 2/img_n03928116_4_gray.jpg,random,right,Experiments/experiment_18/44.jpg,Experiments/experiment_18/45.jpg,Experiments/experiment_18/46.jpg,Experiments/experiment_18/47.jpg,264,1,2023-04-03_17h22.23.629,Occlusion_Psychophysics,2022.1.4,MacIntel,59.93407252,,,right,"[""right""]",[1.0453000000715065],False,,0.0,0.0,11.0,11.0,11.0,1.0,,,,,,
,,,,,,,,,,,,,,,,,,,,,0.05,,,,,,,,,,Stimuli/psy_flexible_rotation_30_objects_occ0.7_0.9s/images/train/n02883344_0/n02818832_9/img_b03_box_bed01_blue_2011_gray.jpg,n02883344_0,n02818832_9,flexible,0.782794,n02818832_9,Stimuli/psy_flexible_rotation_30_objects_occ0.7_0.9s/images/train/n02883344_0/n02818832_9/img_b03_box_bed01_blue_2011-3_gray.png,foreground,same as foreground,n02883344_0,n02818832_9,Stimuli/canonical view 2/img_n02883344_0_gray.jpg,Stimuli/canonical view 2/img_n02818832_9_gray.jpg,foreground,left,Experiments/experiment_18/48.jpg,Experiments/experiment_18/49.jpg,Experiments/experiment_18/50.jpg,Experiments/experiment_18/51.jpg,264,1,2023-04-03_17h22.23.629,Occlusion_Psychophysics,2022.1.4,MacIntel,59.93407252,,,right,"[""right""]",[0.7322999999522608],False,,0.0,0.0,12.0,12.0,12.0,1.0,,,,,,
,,,,,,,,,,,,,,,,,,,,,0.025,,,,,,,,,,Stimuli/psy_flexible_rotation_30_objects_occ0.7_0.9s/images/train/n04379243_-7/n04256520_9/img_quatre_dining_table_napoleon_iii_sofa_2012_gray.jpg,n04379243_-7,n04256520_9,flexible,0.711384,n02883344_15,Stimuli/psy_fixed_rotation_30_objects_occ0.7_0.9s/images/train/n04405907_5/n02883344_15/img_samsung_40_uhd_smart_tv_2011_microwave_box_2015-3_gray.png,random,fixed,n04379243_-7,n02883344_0,Stimuli/canonical view 2/img_n04379243_-7_gray.jpg,Stimuli/canonical view 2/img_n02883344_0_gray.jpg,random,right,Experiments/experiment_18/52.jpg,Experiments/experiment_18/53.jpg,Experiments/experiment_18/54.jpg,Experiments/experiment_18/55.jpg,264,1,2023-04-03_17h22.23.629,Occlusion_Psychophysics,2022.1.4,MacIntel,59.93407252,,,right,"[""right""]",[0.6655000000000086],False,,0.0,0.0,13.0,13.0,13.0,1.0,,,,,,
,,,,,,,,,,,,,,,,,,,,,0.05,,,,,,,,,,Stimuli/psy_flexible_rotation_30_objects_occ0.7_0.9s/images/train/n04379243_8/n04405907_9/img_glass_table_vray_004_2006_gray.jpg,n04379243_8,n04405907_9,flexible,0.732475,n02828884_3,Stimuli/psy_flexible_rotation_30_objects_occ0.7_0.9s/images/train/n03001627_9/n02828884_3/img_chair_eames_plastic_armchair_b04_wood_metal_park_bench_2006-3_gray.png,random,flexible,n04379243_8,n02818832_0,Stimuli/canonical view 2/img_n04379243_8_gray.jpg,Stimuli/canonical view 2/img_n02818832_0_gray.jpg,random,right,Experiments/experiment_18/56.jpg,Experiments/experiment_18/57.jpg,Experiments/experiment_18/58.jpg,Experiments/experiment_18/59.jpg,264,1,2023-04-03_17h22.23.629,Occlusion_Psychophysics,2022.1.4,MacIntel,59.93407252,,,right,"[""right""]",[0.7226000000238173],False,,0.0,0.0,14.0,14.0,14.0,1.0,,,,,,
,,,,,,,,,,,,,,,,,,,,,0.025,,,,,,,,,,Stimuli/psy_flexible_rotation_30_objects_occ0.7_0.9s/images/train/n02828884_3/n04405907_8/img_b04_wood_metal_park_bench_stylized_tv_2002_gray.jpg,n02828884_3,n04405907_8,flexible,0.805676,n04405907_8,Stimuli/psy_flexible_rotation_30_objects_occ0.7_0.9s/images/train/n02828884_3/n04405907_8/img_b04_wood_metal_park_bench_stylized_tv_2002-3_gray.png,foreground,same as foreground,n02828884_3,n04256520_9,Stimuli/canonical view 2/img_n02828884_3_gray.jpg,Stimuli/canonical view 2/img_n04256520_9_gray.jpg,random,left,Experiments/experiment_18/60.jpg,Experiments/experiment_18/61.jpg,Experiments/experiment_18/62.jpg,Experiments/experiment_18/63.jpg,264,1,2023-04-03_17h22.23.629,Occlusion_Psychophysics,2022.1.4,MacIntel,59.93407252,,,left,"[""left""]",[0.6113000000715374],False,,0.0,0.0,15.0,15.0,15.0,1.0,,,,,,
,,,,,,,,,,,,,,,,,,,,,0.025,,,,,,,,,,Stimuli/psy_flexible_rotation_30_objects_occ0.7_0.9s/images/train/n03928116_4/n02933112_-2/img_dp_33_b_2013__vray_sink_base_white_wood_2001_gray.jpg,n03928116_4,n02933112_-2,flexible,0.767692,n02933112_-2,Stimuli/psy_flexible_rotation_30_objects_occ0.7_0.9s/images/train/n03928116_4/n02933112_-2/img_dp_33_b_2013__vray_sink_base_white_wood_2001-3_gray.png,foreground,same as foreground,n03928116_4,n02933112_4,Stimuli/canonical view 2/img_n03928116_4_gray.jpg,Stimuli/canonical view 2/img_n02933112_4_gray.jpg,random,left,Experiments/experiment_18/64.jpg,Experiments/experiment_18/65.jpg,Experiments/experiment_18/66.jpg,Experiments/experiment_18/67.jpg,264,1,2023-04-03_17h22.23.629,Occlusion_Psychophysics,2022.1.4,MacIntel,59.93407252,,,left,"[""left""]",[0.8081000000238419],False,,0.0,0.0,16.0,16.0,16.0,1.0,,,,,,
,,,,,,,,,,,,,,,,,,,,,0.025,,,,,,,,,,Stimuli/psy_flexible_rotation_30_objects_occ0.7_0.9s/images/train/n03928116_0/n03001627_9/img_b02_piano_chair_eames_plastic_armchair_2006_gray.jpg,n03928116_0,n03001627_9,flexible,0.770791,n04256520_4,Stimuli/psy_fixed_rotation_30_objects_occ0.7_0.9s/images/train/n02883344_-1/n04256520_4/img_woven_box_club_house_italia_nautilus_sofa_2012-3_gray.png,random,fixed,n03928116_0,n03001627_9,Stimuli/canonical view 2/img_n03928116_0_gray.jpg,Stimuli/canonical view 2/img_n03001627_9_gray.jpg,foreground,left,Experiments/experiment_18/68.jpg,Experiments/experiment_18/69.jpg,Experiments/experiment_18/70.jpg,Experiments/experiment_18/71.jpg,264,1,2023-04-03_17h22.23.629,Occlusion_Psychophysics,2022.1.4,MacIntel,59.93407252,,,left,"[""left""]",[0.8773000000715001],False,,0.0,0.0,17.0,17.0,17.0,1.0,,,,,,
,,,,,,,,,,,,,,,,,,,,,0.025,,,,,,,,,,Stimuli/psy_flexible_rotation_30_objects_occ0.7_0.9s/images/train/n04405907_5/n03928116_0/img_samsung_40_uhd_smart_tv_2011_b02_piano_2000_gray.jpg,n04405907_5,n03928116_0,flexible,0.798531,n03928116_0,Stimuli/psy_flexible_rotation_30_objects_occ0.7_0.9s/images/train/n04405907_5/n03928116_0/img_samsung_40_uhd_smart_tv_2011_b02_piano_2000-3_gray.png,foreground,same as foreground,n04405907_5,n02883344_0,Stimuli/canonical view 2/img_n04405907_5_gray.jpg,Stimuli/canonical view 2/img_n02883344_0_gray.jpg,random,right,Experiments/experiment_18/72.jpg,Experiments/experiment_18/73.jpg,Experiments/experiment_18/74.jpg,Experiments/experiment_18/75.jpg,264,1,2023-04-03_17h22.23.629,Occlusion_Psychophysics,2022.1.4,MacIntel,59.93407252,,,left,"[""left""]",[1.0451999999284567],False,,0.0,0.0,18.0,18.0,18.0,1.0,,,,,,
,,,,,,,,,,,,,,,,,,,,,0.025,,,,,,,,,,Stimuli/psy_fixed_rotation_30_objects_occ0.7_0.9s/images/train/n03001627_9/n02828884_3/img_chair_eames_plastic_armchair_b04_wood_metal_park_bench_2009_gray.jpg,n03001627_9,n02828884_3,fixed,0.745494,n04256520_4,Stimuli/psy_flexible_rotation_30_objects_occ0.7_0.9s/images/train/n02883344_-1/n04256520_4/img_woven_box_club_house_italia_nautilus_sofa_2004-3_gray.png,random,flexible,n03001627_9,n04405907_8,Stimuli/canonical view 2/img_n03001627_9_gray.jpg,Stimuli/canonical view 2/img_n04405907_8_gray.jpg,random,right,Experiments/experiment_18/76.jpg,Experiments/experiment_18/77.jpg,Experiments/experiment_18/78.jpg,Experiments/experiment_18/79.jpg,264,1,2023-04-03_17h22.23.629,Occlusion_Psychophysics,2022.1.4,MacIntel,59.93407252,,,left,"[""right""]",[1.3037999999523322],False,,0.0,0.0,19.0,19.0,19.0,1.0,,,,,,
,,,,,,,,,,,,,,,,,,,,,0.05,,,,,,,,,,Stimuli/psy_flexible_rotation_30_objects_occ0.7_0.9s/images/train/n03001627_9/n03928116_0/img_chair_eames_plastic_armchair_b02_piano_2010_gray.jpg,n03001627_9,n03928116_0,flexible,0.884839,n03928116_0,Stimuli/psy_flexible_rotation_30_objects_occ0.7_0.9s/images/train/n03001627_9/n03928116_0/img_chair_eames_plastic_armchair_b02_piano_2010-3_gray.png,foreground,same as foreground,n03001627_9,n03928116_0,Stimuli/canonical view 2/img_n03001627_9_gray.jpg,Stimuli/canonical view 2/img_n03928116_0_gray.jpg,foreground,left,Experiments/experiment_18/80.jpg,Experiments/experiment_18/81.jpg,Experiments/experiment_18/82.jpg,Experiments/experiment_18/83.jpg,264,1,2023-04-03_17h22.23.629,Occlusion_Psychophysics,2022.1.4,MacIntel,59.93407252,,,left,"[""left""]",[0.8142000000476628],False,,0.0,0.0,20.0,20.0,20.0,1.0,,,,,,
,,,,,,,,,,,,,,,,,,,,,0.05,,,,,,,,,,Stimuli/psy_fixed_rotation_30_objects_occ0.7_0.9s/images/train/n02828884_9/n04256520_4/img_cr-96_bench_club_house_italia_nautilus_sofa_2000_gray.jpg,n02828884_9,n04256520_4,fixed,0.722004,n02883344_-1,Stimuli/psy_flexible_rotation_30_objects_occ0.7_0.9s/images/train/n04379243_0/n02883344_-1/img_17th_c._monastery_dining_table_2010_woven_box_2012-3_gray.png,random,flexible,n02828884_9,n04256520_4,Stimuli/canonical view 2/img_n02828884_9_gray.jpg,Stimuli/canonical view 2/img_n04256520_4_gray.jpg,foreground,right,Experiments/experiment_18/84.jpg,Experiments/experiment_18/85.jpg,Experiments/experiment_18/86.jpg,Experiments/experiment_18/87.jpg,264,1,2023-04-03_17h22.23.629,Occlusion_Psychophysics,2022.1.4,MacIntel,59.93407252,,,right,"[""right""]",[0.6423000000715433],False,,0.0,0.0,21.0,21.0,21.0,1.0,,,,,,
,,,,,,,,,,,,,,,,,,,,,0.05,,,,,,,,,,Stimuli/psy_fixed_rotation_30_objects_occ0.7_0.9s/images/train/n04379243_-7/n04379243_8/img_quatre_dining_table_glass_table_2012_gray.jpg,n04379243_-7,n04379243_8,fixed,0.717419,n04379243_8,Stimuli/psy_fixed_rotation_30_objects_occ0.7_0.9s/images/train/n04379243_-7/n04379243_8/img_quatre_dining_table_glass_table_2012-3_gray.png,foreground,same as foreground,n04379243_-7,n04379243_8,Stimuli/canonical view 2/img_n04379243_-7_gray.jpg,Stimuli/canonical view 2/img_n04379243_8_gray.jpg,foreground,left,Experiments/experiment_18/88.jpg,Experiments/experiment_18/89.jpg,Experiments/experiment_18/90.jpg,Experiments/experiment_18/91.jpg,264,1,2023-04-03_17h22.23.629,Occlusion_Psychophysics,2022.1.4,MacIntel,59.93407252,,,left,"[""right""]",[1.2733999999761636],False,,0.0,0.0,22.0,22.0,22.0,1.0,,,,,,
,,,,,,,,,,,,,,,,,,,,,0.025,,,,,,,,,,Stimuli/psy_fixed_rotation_30_objects_occ0.7_0.9s/images/train/n03001627_8/n03928116_0/img_chair_billiani_doll_b02_piano_2013_gray.jpg,n03001627_8,n03928116_0,fixed,0.742251,n03928116_0,Stimuli/psy_fixed_rotation_30_objects_occ0.7_0.9s/images/train/n03001627_8/n03928116_0/img_chair_billiani_doll_b02_piano_2013-3_gray.png,foreground,same as foreground,n03001627_8,n03928116_0,Stimuli/canonical view 2/img_n03001627_8_gray.jpg,Stimuli/canonical view 2/img_n03928116_0_gray.jpg,foreground,left,Experiments/experiment_18/92.jpg,Experiments/experiment_18/93.jpg,Experiments/experiment_18/94.jpg,Experiments/experiment_18/95.jpg,264,1,2023-04-03_17h22.23.629,Occlusion_Psychophysics,2022.1.4,MacIntel,59.93407252,,,right,"[""right""]",[1.1714999999999804],False,,0.0,0.0,23.0,23.0,23.0,1.0,,,,,,
,,,,,,,,,,,,,,,,,,,,,0.025,,,,,,,,,,Stimuli/psy_flexible_rotation_30_objects_occ0.7_0.9s/images/train/n04379243_-7/n02933112_-2/img_quatre_dining_table_sink_base_white_wood_2013_gray.jpg,n04379243_-7,n02933112_-2,flexible,0.701978,n02883344_15,Stimuli/psy_fixed_rotation_30_objects_occ0.7_0.9s/images/train/n02828884_3/n02883344_15/img_b04_wood_metal_park_bench_microwave_box_2010-3_gray.png,random,fixed,n04379243_-7,n02933112_-2,Stimuli/canonical view 2/img_n04379243_-7_gray.jpg,Stimuli/canonical view 2/img_n02933112_-2_gray.jpg,foreground,right,Experiments/experiment_18/96.jpg,Experiments/experiment_18/97.jpg,Experiments/experiment_18/98.jpg,Experiments/experiment_18/99.jpg,264,1,2023-04-03_17h22.23.629,Occlusion_Psychophysics,2022.1.4,MacIntel,59.93407252,,,right,"[""right""]",[0.6236000000238278],False,,0.0,0.0,24.0,24.0,24.0,1.0,,,,,,
,,,,,,,,,,,,,,,,,,,,,0.05,,,,,,,,,,Stimuli/psy_fixed_rotation_30_objects_occ0.7_0.9s/images/train/n04379243_0/n02818832_9/img_17th_c._monastery_dining_table_2010_bed01_blue_2010_gray.jpg,n04379243_0,n02818832_9,fixed,0.704337,n04379243_0,Stimuli/psy_flexible_rotation_30_objects_occ0.7_0.9s/images/train/n02818832_3/n04379243_0/img_b05_ccm_contemporary_bed_max2013_17th_c._monastery_dining_table_2010_2000-3_gray.png,random,flexible,n04379243_0,n02818832_9,Stimuli/canonical view 2/img_n04379243_0_gray.jpg,Stimuli/canonical view 2/img_n02818832_9_gray.jpg,foreground,right,Experiments/experiment_18/100.jpg,Experiments/experiment_18/101.jpg,Experiments/experiment_18/102.jpg,Experiments/experiment_18/103.jpg,264,1,2023-04-03_17h22.23.629,Occlusion_Psychophysics,2022.1.4,MacIntel,59.93407252,,,right,"[""right""]",[0.5697000000477033],False,,0.0,0.0,25.0,25.0,25.0,1.0,,,,,,
,,,,,,,,,,,,,,,,,,,,,0.025,,,,,,,,,,Stimuli/psy_fixed_rotation_30_objects_occ0.7_0.9s/images/train/n04379243_-7/n02828884_4/img_quatre_dining_table_b05_c-5_classic_series_bench-2012_2004_gray.jpg,n04379243_-7,n02828884_4,fixed,0.720056,n02828884_4,Stimuli/psy_fixed_rotation_30_objects_occ0.7_0.9s/images/train/n04379243_-7/n02828884_4/img_quatre_dining_table_b05_c-5_classic_series_bench-2012_2004-3_gray.png,foreground,same as foreground,n04379243_-7,n02828884_4,Stimuli/canonical view 2/img_n04379243_-7_gray.jpg,Stimuli/canonical view 2/img_n02828884_4_gray.jpg,foreground,right,Experiments/experiment_18/104.jpg,Experiments/experiment_18/105.jpg,Experiments/experiment_18/106.jpg,Experiments/experiment_18/107.jpg,264,1,2023-04-03_17h22.23.629,Occlusion_Psychophysics,2022.1.4,MacIntel,59.93407252,,,left,"[""left""]",[0.9336999999284785],True,right,1.0,0.0,26.0,26.0,26.0,1.0,0.8605,,,,,
,,,,,,,,,,,,,,,,,,,,,0.025,,,,,,,,,,Stimuli/psy_flexible_rotation_30_objects_occ0.7_0.9s/images/train/n02828884_4/n04379243_0/img_b05_c-5_classic_series_bench-2012_17th_c._monastery_dining_table_2010_2010_gray.jpg,n02828884_4,n04379243_0,flexible,0.844237,n04379243_0,Stimuli/psy_flexible_rotation_30_objects_occ0.7_0.9s/images/train/n02828884_4/n04379243_0/img_b05_c-5_classic_series_bench-2012_17th_c._monastery_dining_table_2010_2010-3_gray.png,foreground,same as foreground,n02828884_4,n02883344_15,Stimuli/canonical view 2/img_n02828884_4_gray.jpg,Stimuli/canonical view 2/img_n02883344_15_gray.jpg,random,right,Experiments/experiment_18/108.jpg,Experiments/experiment_18/109.jpg,Experiments/experiment_18/110.jpg,Experiments/experiment_18/111.jpg,264,1,2023-04-03_17h22.23.629,Occlusion_Psychophysics,2022.1.4,MacIntel,59.93407252,,,right,"[""right""]",[0.5443999999761786],False,,0.0,0.0,27.0,27.0,27.0,1.0,,,,,,
,,,,,,,,,,,,,,,,,,,,,0.05,,,,,,,,,,Stimuli/psy_fixed_rotation_30_objects_occ0.7_0.9s/images/train/n04379243_8/n03001627_-2/img_glass_table_wood_chair_2002_gray.jpg,n04379243_8,n03001627_-2,fixed,0.74096,n03001627_-2,Stimuli/psy_fixed_rotation_30_objects_occ0.7_0.9s/images/train/n04379243_8/n03001627_-2/img_glass_table_wood_chair_2002-3_gray.png,foreground,same as foreground,n04379243_8,n02818832_3,Stimuli/canonical view 2/img_n04379243_8_gray.jpg,Stimuli/canonical view 2/img_n02818832_3_gray.jpg,random,left,Experiments/experiment_18/112.jpg,Experiments/experiment_18/113.jpg,Experiments/experiment_18/114.jpg,Experiments/experiment_18/115.jpg,264,1,2023-04-03_17h22.23.629,Occlusion_Psychophysics,2022.1.4,MacIntel,59.93407252,,,left,"[""left""]",[0.8567999999523295],False,,0.0,0.0,28.0,28.0,28.0,1.0,,,,,,
,,,,,,,,,,,,,,,,,,,,,0.05,,,,,,,,,,Stimuli/psy_flexible_rotation_30_objects_occ0.7_0.9s/images/train/n03928116_0/n04379243_-7/img_b02_piano_quatre_dining_table_2010_gray.jpg,n03928116_0,n04379243_-7,flexible,0.816499,n04379243_-7,Stimuli/psy_flexible_rotation_30_objects_occ0.7_0.9s/images/train/n03928116_0/n04379243_-7/img_b02_piano_quatre_dining_table_2010-3_gray.png,foreground,same as foreground,n03928116_0,n02883344_-1,Stimuli/canonical view 2/img_n03928116_0_gray.jpg,Stimuli/canonical view 2/img_n02883344_-1_gray.jpg,random,left,Experiments/experiment_18/116.jpg,Experiments/experiment_18/117.jpg,Experiments/experiment_18/118.jpg,Experiments/experiment_18/119.jpg,264,1,2023-04-03_17h22.23.629,Occlusion_Psychophysics,2022.1.4,MacIntel,59.93407252,,,left,"[""left""]",[0.5764000000954184],False,,0.0,0.0,29.0,29.0,29.0,1.0,,,,,,
,,,,,,,,,,,,,,,,,,,,,0.025,,,,,,,,,,Stimuli/psy_flexible_rotation_30_objects_occ0.7_0.9s/images/train/n03928116_0/n02933112_-2/img_b02_piano_sink_base_white_wood_2010_gray.jpg,n03928116_0,n02933112_-2,flexible,0.720226,n02933112_-2,Stimuli/psy_flexible_rotation_30_objects_occ0.7_0.9s/images/train/n03928116_0/n02933112_-2/img_b02_piano_sink_base_white_wood_2010-3_gray.png,foreground,same as foreground,n03928116_0,n02883344_0,Stimuli/canonical view 2/img_n03928116_0_gray.jpg,Stimuli/canonical view 2/img_n02883344_0_gray.jpg,random,left,Experiments/experiment_18/120.jpg,Experiments/experiment_18/121.jpg,Experiments/experiment_18/122.jpg,Experiments/experiment_18/123.jpg,264,1,2023-04-03_17h22.23.629,Occlusion_Psychophysics,2022.1.4,MacIntel,59.93407252,,,right,"[""right""]",[0.8231000000238282],False,,0.0,0.0,30.0,30.0,30.0,1.0,,,,,,
,,,,,,,,,,,,,,,,,,,,,0.05,,,,,,,,,,Stimuli/psy_flexible_rotation_30_objects_occ0.7_0.9s/images/train/n02933112_-2/n02818832_0/img_sink_base_white_wood_b03_the_sofa_and_chair_company_-_stanley_bed_2014_2009_gray.jpg,n02933112_-2,n02818832_0,flexible,0.730025,n02818832_0,Stimuli/psy_flexible_rotation_30_objects_occ0.7_0.9s/images/train/n02933112_-2/n02818832_0/img_sink_base_white_wood_b03_the_sofa_and_chair_company_-_stanley_bed_2014_2009-3_gray.png,foreground,same as foreground,n02933112_-2,n02818832_0,Stimuli/canonical view 2/img_n02933112_-2_gray.jpg,Stimuli/canonical view 2/img_n02818832_0_gray.jpg,foreground,right,Experiments/experiment_18/124.jpg,Experiments/experiment_18/125.jpg,Experiments/experiment_18/126.jpg,Experiments/experiment_18/127.jpg,264,1,2023-04-03_17h22.23.629,Occlusion_Psychophysics,2022.1.4,MacIntel,59.93407252,,,left,"[""left""]",[0.7340000000000373],False,,0.0,0.0,31.0,31.0,31.0,1.0,,,,,,
,,,,,,,,,,,,,,,,,,,,,0.025,,,,,,,,,,Stimuli/psy_fixed_rotation_30_objects_occ0.7_0.9s/images/train/n02818832_0/n04256520_5/img_b03_the_sofa_and_chair_company_-_stanley_bed_2014_meridiani_belmondo_bench_sofa_2001_gray.jpg,n02818832_0,n04256520_5,fixed,0.792586,n04256520_5,Stimuli/psy_fixed_rotation_30_objects_occ0.7_0.9s/images/train/n02818832_0/n04256520_5/img_b03_the_sofa_and_chair_company_-_stanley_bed_2014_meridiani_belmondo_bench_sofa_2001-3_gray.png,foreground,same as foreground,n02818832_0,n04379243_0,Stimuli/canonical view 2/img_n02818832_0_gray.jpg,Stimuli/canonical view 2/img_n04379243_0_gray.jpg,random,right,Experiments/experiment_18/128.jpg,Experiments/experiment_18/129.jpg,Experiments/experiment_18/130.jpg,Experiments/experiment_18/131.jpg,264,1,2023-04-03_17h22.23.629,Occlusion_Psychophysics,2022.1.4,MacIntel,59.93407252,,,right,"[""right""]",[1.0771000000237905],False,,0.0,0.0,32.0,32.0,32.0,1.0,,,,,,
,,,,,,,,,,,,,,,,,,,,,0.05,,,,,,,,,,Stimuli/psy_flexible_rotation_30_objects_occ0.7_0.9s/images/train/n02933112_-2/n02818832_3/img_sink_base_white_wood_b05_ccm_contemporary_bed_max2013_2005_gray.jpg,n02933112_-2,n02818832_3,flexible,0.758162,n02883344_15,Stimuli/psy_flexible_rotation_30_objects_occ0.7_0.9s/images/train/n02828884_9/n02883344_15/img_cr-96_bench_microwave_box_2006-3_gray.png,random,flexible,n02933112_-2,n03928116_4,Stimuli/canonical view 2/img_n02933112_-2_gray.jpg,Stimuli/canonical view 2/img_n03928116_4_gray.jpg,random,left,Experiments/experiment_18/132.jpg,Experiments/experiment_18/133.jpg,Experiments/experiment_18/134.jpg,Experiments/experiment_18/135.jpg,264,1,2023-04-03_17h22.23.629,Occlusion_Psychophysics,2022.1.4,MacIntel,59.93407252,,,right,"[""right""]",[0.6788000000715328],False,,0.0,0.0,33.0,33.0,33.0,1.0,,,,,,
,,,,,,,,,,,,,,,,,,,,,0.05,,,,,,,,,,Stimuli/psy_flexible_rotation_30_objects_occ0.7_0.9s/images/train/n02933112_4/n04405907_5/img_buffet_samsung_40_uhd_smart_tv_2011_2007_gray.jpg,n02933112_4,n04405907_5,flexible,0.759066,n04405907_5,Stimuli/psy_flexible_rotation_30_objects_occ0.7_0.9s/images/train/n02933112_4/n04405907_5/img_buffet_samsung_40_uhd_smart_tv_2011_2007-3_gray.png,foreground,same as foreground,n02933112_4,n04256520_5,Stimuli/canonical view 2/img_n02933112_4_gray.jpg,Stimuli/canonical view 2/img_n04256520_5_gray.jpg,random,left,Experiments/experiment_18/136.jpg,Experiments/experiment_18/137.jpg,Experiments/experiment_18/138.jpg,Experiments/experiment_18/139.jpg,264,1,2023-04-03_17h22.23.629,Occlusion_Psychophysics,2022.1.4,MacIntel,59.93407252,,,right,"[""right""]",[0.6450999999046303],False,,0.0,0.0,34.0,34.0,34.0,1.0,,,,,,
,,,,,,,,,,,,,,,,,,,,,0.05,,,,,,,,,,Stimuli/psy_flexible_rotation_30_objects_occ0.7_0.9s/images/train/n04256520_5/n02883344_-1/img_meridiani_belmondo_bench_sofa_woven_box_2003_gray.jpg,n04256520_5,n02883344_-1,flexible,0.724914,n02883344_-1,Stimuli/psy_flexible_rotation_30_objects_occ0.7_0.9s/images/train/n04256520_5/n02883344_-1/img_meridiani_belmondo_bench_sofa_woven_box_2003-3_gray.png,foreground,same as foreground,n04256520_5,n02883344_-1,Stimuli/canonical view 2/img_n04256520_5_gray.jpg,Stimuli/canonical view 2/img_n02883344_-1_gray.jpg,foreground,right,Experiments/experiment_18/140.jpg,Experiments/experiment_18/141.jpg,Experiments/experiment_18/142.jpg,Experiments/experiment_18/143.jpg,264,1,2023-04-03_17h22.23.629,Occlusion_Psychophysics,2022.1.4,MacIntel,59.93407252,,,right,"[""right""]",[1.111399999976129],False,,0.0,0.0,35.0,35.0,35.0,1.0,,,,,,
,,,,,,,,,,,,,,,,,,,,,0.05,,,,,,,,,,Stimuli/psy_fixed_rotation_30_objects_occ0.7_0.9s/images/train/n04379243_-7/n03928116_0/img_quatre_dining_table_b02_piano_2003_gray.jpg,n04379243_-7,n03928116_0,fixed,0.737484,n03928116_0,Stimuli/psy_fixed_rotation_30_objects_occ0.7_0.9s/images/train/n04379243_-7/n03928116_0/img_quatre_dining_table_b02_piano_2003-3_gray.png,foreground,same as foreground,n04379243_-7,n03928116_0,Stimuli/canonical view 2/img_n04379243_-7_gray.jpg,Stimuli/canonical view 2/img_n03928116_0_gray.jpg,foreground,right,Experiments/experiment_18/144.jpg,Experiments/experiment_18/145.jpg,Experiments/experiment_18/146.jpg,Experiments/experiment_18/147.jpg,264,1,2023-04-03_17h22.23.629,Occlusion_Psychophysics,2022.1.4,MacIntel,59.93407252,,,left,"[""left""]",[0.5569999999999595],False,,0.0,0.0,36.0,36.0,36.0,1.0,,,,,,
,,,,,,,,,,,,,,,,,,,,,0.05,,,,,,,,,,Stimuli/psy_flexible_rotation_30_objects_occ0.7_0.9s/images/train/n03928116_4/n02818832_9/img_dp_33_b_2013__vray_bed01_blue_2013_gray.jpg,n03928116_4,n02818832_9,flexible,0.757532,n02818832_9,Stimuli/psy_flexible_rotation_30_objects_occ0.7_0.9s/images/train/n03928116_4/n02818832_9/img_dp_33_b_2013__vray_bed01_blue_2013-3_gray.png,foreground,same as foreground,n03928116_4,n02818832_9,Stimuli/canonical view 2/img_n03928116_4_gray.jpg,Stimuli/canonical view 2/img_n02818832_9_gray.jpg,foreground,right,Experiments/experiment_18/148.jpg,Experiments/experiment_18/149.jpg,Experiments/experiment_18/150.jpg,Experiments/experiment_18/151.jpg,264,1,2023-04-03_17h22.23.629,Occlusion_Psychophysics,2022.1.4,MacIntel,59.93407252,,,left,"[""left""]",[0.9077999999523172],False,,0.0,0.0,37.0,37.0,37.0,1.0,,,,,,
,,,,,,,,,,,,,,,,,,,,,0.025,,,,,,,,,,Stimuli/psy_flexible_rotation_30_objects_occ0.7_0.9s/images/train/n02883344_0/n02883344_15/img_b03_box_microwave_box_2005_gray.jpg,n02883344_0,n02883344_15,flexible,0.764537,n02818832_3,Stimuli/psy_fixed_rotation_30_objects_occ0.7_0.9s/images/train/n02818832_9/n02818832_3/img_bed01_blue_b05_ccm_contemporary_bed_max2013_2003-3_gray.png,random,fixed,n02883344_0,n04379243_8,Stimuli/canonical view 2/img_n02883344_0_gray.jpg,Stimuli/canonical view 2/img_n04379243_8_gray.jpg,random,right,Experiments/experiment_18/152.jpg,Experiments/experiment_18/153.jpg,Experiments/experiment_18/154.jpg,Experiments/experiment_18/155.jpg,264,1,2023-04-03_17h22.23.629,Occlusion_Psychophysics,2022.1.4,MacIntel,59.93407252,,,right,"[""left""]",[0.7674999999999841],False,,0.0,0.0,38.0,38.0,38.0,1.0,,,,,,
,,,,,,,,,,,,,,,,,,,,,0.025,,,,,,,,,,Stimuli/psy_flexible_rotation_30_objects_occ0.7_0.9s/images/train/n04379243_0/n03928116_10/img_17th_c._monastery_dining_table_2010_ydp_103_r_2012__vray_2008_gray.jpg,n04379243_0,n03928116_10,flexible,0.707163,n02883344_0,Stimuli/psy_fixed_rotation_30_objects_occ0.7_0.9s/images/train/n04256520_5/n02883344_0/img_meridiani_belmondo_bench_sofa_b03_box_2003-3_gray.png,random,fixed,n04379243_0,n03928116_4,Stimuli/canonical view 2/img_n04379243_0_gray.jpg,Stimuli/canonical view 2/img_n03928116_4_gray.jpg,random,left,Experiments/experiment_18/156.jpg,Experiments/experiment_18/157.jpg,Experiments/experiment_18/158.jpg,Experiments/experiment_18/159.jpg,264,1,2023-04-03_17h22.23.629,Occlusion_Psychophysics,2022.1.4,MacIntel,59.93407252,,,right,"[""right""]",[0.7887000000476405],False,,0.0,0.0,39.0,39.0,39.0,1.0,,,,,,
,,,,,,,,,,,,,,,,,,,,,0.025,,,,,,,,,,Stimuli/psy_fixed_rotation_30_objects_occ0.7_0.9s/images/train/n02883344_-1/n02828884_3/img_woven_box_b04_wood_metal_park_bench_2011_gray.jpg,n02883344_-1,n02828884_3,fixed,0.811568,n04256520_9,Stimuli/psy_flexible_rotation_30_objects_occ0.7_0.9s/images/train/n02883344_0/n04256520_9/img_b03_box_napoleon_iii_sofa_2014-3_gray.png,random,flexible,n02883344_-1,n02828884_3,Stimuli/canonical view 2/img_n02883344_-1_gray.jpg,Stimuli/canonical view 2/img_n02828884_3_gray.jpg,foreground,right,Experiments/experiment_18/160.jpg,Experiments/experiment_18/161.jpg,Experiments/experiment_18/162.jpg,Experiments/experiment_18/163.jpg,264,1,2023-04-03_17h22.23.629,Occlusion_Psychophysics,2022.1.4,MacIntel,59.93407252,,,right,"[""right""]",[0.9787999999522867],False,,0.0,0.0,40.0,40.0,40.0,1.0,,,,,,
,,,,,,,,,,,,,,,,,,,,,0.025,,,,,,,,,,Stimuli/psy_fixed_rotation_30_objects_occ0.7_0.9s/images/train/n04405907_8/n02883344_-1/img_stylized_tv_woven_box_2011_gray.jpg,n04405907_8,n02883344_-1,fixed,0.839511,n02883344_-1,Stimuli/psy_fixed_rotation_30_objects_occ0.7_0.9s/images/train/n04405907_8/n02883344_-1/img_stylized_tv_woven_box_2011-3_gray.png,foreground,same as foreground,n04405907_8,n03928116_0,Stimuli/canonical view 2/img_n04405907_8_gray.jpg,Stimuli/canonical view 2/img_n03928116_0_gray.jpg,random,left,Experiments/experiment_18/164.jpg,Experiments/experiment_18/165.jpg,Experiments/experiment_18/166.jpg,Experiments/experiment_18/167.jpg,264,1,2023-04-03_17h22.23.629,Occlusion_Psychophysics,2022.1.4,MacIntel,59.93407252,,,right,"[""right""]",[0.6973000000714933],False,,0.0,0.0,41.0,41.0,41.0,1.0,,,,,,
,,,,,,,,,,,,,,,,,,,,,0.05,,,,,,,,,,Stimuli/psy_flexible_rotation_30_objects_occ0.7_0.9s/images/train/n04405907_8/n02818832_9/img_stylized_tv_bed01_blue_2010_gray.jpg,n04405907_8,n02818832_9,flexible,0.798293,n02818832_9,Stimuli/psy_flexible_rotation_30_objects_occ0.7_0.9s/images/train/n04405907_8/n02818832_9/img_stylized_tv_bed01_blue_2010-3_gray.png,foreground,same as foreground,n04405907_8,n02828884_4,Stimuli/canonical view 2/img_n04405907_8_gray.jpg,Stimuli/canonical view 2/img_n02828884_4_gray.jpg,random,right,Experiments/experiment_18/168.jpg,Experiments/experiment_18/169.jpg,Experiments/experiment_18/170.jpg,Experiments/experiment_18/171.jpg,264,1,2023-04-03_17h22.23.629,Occlusion_Psychophysics,2022.1.4,MacIntel,59.93407252,,,left,"[""left""]",[0.6922000000477055],False,,0.0,0.0,42.0,42.0,42.0,1.0,,,,,,
,,,,,,,,,,,,,,,,,,,,,0.025,,,,,,,,,,Stimuli/psy_flexible_rotation_30_objects_occ0.7_0.9s/images/train/n02883344_0/n02818832_3/img_b03_box_b05_ccm_contemporary_bed_max2013_2003_gray.jpg,n02883344_0,n02818832_3,flexible,0.712911,n04256520_5,Stimuli/psy_fixed_rotation_30_objects_occ0.7_0.9s/images/train/n04379243_0/n04256520_5/img_17th_c._monastery_dining_table_2010_meridiani_belmondo_bench_sofa_2003-3_gray.png,random,fixed,n02883344_0,n02933112_-18,Stimuli/canonical view 2/img_n02883344_0_gray.jpg,Stimuli/canonical view 2/img_n02933112_-18_gray.jpg,random,left,Experiments/experiment_18/172.jpg,Experiments/experiment_18/173.jpg,Experiments/experiment_18/174.jpg,Experiments/experiment_18/175.jpg,264,1,2023-04-03_17h22.23.629,Occlusion_Psychophysics,2022.1.4,MacIntel,59.93407252,,,right,"[""right""]",[0.9879999999999995],False,,0.0,0.0,43.0,43.0,43.0,1.0,,,,,,
,,,,,,,,,,,,,,,,,,,,,0.05,,,,,,,,,,Stimuli/psy_fixed_rotation_30_objects_occ0.7_0.9s/images/train/n02933112_-18/n03001627_8/img_cgaxis_models_48_26_vray_composite_chair_billiani_doll_2011_gray.jpg,n02933112_-18,n03001627_8,fixed,0.701534,n02818832_9,Stimuli/psy_flexible_rotation_30_objects_occ0.7_0.9s/images/train/n04379243_8/n02818832_9/img_glass_table_bed01_blue_2001-3_gray.png,random,flexible,n02933112_-18,n02883344_15,Stimuli/canonical view 2/img_n02933112_-18_gray.jpg,Stimuli/canonical view 2/img_n02883344_15_gray.jpg,random,right,Experiments/experiment_18/176.jpg,Experiments/experiment_18/177.jpg,Experiments/experiment_18/178.jpg,Experiments/experiment_18/179.jpg,264,1,2023-04-03_17h22.23.629,Occlusion_Psychophysics,2022.1.4,MacIntel,59.93407252,,,right,"[""right""]",[0.7651000000238355],False,,0.0,0.0,44.0,44.0,44.0,1.0,,,,,,
,,,,,,,,,,,,,,,,,,,,,0.05,,,,,,,,,,Stimuli/psy_flexible_rotation_30_objects_occ0.7_0.9s/images/train/n04405907_9/n04256520_4/img_vray_004_club_house_italia_nautilus_sofa_2015_gray.jpg,n04405907_9,n04256520_4,flexible,0.718513,n04256520_4,Stimuli/psy_flexible_rotation_30_objects_occ0.7_0.9s/images/train/n04405907_9/n04256520_4/img_vray_004_club_house_italia_nautilus_sofa_2015-3_gray.png,foreground,same as foreground,n04405907_9,n02933112_-2,Stimuli/canonical view 2/img_n04405907_9_gray.jpg,Stimuli/canonical view 2/img_n02933112_-2_gray.jpg,random,right,Experiments/experiment_18/180.jpg,Experiments/experiment_18/181.jpg,Experiments/experiment_18/182.jpg,Experiments/experiment_18/183.jpg,264,1,2023-04-03_17h22.23.629,Occlusion_Psychophysics,2022.1.4,MacIntel,59.93407252,,,left,"[""left""]",[1.187899999976139],False,,0.0,0.0,45.0,45.0,45.0,1.0,,,,,,
,,,,,,,,,,,,,,,,,,,,,0.05,,,,,,,,,,Stimuli/psy_flexible_rotation_30_objects_occ0.7_0.9s/images/train/n02933112_4/n02883344_15/img_buffet_microwave_box_2015_gray.jpg,n02933112_4,n02883344_15,flexible,0.85183,n02883344_15,Stimuli/psy_flexible_rotation_30_objects_occ0.7_0.9s/images/train/n02933112_4/n02883344_15/img_buffet_microwave_box_2015-3_gray.png,foreground,same as foreground,n02933112_4,n02883344_15,Stimuli/canonical view 2/img_n02933112_4_gray.jpg,Stimuli/canonical view 2/img_n02883344_15_gray.jpg,foreground,right,Experiments/experiment_18/184.jpg,Experiments/experiment_18/185.jpg,Experiments/experiment_18/186.jpg,Experiments/experiment_18/187.jpg,264,1,2023-04-03_17h22.23.629,Occlusion_Psychophysics,2022.1.4,MacIntel,59.93407252,,,left,"[""left""]",[0.5947000000476805],False,,0.0,0.0,46.0,46.0,46.0,1.0,,,,,,
,,,,,,,,,,,,,,,,,,,,,0.05,,,,,,,,,,Stimuli/psy_flexible_rotation_30_objects_occ0.7_0.9s/images/train/n04379243_-7/n04405907_5/img_quatre_dining_table_samsung_40_uhd_smart_tv_2011_2006_gray.jpg,n04379243_-7,n04405907_5,flexible,0.724433,n04405907_5,Stimuli/psy_flexible_rotation_30_objects_occ0.7_0.9s/images/train/n04379243_-7/n04405907_5/img_quatre_dining_table_samsung_40_uhd_smart_tv_2011_2006-3_gray.png,foreground,same as foreground,n04379243_-7,n04405907_5,Stimuli/canonical view 2/img_n04379243_-7_gray.jpg,Stimuli/canonical view 2/img_n04405907_5_gray.jpg,foreground,right,Experiments/experiment_18/188.jpg,Experiments/experiment_18/189.jpg,Experiments/experiment_18/190.jpg,Experiments/experiment_18/191.jpg,264,1,2023-04-03_17h22.23.629,Occlusion_Psychophysics,2022.1.4,MacIntel,59.93407252,,,left,"[""left""]",[0.799699999928464],False,,0.0,0.0,47.0,47.0,47.0,1.0,,,,,,
,,,,,,,,,,,,,,,,,,,,,0.025,,,,,,,,,,Stimuli/psy_fixed_rotation_30_objects_occ0.7_0.9s/images/train/n02828884_3/n02933112_-2/img_b04_wood_metal_park_bench_sink_base_white_wood_2001_gray.jpg,n02828884_3,n02933112_-2,fixed,0.745566,n02883344_0,Stimuli/psy_flexible_rotation_30_objects_occ0.7_0.9s/images/train/n04256520_5/n02883344_0/img_meridiani_belmondo_bench_sofa_b03_box_2005-3_gray.png,random,flexible,n02828884_3,n04405907_8,Stimuli/canonical view 2/img_n02828884_3_gray.jpg,Stimuli/canonical view 2/img_n04405907_8_gray.jpg,random,left,Experiments/experiment_18/192.jpg,Experiments/experiment_18/193.jpg,Experiments/experiment_18/194.jpg,Experiments/experiment_18/195.jpg,264,1,2023-04-03_17h22.23.629,Occlusion_Psychophysics,2022.1.4,MacIntel,59.93407252,,,right,"[""right""]",[0.503100000023835],False,,0.0,0.0,48.0,48.0,48.0,1.0,,,,,,
,,,,,,,,,,,,,,,,,,,,,0.025,,,,,,,,,,Stimuli/psy_flexible_rotation_30_objects_occ0.7_0.9s/images/train/n04379243_8/n02828884_4/img_glass_table_b05_c-5_classic_series_bench-2012_2014_gray.jpg,n04379243_8,n02828884_4,flexible,0.716115,n02828884_4,Stimuli/psy_flexible_rotation_30_objects_occ0.7_0.9s/images/train/n04379243_8/n02828884_4/img_glass_table_b05_c-5_classic_series_bench-2012_2014-3_gray.png,foreground,same as foreground,n04379243_8,n03001627_-2,Stimuli/canonical view 2/img_n04379243_8_gray.jpg,Stimuli/canonical view 2/img_n03001627_-2_gray.jpg,random,right,Experiments/experiment_18/196.jpg,Experiments/experiment_18/197.jpg,Experiments/experiment_18/198.jpg,Experiments/experiment_18/199.jpg,264,1,2023-04-03_17h22.23.629,Occlusion_Psychophysics,2022.1.4,MacIntel,59.93407252,,,left,"[""left""]",[0.5494999999999663],False,,0.0,0.0,49.0,49.0,49.0,1.0,,,,,,
,,,,,,,,,,,,,,,,,,,,,0.025,,,,,,,,,,Stimuli/psy_flexible_rotation_30_objects_occ0.7_0.9s/images/train/n04379243_-7/n02933112_-2/img_quatre_dining_table_sink_base_white_wood_2002_gray.jpg,n04379243_-7,n02933112_-2,flexible,0.704485,n02933112_-2,Stimuli/psy_flexible_rotation_30_objects_occ0.7_0.9s/images/train/n04379243_-7/n02933112_-2/img_quatre_dining_table_sink_base_white_wood_2002-3_gray.png,foreground,same as foreground,n04379243_-7,n02828884_3,Stimuli/canonical view 2/img_n04379243_-7_gray.jpg,Stimuli/canonical view 2/img_n02828884_3_gray.jpg,random,left,Experiments/experiment_18/200.jpg,Experiments/experiment_18/201.jpg,Experiments/experiment_18/202.jpg,Experiments/experiment_18/203.jpg,264,1,2023-04-03_17h22.23.629,Occlusion_Psychophysics,2022.1.4,MacIntel,59.93407252,,,left,"[""left""]",[0.5780000000000314],False,,0.0,0.0,50.0,50.0,50.0,1.0,,,,,,
,,,,,,,,,,,,,,,,,,,,,0.025,,,,,,,,,,Stimuli/psy_flexible_rotation_30_objects_occ0.7_0.9s/images/train/n02933112_-18/n02883344_15/img_cgaxis_models_48_26_vray_composite_microwave_box_2012_gray.jpg,n02933112_-18,n02883344_15,flexible,0.864375,n02883344_15,Stimuli/psy_flexible_rotation_30_objects_occ0.7_0.9s/images/train/n02933112_-18/n02883344_15/img_cgaxis_models_48_26_vray_composite_microwave_box_2012-3_gray.png,foreground,same as foreground,n02933112_-18,n03928116_10,Stimuli/canonical view 2/img_n02933112_-18_gray.jpg,Stimuli/canonical view 2/img_n03928116_10_gray.jpg,random,left,Experiments/experiment_18/204.jpg,Experiments/experiment_18/205.jpg,Experiments/experiment_18/206.jpg,Experiments/experiment_18/207.jpg,264,1,2023-04-03_17h22.23.629,Occlusion_Psychophysics,2022.1.4,MacIntel,59.93407252,,,right,"[""right""]",[0.7127000000476755],False,,0.0,0.0,51.0,51.0,51.0,1.0,,,,,,
,,,,,,,,,,,,,,,,,,,,,0.025,,,,,,,,,,Stimuli/psy_flexible_rotation_30_objects_occ0.7_0.9s/images/train/n04256520_5/n04256520_9/img_meridiani_belmondo_bench_sofa_napoleon_iii_sofa_2007_gray.jpg,n04256520_5,n04256520_9,flexible,0.726936,n03928116_0,Stimuli/psy_flexible_rotation_30_objects_occ0.7_0.9s/images/train/n02828884_4/n03928116_0/img_b05_c-5_classic_series_bench-2012_b02_piano_2013-3_gray.png,random,flexible,n04256520_5,n04256520_4,Stimuli/canonical view 2/img_n04256520_5_gray.jpg,Stimuli/canonical view 2/img_n04256520_4_gray.jpg,random,right,Experiments/experiment_18/208.jpg,Experiments/experiment_18/209.jpg,Experiments/experiment_18/210.jpg,Experiments/experiment_18/211.jpg,264,1,2023-04-03_17h22.23.629,Occlusion_Psychophysics,2022.1.4,MacIntel,59.93407252,,,right,"[""right""]",[0.640599999904623],False,,0.0,0.0,52.0,52.0,52.0,1.0,,,,,,
,,,,,,,,,,,,,,,,,,,,,0.025,,,,,,,,,,Stimuli/psy_fixed_rotation_30_objects_occ0.7_0.9s/images/train/n02883344_-1/n04405907_8/img_woven_box_stylized_tv_2010_gray.jpg,n02883344_-1,n04405907_8,fixed,0.881331,n04405907_8,Stimuli/psy_fixed_rotation_30_objects_occ0.7_0.9s/images/train/n02883344_-1/n04405907_8/img_woven_box_stylized_tv_2010-3_gray.png,foreground,same as foreground,n02883344_-1,n04405907_8,Stimuli/canonical view 2/img_n02883344_-1_gray.jpg,Stimuli/canonical view 2/img_n04405907_8_gray.jpg,foreground,right,Experiments/experiment_18/212.jpg,Experiments/experiment_18/213.jpg,Experiments/experiment_18/214.jpg,Experiments/experiment_18/215.jpg,264,1,2023-04-03_17h22.23.629,Occlusion_Psychophysics,2022.1.4,MacIntel,59.93407252,,,right,"[""right""]",[0.6538999999761472],False,,0.0,0.0,53.0,53.0,53.0,1.0,,,,,,
,,,,,,,,,,,,,,,,,,,,,0.05,,,,,,,,,,Stimuli/psy_flexible_rotation_30_objects_occ0.7_0.9s/images/train/n03928116_4/n04405907_9/img_dp_33_b_2013__vray_vray_004_2013_gray.jpg,n03928116_4,n04405907_9,flexible,0.802399,n02883344_15,Stimuli/psy_fixed_rotation_30_objects_occ0.7_0.9s/images/train/n02883344_15/n02883344_15/img_microwave_box_microwave_box_2002-3_gray.png,random,fixed,n03928116_4,n04405907_9,Stimuli/canonical view 2/img_n03928116_4_gray.jpg,Stimuli/canonical view 2/img_n04405907_9_gray.jpg,foreground,left,Experiments/experiment_18/216.jpg,Experiments/experiment_18/217.jpg,Experiments/experiment_18/218.jpg,Experiments/experiment_18/219.jpg,264,1,2023-04-03_17h22.23.629,Occlusion_Psychophysics,2022.1.4,MacIntel,59.93407252,,,left,"[""left""]",[1.1864999999999668],False,,0.0,0.0,54.0,54.0,54.0,1.0,,,,,,
,,,,,,,,,,,,,,,,,,,,,0.05,,,,,,,,,,Stimuli/psy_fixed_rotation_30_objects_occ0.7_0.9s/images/train/n04379243_8/n03001627_-2/img_glass_table_wood_chair_2002_gray.jpg,n04379243_8,n03001627_-2,fixed,0.74096,n03001627_-2,Stimuli/psy_fixed_rotation_30_objects_occ0.7_0.9s/images/train/n04379243_8/n03001627_-2/img_glass_table_wood_chair_2002-3_gray.png,foreground,same as foreground,n04379243_8,n02933112_4,Stimuli/canonical view 2/img_n04379243_8_gray.jpg,Stimuli/canonical view 2/img_n02933112_4_gray.jpg,random,left,Experiments/experiment_18/220.jpg,Experiments/experiment_18/221.jpg,Experiments/experiment_18/222.jpg,Experiments/experiment_18/223.jpg,264,1,2023-04-03_17h22.23.629,Occlusion_Psychophysics,2022.1.4,MacIntel,59.93407252,,,right,"[""right""]",[0.55239999997616],False,,0.0,0.0,55.0,55.0,55.0,1.0,,,,,,
,,,,,,,,,,,,,,,,,,,,,0.05,,,,,,,,,,Stimuli/psy_flexible_rotation_30_objects_occ0.7_0.9s/images/train/n02933112_4/n02828884_3/img_buffet_b04_wood_metal_park_bench_2014_gray.jpg,n02933112_4,n02828884_3,flexible,0.729101,n03928116_10,Stimuli/psy_fixed_rotation_30_objects_occ0.7_0.9s/images/train/n04256520_4/n03928116_10/img_club_house_italia_nautilus_sofa_ydp_103_r_2012__vray_2011-3_gray.png,random,fixed,n02933112_4,n02828884_3,Stimuli/canonical view 2/img_n02933112_4_gray.jpg,Stimuli/canonical view 2/img_n02828884_3_gray.jpg,foreground,left,Experiments/experiment_18/224.jpg,Experiments/experiment_18/225.jpg,Experiments/experiment_18/226.jpg,Experiments/experiment_18/227.jpg,264,1,2023-04-03_17h22.23.629,Occlusion_Psychophysics,2022.1.4,MacIntel,59.93407252,,,right,"[""right""]",[0.690600000023835],False,,0.0,0.0,56.0,56.0,56.0,1.0,,,,,,
,,,,,,,,,,,,,,,,,,,,,0.05,,,,,,,,,,Stimuli/psy_fixed_rotation_30_objects_occ0.7_0.9s/images/train/n04405907_8/n04379243_-7/img_stylized_tv_quatre_dining_table_2013_gray.jpg,n04405907_8,n04379243_-7,fixed,0.88103,n02883344_15,Stimuli/psy_fixed_rotation_30_objects_occ0.7_0.9s/images/train/n03928116_0/n02883344_15/img_b02_piano_microwave_box_2008-3_gray.png,random,fixed,n04405907_8,n04379243_-7,Stimuli/canonical view 2/img_n04405907_8_gray.jpg,Stimuli/canonical view 2/img_n04379243_-7_gray.jpg,foreground,right,Experiments/experiment_18/228.jpg,Experiments/experiment_18/229.jpg,Experiments/experiment_18/230.jpg,Experiments/experiment_18/231.jpg,264,1,2023-04-03_17h22.23.629,Occlusion_Psychophysics,2022.1.4,MacIntel,59.93407252,,,right,"[""right""]",[0.5870000000000459],False,,0.0,0.0,57.0,57.0,57.0,1.0,,,,,,
,,,,,,,,,,,,,,,,,,,,,0.05,,,,,,,,,,Stimuli/psy_flexible_rotation_30_objects_occ0.7_0.9s/images/train/n04256520_4/n04379243_0/img_club_house_italia_nautilus_sofa_17th_c._monastery_dining_table_2010_2015_gray.jpg,n04256520_4,n04379243_0,flexible,0.766816,n04379243_0,Stimuli/psy_flexible_rotation_30_objects_occ0.7_0.9s/images/train/n04256520_4/n04379243_0/img_club_house_italia_nautilus_sofa_17th_c._monastery_dining_table_2010_2015-3_gray.png,foreground,same as foreground,n04256520_4,n03928116_10,Stimuli/canonical view 2/img_n04256520_4_gray.jpg,Stimuli/canonical view 2/img_n03928116_10_gray.jpg,random,right,Experiments/experiment_18/232.jpg,Experiments/experiment_18/233.jpg,Experiments/experiment_18/234.jpg,Experiments/experiment_18/235.jpg,264,1,2023-04-03_17h22.23.629,Occlusion_Psychophysics,2022.1.4,MacIntel,59.93407252,,,right,"[""right""]",[0.7552999999523422],False,,0.0,0.0,58.0,58.0,58.0,1.0,,,,,,
,,,,,,,,,,,,,,,,,,,,,0.05,,,,,,,,,,Stimuli/psy_flexible_rotation_30_objects_occ0.7_0.9s/images/train/n02818832_9/n02883344_-1/img_bed01_blue_woven_box_2001_gray.jpg,n02818832_9,n02883344_-1,flexible,0.789582,n02883344_-1,Stimuli/psy_flexible_rotation_30_objects_occ0.7_0.9s/images/train/n02818832_9/n02883344_-1/img_bed01_blue_woven_box_2001-3_gray.png,foreground,same as foreground,n02818832_9,n02883344_-1,Stimuli/canonical view 2/img_n02818832_9_gray.jpg,Stimuli/canonical view 2/img_n02883344_-1_gray.jpg,foreground,right,Experiments/experiment_18/236.jpg,Experiments/experiment_18/237.jpg,Experiments/experiment_18/238.jpg,Experiments/experiment_18/239.jpg,264,1,2023-04-03_17h22.23.629,Occlusion_Psychophysics,2022.1.4,MacIntel,59.93407252,,,left,"[""left""]",[0.6703999999762118],False,,0.0,0.0,59.0,59.0,59.0,1.0,,,,,,
,,,,,,,,,,,,,,,,,,,,,0.025,,,,,,,,,,Stimuli/psy_flexible_rotation_30_objects_occ0.7_0.9s/images/train/n04379243_0/n03001627_8/img_17th_c._monastery_dining_table_2010_chair_billiani_doll_2004_gray.jpg,n04379243_0,n03001627_8,flexible,0.789741,n04256520_5,Stimuli/psy_fixed_rotation_30_objects_occ0.7_0.9s/images/train/n02818832_9/n04256520_5/img_bed01_blue_meridiani_belmondo_bench_sofa_2000-3_gray.png,random,fixed,n04379243_0,n03001627_8,Stimuli/canonical view 2/img_n04379243_0_gray.jpg,Stimuli/canonical view 2/img_n03001627_8_gray.jpg,foreground,right,Experiments/experiment_18/240.jpg,Experiments/experiment_18/241.jpg,Experiments/experiment_18/242.jpg,Experiments/experiment_18/243.jpg,264,1,2023-04-03_17h22.23.629,Occlusion_Psychophysics,2022.1.4,MacIntel,59.93407252,,,right,"[""right""]",[0.5302000000477278],False,,0.0,0.0,60.0,60.0,60.0,1.0,,,,,,
,,,,,,,,,,,,,,,,,,,,,0.05,,,,,,,,,,Stimuli/psy_fixed_rotation_30_objects_occ0.7_0.9s/images/train/n02883344_0/n04405907_9/img_b03_box_vray_004_2005_gray.jpg,n02883344_0,n04405907_9,fixed,0.895525,n04405907_9,Stimuli/psy_fixed_rotation_30_objects_occ0.7_0.9s/images/train/n02883344_0/n04405907_9/img_b03_box_vray_004_2005-3_gray.png,foreground,same as foreground,n02883344_0,n02933112_-2,Stimuli/canonical view 2/img_n02883344_0_gray.jpg,Stimuli/canonical view 2/img_n02933112_-2_gray.jpg,random,left,Experiments/experiment_18/244.jpg,Experiments/experiment_18/245.jpg,Experiments/experiment_18/246.jpg,Experiments/experiment_18/247.jpg,264,1,2023-04-03_17h22.23.629,Occlusion_Psychophysics,2022.1.4,MacIntel,59.93407252,,,right,"[""left""]",[0.6457999999523167],False,,0.0,0.0,61.0,61.0,61.0,1.0,,,,,,
,,,,,,,,,,,,,,,,,,,,,0.025,,,,,,,,,,Stimuli/psy_flexible_rotation_30_objects_occ0.7_0.9s/images/train/n02933112_-2/n04405907_8/img_sink_base_white_wood_stylized_tv_2007_gray.jpg,n02933112_-2,n04405907_8,flexible,0.722985,n02818832_3,Stimuli/psy_fixed_rotation_30_objects_occ0.7_0.9s/images/train/n04379243_0/n02818832_3/img_17th_c._monastery_dining_table_2010_b05_ccm_contemporary_bed_max2013_2007-3_gray.png,random,fixed,n02933112_-2,n04405907_8,Stimuli/canonical view 2/img_n02933112_-2_gray.jpg,Stimuli/canonical view 2/img_n04405907_8_gray.jpg,foreground,right,Experiments/experiment_18/248.jpg,Experiments/experiment_18/249.jpg,Experiments/experiment_18/250.jpg,Experiments/experiment_18/251.jpg,264,1,2023-04-03_17h22.23.629,Occlusion_Psychophysics,2022.1.4,MacIntel,59.93407252,,,left,"[""left""]",[0.47729999995237904],False,,0.0,0.0,62.0,62.0,62.0,1.0,,,,,,
,,,,,,,,,,,,,,,,,,,,,0.05,,,,,,,,,,Stimuli/psy_fixed_rotation_30_objects_occ0.7_0.9s/images/train/n02933112_-2/n02883344_15/img_sink_base_white_wood_microwave_box_2012_gray.jpg,n02933112_-2,n02883344_15,fixed,0.760245,n02883344_15,Stimuli/psy_fixed_rotation_30_objects_occ0.7_0.9s/images/train/n02933112_-2/n02883344_15/img_sink_base_white_wood_microwave_box_2012-3_gray.png,foreground,same as foreground,n02933112_-2,n02883344_15,Stimuli/canonical view 2/img_n02933112_-2_gray.jpg,Stimuli/canonical view 2/img_n02883344_15_gray.jpg,foreground,right,Experiments/experiment_18/252.jpg,Experiments/experiment_18/253.jpg,Experiments/experiment_18/254.jpg,Experiments/experiment_18/255.jpg,264,1,2023-04-03_17h22.23.629,Occlusion_Psychophysics,2022.1.4,MacIntel,59.93407252,,,right,"[""right""]",[1.1955000000000382],False,,0.0,0.0,63.0,63.0,63.0,1.0,,,,,,
,,,,,,,,,,,,,,,,,,,,,0.025,,,,,,,,,,Stimuli/psy_fixed_rotation_30_objects_occ0.7_0.9s/images/train/n04256520_4/n04256520_5/img_club_house_italia_nautilus_sofa_meridiani_belmondo_bench_sofa_2013_gray.jpg,n04256520_4,n04256520_5,fixed,0.700103,n04256520_5,Stimuli/psy_fixed_rotation_30_objects_occ0.7_0.9s/images/train/n04256520_4/n04256520_5/img_club_house_italia_nautilus_sofa_meridiani_belmondo_bench_sofa_2013-3_gray.png,foreground,same as foreground,n04256520_4,n04256520_5,Stimuli/canonical view 2/img_n04256520_4_gray.jpg,Stimuli/canonical view 2/img_n04256520_5_gray.jpg,foreground,right,Experiments/experiment_18/256.jpg,Experiments/experiment_18/257.jpg,Experiments/experiment_18/258.jpg,Experiments/experiment_18/259.jpg,264,1,2023-04-03_17h22.23.629,Occlusion_Psychophysics,2022.1.4,MacIntel,59.93407252,,,right,"[""right""]",[0.9585000000000719],False,,0.0,0.0,64.0,64.0,64.0,1.0,,,,,,
,,,,,,,,,,,,,,,,,,,,,0.025,,,,,,,,,,Stimuli/psy_flexible_rotation_30_objects_occ0.7_0.9s/images/train/n04379243_8/n02933112_-2/img_glass_table_sink_base_white_wood_2010_gray.jpg,n04379243_8,n02933112_-2,flexible,0.725275,n02933112_-18,Stimuli/psy_flexible_rotation_30_objects_occ0.7_0.9s/images/train/n04070727_3/n02933112_-18/img_b05_db_apps_tech_06_02_2_composite_cgaxis_models_48_26_vray_composite_2003-3_gray.png,random,flexible,n04379243_8,n02933112_-2,Stimuli/canonical view 2/img_n04379243_8_gray.jpg,Stimuli/canonical view 2/img_n02933112_-2_gray.jpg,foreground,left,Experiments/experiment_18/260.jpg,Experiments/experiment_18/261.jpg,Experiments/experiment_18/262.jpg,Experiments/experiment_18/263.jpg,264,1,2023-04-03_17h22.23.629,Occlusion_Psychophysics,2022.1.4,MacIntel,59.93407252,,,right,"[""right""]",[0.5929999999999609],False,,0.0,0.0,65.0,65.0,65.0,1.0,,,,,,
,,,,,,,,,,,,,,,,,,,,,0.05,,,,,,,,,,Stimuli/psy_flexible_rotation_30_objects_occ0.7_0.9s/images/train/n03928116_10/n02828884_3/img_ydp_103_r_2012__vray_b04_wood_metal_park_bench_2010_gray.jpg,n03928116_10,n02828884_3,flexible,0.800873,n02828884_3,Stimuli/psy_flexible_rotation_30_objects_occ0.7_0.9s/images/train/n03928116_10/n02828884_3/img_ydp_103_r_2012__vray_b04_wood_metal_park_bench_2010-3_gray.png,foreground,same as foreground,n03928116_10,n02828884_9,Stimuli/canonical view 2/img_n03928116_10_gray.jpg,Stimuli/canonical view 2/img_n02828884_9_gray.jpg,random,right,Experiments/experiment_18/264.jpg,Experiments/experiment_18/265.jpg,Experiments/experiment_18/266.jpg,Experiments/experiment_18/267.jpg,264,1,2023-04-03_17h22.23.629,Occlusion_Psychophysics,2022.1.4,MacIntel,59.93407252,,,left,"[""right""]",[0.8441000000237864],False,,0.0,0.0,66.0,66.0,66.0,1.0,,,,,,
,,,,,,,,,,,,,,,,,,,,,0.025,,,,,,,,,,Stimuli/psy_flexible_rotation_30_objects_occ0.7_0.9s/images/train/n03001627_8/n02883344_-1/img_chair_billiani_doll_woven_box_2007_gray.jpg,n03001627_8,n02883344_-1,flexible,0.758966,n02883344_-1,Stimuli/psy_flexible_rotation_30_objects_occ0.7_0.9s/images/train/n03001627_8/n02883344_-1/img_chair_billiani_doll_woven_box_2007-3_gray.png,foreground,same as foreground,n03001627_8,n02883344_-1,Stimuli/canonical view 2/img_n03001627_8_gray.jpg,Stimuli/canonical view 2/img_n02883344_-1_gray.jpg,foreground,left,Experiments/experiment_18/268.jpg,Experiments/experiment_18/269.jpg,Experiments/experiment_18/270.jpg,Experiments/experiment_18/271.jpg,264,1,2023-04-03_17h22.23.629,Occlusion_Psychophysics,2022.1.4,MacIntel,59.93407252,,,right,"[""right""]",[0.5386000000238482],False,,0.0,0.0,67.0,67.0,67.0,1.0,,,,,,
,,,,,,,,,,,,,,,,,,,,,0.025,,,,,,,,,,Stimuli/psy_fixed_rotation_30_objects_occ0.7_0.9s/images/train/n04379243_8/n02883344_15/img_glass_table_microwave_box_2007_gray.jpg,n04379243_8,n02883344_15,fixed,0.755435,n02883344_15,Stimuli/psy_fixed_rotation_30_objects_occ0.7_0.9s/images/train/n04379243_8/n02883344_15/img_glass_table_microwave_box_2007-3_gray.png,foreground,same as foreground,n04379243_8,n02883344_15,Stimuli/canonical view 2/img_n04379243_8_gray.jpg,Stimuli/canonical view 2/img_n02883344_15_gray.jpg,foreground,right,Experiments/experiment_18/272.jpg,Experiments/experiment_18/273.jpg,Experiments/experiment_18/274.jpg,Experiments/experiment_18/275.jpg,264,1,2023-04-03_17h22.23.629,Occlusion_Psychophysics,2022.1.4,MacIntel,59.93407252,,,left,"[""left""]",[0.5303000000716338],False,,0.0,0.0,68.0,68.0,68.0,1.0,,,,,,
,,,,,,,,,,,,,,,,,,,,,0.05,,,,,,,,,,Stimuli/psy_flexible_rotation_30_objects_occ0.7_0.9s/images/train/n03001627_9/n02828884_4/img_chair_eames_plastic_armchair_b05_c-5_classic_series_bench-2012_2000_gray.jpg,n03001627_9,n02828884_4,flexible,0.720965,n02828884_4,Stimuli/psy_flexible_rotation_30_objects_occ0.7_0.9s/images/train/n03001627_9/n02828884_4/img_chair_eames_plastic_armchair_b05_c-5_classic_series_bench-2012_2000-3_gray.png,foreground,same as foreground,n03001627_9,n02828884_9,Stimuli/canonical view 2/img_n03001627_9_gray.jpg,Stimuli/canonical view 2/img_n02828884_9_gray.jpg,random,left,Experiments/experiment_18/276.jpg,Experiments/experiment_18/277.jpg,Experiments/experiment_18/278.jpg,Experiments/experiment_18/279.jpg,264,1,2023-04-03_17h22.23.629,Occlusion_Psychophysics,2022.1.4,MacIntel,59.93407252,,,right,"[""right""]",[0.4441000000238091],False,,0.0,0.0,69.0,69.0,69.0,1.0,,,,,,
,,,,,,,,,,,,,,,,,,,,,0.05,,,,,,,,,,Stimuli/psy_flexible_rotation_30_objects_occ0.7_0.9s/images/train/n03928116_10/n04405907_9/img_ydp_103_r_2012__vray_vray_004_2009_gray.jpg,n03928116_10,n04405907_9,flexible,0.723838,n04405907_9,Stimuli/psy_flexible_rotation_30_objects_occ0.7_0.9s/images/train/n03928116_10/n04405907_9/img_ydp_103_r_2012__vray_vray_004_2009-3_gray.png,foreground,same as foreground,n03928116_10,n04405907_9,Stimuli/canonical view 2/img_n03928116_10_gray.jpg,Stimuli/canonical view 2/img_n04405907_9_gray.jpg,foreground,left,Experiments/experiment_18/280.jpg,Experiments/experiment_18/281.jpg,Experiments/experiment_18/282.jpg,Experiments/experiment_18/283.jpg,264,1,2023-04-03_17h22.23.629,Occlusion_Psychophysics,2022.1.4,MacIntel,59.93407252,,,right,"[""right""]",[0.7736999999285672],False,,0.0,0.0,70.0,70.0,70.0,1.0,,,,,,
,,,,,,,,,,,,,,,,,,,,,0.05,,,,,,,,,,Stimuli/psy_fixed_rotation_30_objects_occ0.7_0.9s/images/train/n02818832_0/n02933112_-2/img_b03_the_sofa_and_chair_company_-_stanley_bed_2014_sink_base_white_wood_2002_gray.jpg,n02818832_0,n02933112_-2,fixed,0.75551,n02933112_-2,Stimuli/psy_fixed_rotation_30_objects_occ0.7_0.9s/images/train/n02818832_0/n02933112_-2/img_b03_the_sofa_and_chair_company_-_stanley_bed_2014_sink_base_white_wood_2002-3_gray.png,foreground,same as foreground,n02818832_0,n02933112_-2,Stimuli/canonical view 2/img_n02818832_0_gray.jpg,Stimuli/canonical view 2/img_n02933112_-2_gray.jpg,foreground,right,Experiments/experiment_18/284.jpg,Experiments/experiment_18/285.jpg,Experiments/experiment_18/286.jpg,Experiments/experiment_18/287.jpg,264,1,2023-04-03_17h22.23.629,Occlusion_Psychophysics,2022.1.4,MacIntel,59.93407252,,,right,"[""right""]",[0.7276000000238128],False,,0.0,0.0,71.0,71.0,71.0,1.0,,,,,,
,,,,,,,,,,,,,,,,,,,,,0.05,,,,,,,,,,Stimuli/psy_fixed_rotation_30_objects_occ0.7_0.9s/images/train/n04405907_9/n04256520_5/img_vray_004_meridiani_belmondo_bench_sofa_2015_gray.jpg,n04405907_9,n04256520_5,fixed,0.761307,n02818832_3,Stimuli/psy_flexible_rotation_30_objects_occ0.7_0.9s/images/train/n04256520_9/n02818832_3/img_napoleon_iii_sofa_b05_ccm_contemporary_bed_max2013_2009-3_gray.png,random,flexible,n04405907_9,n04256520_5,Stimuli/canonical view 2/img_n04405907_9_gray.jpg,Stimuli/canonical view 2/img_n04256520_5_gray.jpg,foreground,left,Experiments/experiment_18/288.jpg,Experiments/experiment_18/289.jpg,Experiments/experiment_18/290.jpg,Experiments/experiment_18/291.jpg,264,1,2023-04-03_17h22.23.629,Occlusion_Psychophysics,2022.1.4,MacIntel,59.93407252,,,right,"[""right""]",[0.6358999999761181],False,,0.0,0.0,72.0,72.0,72.0,1.0,,,,,,
,,,,,,,,,,,,,,,,,,,,,0.05,,,,,,,,,,Stimuli/psy_fixed_rotation_30_objects_occ0.7_0.9s/images/train/n02933112_-18/n02818832_9/img_cgaxis_models_48_26_vray_composite_bed01_blue_2003_gray.jpg,n02933112_-18,n02818832_9,fixed,0.842897,n02818832_9,Stimuli/psy_fixed_rotation_30_objects_occ0.7_0.9s/images/train/n02933112_-18/n02818832_9/img_cgaxis_models_48_26_vray_composite_bed01_blue_2003-3_gray.png,foreground,same as foreground,n02933112_-18,n02883344_15,Stimuli/canonical view 2/img_n02933112_-18_gray.jpg,Stimuli/canonical view 2/img_n02883344_15_gray.jpg,random,right,Experiments/experiment_18/292.jpg,Experiments/experiment_18/293.jpg,Experiments/experiment_18/294.jpg,Experiments/experiment_18/295.jpg,264,1,2023-04-03_17h22.23.629,Occlusion_Psychophysics,2022.1.4,MacIntel,59.93407252,,,left,"[""left""]",[1.2419999999999618],False,,0.0,0.0,73.0,73.0,73.0,1.0,,,,,,
,,,,,,,,,,,,,,,,,,,,,0.025,,,,,,,,,,Stimuli/psy_fixed_rotation_30_objects_occ0.7_0.9s/images/train/n02818832_3/n02883344_0/img_b05_ccm_contemporary_bed_max2013_b03_box_2014_gray.jpg,n02818832_3,n02883344_0,fixed,0.860989,n03928116_0,Stimuli/psy_flexible_rotation_30_objects_occ0.7_0.9s/images/train/n04405907_8/n03928116_0/img_stylized_tv_b02_piano_2003-3_gray.png,random,flexible,n02818832_3,n02883344_-1,Stimuli/canonical view 2/img_n02818832_3_gray.jpg,Stimuli/canonical view 2/img_n02883344_-1_gray.jpg,random,right,Experiments/experiment_18/296.jpg,Experiments/experiment_18/297.jpg,Experiments/experiment_18/298.jpg,Experiments/experiment_18/299.jpg,264,1,2023-04-03_17h22.23.629,Occlusion_Psychophysics,2022.1.4,MacIntel,59.93407252,,,right,"[""right""]",[1.0116000000238046],False,,0.0,0.0,74.0,74.0,74.0,1.0,,,,,,
,,,,,,,,,,,,,,,,,,,,,0.05,,,,,,,,,,Stimuli/psy_fixed_rotation_30_objects_occ0.7_0.9s/images/train/n03928116_10/n03928116_0/img_ydp_103_r_2012__vray_b02_piano_2001_gray.jpg,n03928116_10,n03928116_0,fixed,0.714022,n03928116_0,Stimuli/psy_fixed_rotation_30_objects_occ0.7_0.9s/images/train/n03928116_10/n03928116_0/img_ydp_103_r_2012__vray_b02_piano_2001-3_gray.png,foreground,same as foreground,n03928116_10,n04405907_8,Stimuli/canonical view 2/img_n03928116_10_gray.jpg,Stimuli/canonical view 2/img_n04405907_8_gray.jpg,random,right,Experiments/experiment_18/300.jpg,Experiments/experiment_18/301.jpg,Experiments/experiment_18/302.jpg,Experiments/experiment_18/303.jpg,264,1,2023-04-03_17h22.23.629,Occlusion_Psychophysics,2022.1.4,MacIntel,59.93407252,,,left,"[""left""]",[0.6278000000714883],False,,0.0,0.0,75.0,75.0,75.0,1.0,,,,,,
,,,,,,,,,,,,,,,,,,,,,0.05,,,,,,,,,,Stimuli/psy_fixed_rotation_30_objects_occ0.7_0.9s/images/train/n04379243_0/n02818832_3/img_17th_c._monastery_dining_table_2010_b05_ccm_contemporary_bed_max2013_2007_gray.jpg,n04379243_0,n02818832_3,fixed,0.738654,n02883344_15,Stimuli/psy_flexible_rotation_30_objects_occ0.7_0.9s/images/train/n04379243_0/n02883344_15/img_17th_c._monastery_dining_table_2010_microwave_box_2015-3_gray.png,random,flexible,n04379243_0,n03928116_10,Stimuli/canonical view 2/img_n04379243_0_gray.jpg,Stimuli/canonical view 2/img_n03928116_10_gray.jpg,random,left,Experiments/experiment_18/304.jpg,Experiments/experiment_18/305.jpg,Experiments/experiment_18/306.jpg,Experiments/experiment_18/307.jpg,264,1,2023-04-03_17h22.23.629,Occlusion_Psychophysics,2022.1.4,MacIntel,59.93407252,,,left,"[""left""]",[0.5391000000238364],False,,0.0,0.0,76.0,76.0,76.0,1.0,,,,,,
,,,,,,,,,,,,,,,,,,,,,0.05,,,,,,,,,,Stimuli/psy_flexible_rotation_30_objects_occ0.7_0.9s/images/train/n04379243_-7/n04256520_4/img_quatre_dining_table_club_house_italia_nautilus_sofa_2011_gray.jpg,n04379243_-7,n04256520_4,flexible,0.811847,n02933112_4,Stimuli/psy_flexible_rotation_30_objects_occ0.7_0.9s/images/train/n02933112_4/n02933112_4/img_buffet_buffet_2003-3_gray.png,random,flexible,n04379243_-7,n04256520_4,Stimuli/canonical view 2/img_n04379243_-7_gray.jpg,Stimuli/canonical view 2/img_n04256520_4_gray.jpg,foreground,left,Experiments/experiment_18/308.jpg,Experiments/experiment_18/309.jpg,Experiments/experiment_18/310.jpg,Experiments/experiment_18/311.jpg,264,1,2023-04-03_17h22.23.629,Occlusion_Psychophysics,2022.1.4,MacIntel,59.93407252,,,left,"[""left""]",[1.1920000000000073],False,,0.0,0.0,77.0,77.0,77.0,1.0,,,,,,
,,,,,,,,,,,,,,,,,,,,,0.025,,,,,,,,,,Stimuli/psy_flexible_rotation_30_objects_occ0.7_0.9s/images/train/n03001627_9/n04256520_4/img_chair_eames_plastic_armchair_club_house_italia_nautilus_sofa_2013_gray.jpg,n03001627_9,n04256520_4,flexible,0.765095,n04256520_4,Stimuli/psy_flexible_rotation_30_objects_occ0.7_0.9s/images/train/n03001627_9/n04256520_4/img_chair_eames_plastic_armchair_club_house_italia_nautilus_sofa_2013-3_gray.png,foreground,same as foreground,n03001627_9,n03928116_4,Stimuli/canonical view 2/img_n03001627_9_gray.jpg,Stimuli/canonical view 2/img_n03928116_4_gray.jpg,random,right,Experiments/experiment_18/312.jpg,Experiments/experiment_18/313.jpg,Experiments/experiment_18/314.jpg,Experiments/experiment_18/315.jpg,264,1,2023-04-03_17h22.23.629,Occlusion_Psychophysics,2022.1.4,MacIntel,59.93407252,,,left,"[""left""]",[0.6446000000238428],True,left,1.0,0.0,78.0,78.0,78.0,1.0,1.1178,,,,,
,,,,,,,,,,,,,,,,,,,,,0.05,,,,,,,,,,Stimuli/psy_fixed_rotation_30_objects_occ0.7_0.9s/images/train/n02818832_9/n04379243_-7/img_bed01_blue_quatre_dining_table_2009_gray.jpg,n02818832_9,n04379243_-7,fixed,0.73995,n04379243_-7,Stimuli/psy_fixed_rotation_30_objects_occ0.7_0.9s/images/train/n02818832_9/n04379243_-7/img_bed01_blue_quatre_dining_table_2009-3_gray.png,foreground,same as foreground,n02818832_9,n02883344_-1,Stimuli/canonical view 2/img_n02818832_9_gray.jpg,Stimuli/canonical view 2/img_n02883344_-1_gray.jpg,random,right,Experiments/experiment_18/316.jpg,Experiments/experiment_18/317.jpg,Experiments/experiment_18/318.jpg,Experiments/experiment_18/319.jpg,264,1,2023-04-03_17h22.23.629,Occlusion_Psychophysics,2022.1.4,MacIntel,59.93407252,,,left,"[""left""]",[1.1107999999522917],False,,0.0,0.0,79.0,79.0,79.0,1.0,,,,,,
,,,,,,,,,,,,,,,,,,,,,0.025,,,,,,,,,,Stimuli/psy_fixed_rotation_30_objects_occ0.7_0.9s/images/train/n04379243_0/n04405907_9/img_17th_c._monastery_dining_table_2010_vray_004_2005_gray.jpg,n04379243_0,n04405907_9,fixed,0.769252,n04405907_9,Stimuli/psy_fixed_rotation_30_objects_occ0.7_0.9s/images/train/n04379243_0/n04405907_9/img_17th_c._monastery_dining_table_2010_vray_004_2005-3_gray.png,foreground,same as foreground,n04379243_0,n02883344_0,Stimuli/canonical view 2/img_n04379243_0_gray.jpg,Stimuli/canonical view 2/img_n02883344_0_gray.jpg,random,right,Experiments/experiment_18/320.jpg,Experiments/experiment_18/321.jpg,Experiments/experiment_18/322.jpg,Experiments/experiment_18/323.jpg,264,1,2023-04-03_17h22.23.629,Occlusion_Psychophysics,2022.1.4,MacIntel,59.93407252,,,right,"[""right""]",[0.6024999999999636],False,,0.0,0.0,80.0,80.0,80.0,1.0,,,,,,
,,,,,,,,,,,,,,,,,,,,,0.025,,,,,,,,,,Stimuli/psy_flexible_rotation_30_objects_occ0.7_0.9s/images/train/n02828884_3/n02933112_-2/img_b04_wood_metal_park_bench_sink_base_white_wood_2015_gray.jpg,n02828884_3,n02933112_-2,flexible,0.734365,n02933112_-2,Stimuli/psy_flexible_rotation_30_objects_occ0.7_0.9s/images/train/n02828884_3/n02933112_-2/img_b04_wood_metal_park_bench_sink_base_white_wood_2015-3_gray.png,foreground,same as foreground,n02828884_3,n04379243_0,Stimuli/canonical view 2/img_n02828884_3_gray.jpg,Stimuli/canonical view 2/img_n04379243_0_gray.jpg,random,left,Experiments/experiment_18/324.jpg,Experiments/experiment_18/325.jpg,Experiments/experiment_18/326.jpg,Experiments/experiment_18/327.jpg,264,1,2023-04-03_17h22.23.629,Occlusion_Psychophysics,2022.1.4,MacIntel,59.93407252,,,right,"[""right""]",[0.7264999999999873],False,,0.0,0.0,81.0,81.0,81.0,1.0,,,,,,
,,,,,,,,,,,,,,,,,,,,,0.025,,,,,,,,,,Stimuli/psy_fixed_rotation_30_objects_occ0.7_0.9s/images/train/n02828884_4/n02818832_0/img_b05_c-5_classic_series_bench-2012_b03_the_sofa_and_chair_company_-_stanley_bed_2014_2008_gray.jpg,n02828884_4,n02818832_0,fixed,0.809375,n02818832_0,Stimuli/psy_fixed_rotation_30_objects_occ0.7_0.9s/images/train/n02828884_4/n02818832_0/img_b05_c-5_classic_series_bench-2012_b03_the_sofa_and_chair_company_-_stanley_bed_2014_2008-3_gray.png,foreground,same as foreground,n02828884_4,n02818832_0,Stimuli/canonical view 2/img_n02828884_4_gray.jpg,Stimuli/canonical view 2/img_n02818832_0_gray.jpg,foreground,right,Experiments/experiment_18/328.jpg,Experiments/experiment_18/329.jpg,Experiments/experiment_18/330.jpg,Experiments/experiment_18/331.jpg,264,1,2023-04-03_17h22.23.629,Occlusion_Psychophysics,2022.1.4,MacIntel,59.93407252,,,left,"[""left""]",[0.5092000000477128],True,left,1.0,0.0,82.0,82.0,82.0,1.0,0.991,,,,,
,,,,,,,,,,,,,,,,,,,,,0.025,,,,,,,,,,Stimuli/psy_flexible_rotation_30_objects_occ0.7_0.9s/images/train/n04256520_9/n02883344_15/img_napoleon_iii_sofa_microwave_box_2012_gray.jpg,n04256520_9,n02883344_15,flexible,0.752941,n02883344_15,Stimuli/psy_flexible_rotation_30_objects_occ0.7_0.9s/images/train/n04256520_9/n02883344_15/img_napoleon_iii_sofa_microwave_box_2012-3_gray.png,foreground,same as foreground,n04256520_9,n02883344_15,Stimuli/canonical view 2/img_n04256520_9_gray.jpg,Stimuli/canonical view 2/img_n02883344_15_gray.jpg,foreground,right,Experiments/experiment_18/332.jpg,Experiments/experiment_18/333.jpg,Experiments/experiment_18/334.jpg,Experiments/experiment_18/335.jpg,264,1,2023-04-03_17h22.23.629,Occlusion_Psychophysics,2022.1.4,MacIntel,59.93407252,,,left,"[""left""]",[0.8930000000000291],False,,0.0,0.0,83.0,83.0,83.0,1.0,,,,,,
,,,,,,,,,,,,,,,,,,,,,0.05,,,,,,,,,,Stimuli/psy_flexible_rotation_30_objects_occ0.7_0.9s/images/train/n03928116_10/n02883344_0/img_ydp_103_r_2012__vray_b03_box_2013_gray.jpg,n03928116_10,n02883344_0,flexible,0.869775,n02883344_0,Stimuli/psy_flexible_rotation_30_objects_occ0.7_0.9s/images/train/n03928116_10/n02883344_0/img_ydp_103_r_2012__vray_b03_box_2013-3_gray.png,foreground,same as foreground,n03928116_10,n04405907_9,Stimuli/canonical view 2/img_n03928116_10_gray.jpg,Stimuli/canonical view 2/img_n04405907_9_gray.jpg,random,right,Experiments/experiment_18/336.jpg,Experiments/experiment_18/337.jpg,Experiments/experiment_18/338.jpg,Experiments/experiment_18/339.jpg,264,1,2023-04-03_17h22.23.629,Occlusion_Psychophysics,2022.1.4,MacIntel,59.93407252,,,right,"[""right""]",[0.8301999999284817],False,,0.0,0.0,84.0,84.0,84.0,1.0,,,,,,
,,,,,,,,,,,,,,,,,,,,,0.05,,,,,,,,,,Stimuli/psy_fixed_rotation_30_objects_occ0.7_0.9s/images/train/n02933112_4/n04256520_9/img_buffet_napoleon_iii_sofa_2015_gray.jpg,n02933112_4,n04256520_9,fixed,0.734909,n04256520_9,Stimuli/psy_fixed_rotation_30_objects_occ0.7_0.9s/images/train/n02933112_4/n04256520_9/img_buffet_napoleon_iii_sofa_2015-3_gray.png,foreground,same as foreground,n02933112_4,n04256520_9,Stimuli/canonical view 2/img_n02933112_4_gray.jpg,Stimuli/canonical view 2/img_n04256520_9_gray.jpg,foreground,right,Experiments/experiment_18/340.jpg,Experiments/experiment_18/341.jpg,Experiments/experiment_18/342.jpg,Experiments/experiment_18/343.jpg,264,1,2023-04-03_17h22.23.629,Occlusion_Psychophysics,2022.1.4,MacIntel,59.93407252,,,left,"[""left""]",[0.4626000000238264],False,,0.0,0.0,85.0,85.0,85.0,1.0,,,,,,
,,,,,,,,,,,,,,,,,,,,,0.05,,,,,,,,,,Stimuli/psy_flexible_rotation_30_objects_occ0.7_0.9s/images/train/n02933112_-18/n02883344_15/img_cgaxis_models_48_26_vray_composite_microwave_box_2005_gray.jpg,n02933112_-18,n02883344_15,flexible,0.740804,n04405907_8,Stimuli/psy_flexible_rotation_30_objects_occ0.7_0.9s/images/train/n04070727_3/n04405907_8/img_b05_db_apps_tech_06_02_2_composite_stylized_tv_2009-3_gray.png,random,flexible,n02933112_-18,n02883344_15,Stimuli/canonical view 2/img_n02933112_-18_gray.jpg,Stimuli/canonical view 2/img_n02883344_15_gray.jpg,foreground,left,Experiments/experiment_18/344.jpg,Experiments/experiment_18/345.jpg,Experiments/experiment_18/346.jpg,Experiments/experiment_18/347.jpg,264,1,2023-04-03_17h22.23.629,Occlusion_Psychophysics,2022.1.4,MacIntel,59.93407252,,,right,"[""right""]",[0.7307999999522963],False,,0.0,0.0,86.0,86.0,86.0,1.0,,,,,,
,,,,,,,,,,,,,,,,,,,,,0.05,,,,,,,,,,Stimuli/psy_flexible_rotation_30_objects_occ0.7_0.9s/images/train/n02933112_4/n04256520_5/img_buffet_meridiani_belmondo_bench_sofa_2015_gray.jpg,n02933112_4,n04256520_5,flexible,0.789926,n04256520_5,Stimuli/psy_flexible_rotation_30_objects_occ0.7_0.9s/images/train/n02933112_4/n04256520_5/img_buffet_meridiani_belmondo_bench_sofa_2015-3_gray.png,foreground,same as foreground,n02933112_4,n02818832_3,Stimuli/canonical view 2/img_n02933112_4_gray.jpg,Stimuli/canonical view 2/img_n02818832_3_gray.jpg,random,right,Experiments/experiment_18/348.jpg,Experiments/experiment_18/349.jpg,Experiments/experiment_18/350.jpg,Experiments/experiment_18/351.jpg,264,1,2023-04-03_17h22.23.629,Occlusion_Psychophysics,2022.1.4,MacIntel,59.93407252,,,right,"[""right""]",[0.5661000000237664],False,,0.0,0.0,87.0,87.0,87.0,1.0,,,,,,
,,,,,,,,,,,,,,,,,,,,,0.05,,,,,,,,,,Stimuli/psy_flexible_rotation_30_objects_occ0.7_0.9s/images/train/n02933112_-18/n04379243_0/img_cgaxis_models_48_26_vray_composite_17th_c._monastery_dining_table_2010_2013_gray.jpg,n02933112_-18,n04379243_0,flexible,0.733791,n03928116_0,Stimuli/psy_fixed_rotation_30_objects_occ0.7_0.9s/images/train/n02818832_3/n03928116_0/img_b05_ccm_contemporary_bed_max2013_b02_piano_2006-3_gray.png,random,fixed,n02933112_-18,n04379243_0,Stimuli/canonical view 2/img_n02933112_-18_gray.jpg,Stimuli/canonical view 2/img_n04379243_0_gray.jpg,foreground,right,Experiments/experiment_18/352.jpg,Experiments/experiment_18/353.jpg,Experiments/experiment_18/354.jpg,Experiments/experiment_18/355.jpg,264,1,2023-04-03_17h22.23.629,Occlusion_Psychophysics,2022.1.4,MacIntel,59.93407252,,,right,"[""right""]",[1.14520000004768],False,,0.0,0.0,88.0,88.0,88.0,1.0,,,,,,
,,,,,,,,,,,,,,,,,,,,,0.05,,,,,,,,,,Stimuli/psy_fixed_rotation_30_objects_occ0.7_0.9s/images/train/n04379243_-7/n02883344_-1/img_quatre_dining_table_woven_box_2002_gray.jpg,n04379243_-7,n02883344_-1,fixed,0.867185,n02883344_-1,Stimuli/psy_fixed_rotation_30_objects_occ0.7_0.9s/images/train/n04379243_-7/n02883344_-1/img_quatre_dining_table_woven_box_2002-3_gray.png,foreground,same as foreground,n04379243_-7,n04379243_0,Stimuli/canonical view 2/img_n04379243_-7_gray.jpg,Stimuli/canonical view 2/img_n04379243_0_gray.jpg,random,right,Experiments/experiment_18/356.jpg,Experiments/experiment_18/357.jpg,Experiments/experiment_18/358.jpg,Experiments/experiment_18/359.jpg,264,1,2023-04-03_17h22.23.629,Occlusion_Psychophysics,2022.1.4,MacIntel,59.93407252,,,left,"[""left""]",[0.9887000000477428],False,,0.0,0.0,89.0,89.0,89.0,1.0,,,,,,
,,,,,,,,,,,,,,,,,,,,,0.05,,,,,,,,,,Stimuli/psy_flexible_rotation_30_objects_occ0.7_0.9s/images/train/n04405907_8/n04405907_9/img_stylized_tv_vray_004_2012_gray.jpg,n04405907_8,n04405907_9,flexible,0.724328,n04405907_9,Stimuli/psy_flexible_rotation_30_objects_occ0.7_0.9s/images/train/n04405907_8/n04405907_9/img_stylized_tv_vray_004_2012-3_gray.png,foreground,same as foreground,n04405907_8,n04405907_9,Stimuli/canonical view 2/img_n04405907_8_gray.jpg,Stimuli/canonical view 2/img_n04405907_9_gray.jpg,foreground,right,Experiments/experiment_18/360.jpg,Experiments/experiment_18/361.jpg,Experiments/experiment_18/362.jpg,Experiments/experiment_18/363.jpg,264,1,2023-04-03_17h22.23.629,Occlusion_Psychophysics,2022.1.4,MacIntel,59.93407252,,,left,"[""left""]",[1.1056999999284471],False,,0.0,0.0,90.0,90.0,90.0,1.0,,,,,,
,,,,,,,,,,,,,,,,,,,,,0.025,,,,,,,,,,Stimuli/psy_fixed_rotation_30_objects_occ0.7_0.9s/images/train/n02883344_0/n02883344_15/img_b03_box_microwave_box_2013_gray.jpg,n02883344_0,n02883344_15,fixed,0.703708,n02883344_15,Stimuli/psy_fixed_rotation_30_objects_occ0.7_0.9s/images/train/n02883344_0/n02883344_15/img_b03_box_microwave_box_2013-3_gray.png,foreground,same as foreground,n02883344_0,n03001627_8,Stimuli/canonical view 2/img_n02883344_0_gray.jpg,Stimuli/canonical view 2/img_n03001627_8_gray.jpg,random,left,Experiments/experiment_18/364.jpg,Experiments/experiment_18/365.jpg,Experiments/experiment_18/366.jpg,Experiments/experiment_18/367.jpg,264,1,2023-04-03_17h22.23.629,Occlusion_Psychophysics,2022.1.4,MacIntel,59.93407252,,,right,"[""right""]",[0.6968999999761536],False,,0.0,0.0,91.0,91.0,91.0,1.0,,,,,,
,,,,,,,,,,,,,,,,,,,,,0.025,,,,,,,,,,Stimuli/psy_flexible_rotation_30_objects_occ0.7_0.9s/images/train/n04256520_9/n02818832_9/img_napoleon_iii_sofa_bed01_blue_2012_gray.jpg,n04256520_9,n02818832_9,flexible,0.735298,n02818832_9,Stimuli/psy_flexible_rotation_30_objects_occ0.7_0.9s/images/train/n04256520_9/n02818832_9/img_napoleon_iii_sofa_bed01_blue_2012-3_gray.png,foreground,same as foreground,n04256520_9,n02818832_9,Stimuli/canonical view 2/img_n04256520_9_gray.jpg,Stimuli/canonical view 2/img_n02818832_9_gray.jpg,foreground,left,Experiments/experiment_18/368.jpg,Experiments/experiment_18/369.jpg,Experiments/experiment_18/370.jpg,Experiments/experiment_18/371.jpg,264,1,2023-04-03_17h22.23.629,Occlusion_Psychophysics,2022.1.4,MacIntel,59.93407252,,,right,"[""right""]",[0.5118999999760945],False,,0.0,0.0,92.0,92.0,92.0,1.0,,,,,,
,,,,,,,,,,,,,,,,,,,,,0.05,,,,,,,,,,Stimuli/psy_flexible_rotation_30_objects_occ0.7_0.9s/images/train/n03928116_4/n02933112_4/img_dp_33_b_2013__vray_buffet_2002_gray.jpg,n03928116_4,n02933112_4,flexible,0.771163,n04405907_8,Stimuli/psy_flexible_rotation_30_objects_occ0.7_0.9s/images/train/n02828884_4/n04405907_8/img_b05_c-5_classic_series_bench-2012_stylized_tv_2005-3_gray.png,random,flexible,n03928116_4,n04379243_-7,Stimuli/canonical view 2/img_n03928116_4_gray.jpg,Stimuli/canonical view 2/img_n04379243_-7_gray.jpg,random,right,Experiments/experiment_18/372.jpg,Experiments/experiment_18/373.jpg,Experiments/experiment_18/374.jpg,Experiments/experiment_18/375.jpg,264,1,2023-04-03_17h22.23.629,Occlusion_Psychophysics,2022.1.4,MacIntel,59.93407252,,,right,"[""right""]",[0.6551000000239355],False,,0.0,0.0,93.0,93.0,93.0,1.0,,,,,,
,,,,,,,,,,,,,,,,,,,,,0.05,,,,,,,,,,Stimuli/psy_flexible_rotation_30_objects_occ0.7_0.9s/images/train/n02883344_0/n02933112_-18/img_b03_box_cgaxis_models_48_26_vray_composite_2010_gray.jpg,n02883344_0,n02933112_-18,flexible,0.813984,n04379243_0,Stimuli/psy_fixed_rotation_30_objects_occ0.7_0.9s/images/train/n04379243_-7/n04379243_0/img_quatre_dining_table_17th_c._monastery_dining_table_2010_2011-3_gray.png,random,fixed,n02883344_0,n02933112_-18,Stimuli/canonical view 2/img_n02883344_0_gray.jpg,Stimuli/canonical view 2/img_n02933112_-18_gray.jpg,foreground,left,Experiments/experiment_18/376.jpg,Experiments/experiment_18/377.jpg,Experiments/experiment_18/378.jpg,Experiments/experiment_18/379.jpg,264,1,2023-04-03_17h22.23.629,Occlusion_Psychophysics,2022.1.4,MacIntel,59.93407252,,,right,"[""right""]",[0.7659999999999627],False,,0.0,0.0,94.0,94.0,94.0,1.0,,,,,,
,,,,,,,,,,,,,,,,,,,,,0.05,,,,,,,,,,Stimuli/psy_fixed_rotation_30_objects_occ0.7_0.9s/images/train/n04256520_9/n04405907_5/img_napoleon_iii_sofa_samsung_40_uhd_smart_tv_2011_2005_gray.jpg,n04256520_9,n04405907_5,fixed,0.719078,n04405907_5,Stimuli/psy_fixed_rotation_30_objects_occ0.7_0.9s/images/train/n04256520_9/n04405907_5/img_napoleon_iii_sofa_samsung_40_uhd_smart_tv_2011_2005-3_gray.png,foreground,same as foreground,n04256520_9,n04405907_5,Stimuli/canonical view 2/img_n04256520_9_gray.jpg,Stimuli/canonical view 2/img_n04405907_5_gray.jpg,foreground,right,Experiments/experiment_18/380.jpg,Experiments/experiment_18/381.jpg,Experiments/experiment_18/382.jpg,Experiments/experiment_18/383.jpg,264,1,2023-04-03_17h22.23.629,Occlusion_Psychophysics,2022.1.4,MacIntel,59.93407252,,,left,"[""right""]",[1.211999999999989],False,,0.0,0.0,95.0,95.0,95.0,1.0,,,,,,
,,,,,,,,,,,,,,,,,,,,,0.025,,,,,,,,,,Stimuli/psy_fixed_rotation_30_objects_occ0.7_0.9s/images/train/n02828884_3/n04379243_-7/img_b04_wood_metal_park_bench_quatre_dining_table_2013_gray.jpg,n02828884_3,n04379243_-7,fixed,0.825073,n04379243_-7,Stimuli/psy_fixed_rotation_30_objects_occ0.7_0.9s/images/train/n02828884_3/n04379243_-7/img_b04_wood_metal_park_bench_quatre_dining_table_2013-3_gray.png,foreground,same as foreground,n02828884_3,n04379243_-7,Stimuli/canonical view 2/img_n02828884_3_gray.jpg,Stimuli/canonical view 2/img_n04379243_-7_gray.jpg,foreground,left,Experiments/experiment_18/384.jpg,Experiments/experiment_18/385.jpg,Experiments/experiment_18/386.jpg,Experiments/experiment_18/387.jpg,264,1,2023-04-03_17h22.23.629,Occlusion_Psychophysics,2022.1.4,MacIntel,59.93407252,,,right,"[""right""]",[0.5599999999999454],False,,0.0,0.0,96.0,96.0,96.0,1.0,,,,,,
,,,,,,,,,,,,,,,,,,,,,0.025,,,,,,,,,,Stimuli/psy_fixed_rotation_30_objects_occ0.7_0.9s/images/train/n04256520_4/n02818832_3/img_club_house_italia_nautilus_sofa_b05_ccm_contemporary_bed_max2013_2007_gray.jpg,n04256520_4,n02818832_3,fixed,0.775534,n02818832_3,Stimuli/psy_fixed_rotation_30_objects_occ0.7_0.9s/images/train/n04256520_4/n02818832_3/img_club_house_italia_nautilus_sofa_b05_ccm_contemporary_bed_max2013_2007-3_gray.png,foreground,same as foreground,n04256520_4,n02818832_3,Stimuli/canonical view 2/img_n04256520_4_gray.jpg,Stimuli/canonical view 2/img_n02818832_3_gray.jpg,foreground,left,Experiments/experiment_18/388.jpg,Experiments/experiment_18/389.jpg,Experiments/experiment_18/390.jpg,Experiments/experiment_18/391.jpg,264,1,2023-04-03_17h22.23.629,Occlusion_Psychophysics,2022.1.4,MacIntel,59.93407252,,,right,"[""right""]",[0.673100000023851],True,right,1.0,0.0,97.0,97.0,97.0,1.0,0.7831,,,,,
,,,,,,,,,,,,,,,,,,,,,0.05,,,,,,,,,,Stimuli/psy_flexible_rotation_30_objects_occ0.7_0.9s/images/train/n03928116_0/n04256520_5/img_b02_piano_meridiani_belmondo_bench_sofa_2008_gray.jpg,n03928116_0,n04256520_5,flexible,0.7225,n04256520_5,Stimuli/psy_flexible_rotation_30_objects_occ0.7_0.9s/images/train/n03928116_0/n04256520_5/img_b02_piano_meridiani_belmondo_bench_sofa_2008-3_gray.png,foreground,same as foreground,n03928116_0,n02883344_15,Stimuli/canonical view 2/img_n03928116_0_gray.jpg,Stimuli/canonical view 2/img_n02883344_15_gray.jpg,random,right,Experiments/experiment_18/392.jpg,Experiments/experiment_18/393.jpg,Experiments/experiment_18/394.jpg,Experiments/experiment_18/395.jpg,264,1,2023-04-03_17h22.23.629,Occlusion_Psychophysics,2022.1.4,MacIntel,59.93407252,,,left,"[""left""]",[0.5796000000239019],False,,0.0,0.0,98.0,98.0,98.0,1.0,,,,,,
,,,,,,,,,,,,,,,,,,,,,0.025,,,,,,,,,,Stimuli/psy_flexible_rotation_30_objects_occ0.7_0.9s/images/train/n03928116_10/n02883344_-1/img_ydp_103_r_2012__vray_woven_box_2008_gray.jpg,n03928116_10,n02883344_-1,flexible,0.700406,n04379243_0,Stimuli/psy_flexible_rotation_30_objects_occ0.7_0.9s/images/train/n04256520_4/n04379243_0/img_club_house_italia_nautilus_sofa_17th_c._monastery_dining_table_2010_2002-3_gray.png,random,flexible,n03928116_10,n02883344_-1,Stimuli/canonical view 2/img_n03928116_10_gray.jpg,Stimuli/canonical view 2/img_n02883344_-1_gray.jpg,foreground,left,Experiments/experiment_18/396.jpg,Experiments/experiment_18/397.jpg,Experiments/experiment_18/398.jpg,Experiments/experiment_18/399.jpg,264,1,2023-04-03_17h22.23.629,Occlusion_Psychophysics,2022.1.4,MacIntel,59.93407252,,,right,"[""right""]",[0.4896999999284617],False,,0.0,0.0,99.0,99.0,99.0,1.0,,,,,,
,,,,,,,,,,,,,,,,,,,,,,,,,,,,,,,,,,,,,,,,,,,,,,,,,,264,1,2023-04-03_17h22.23.629,Occlusion_Psychophysics,2022.1.4,MacIntel,59.93407252,,,,,,,,,,,,,,,0.0,0.0,0.0,0.0,1.0
,,,,,,,,,,,,,,,,,,,,,0.05,,,,,,,,,,Stimuli/psy_flexible_rotation_30_objects_occ0.7_0.9s/images/train/n02818832_9/n04256520_5/img_bed01_blue_meridiani_belmondo_bench_sofa_2002_gray.jpg,n02818832_9,n04256520_5,flexible,0.75897,n04256520_5,Stimuli/psy_flexible_rotation_30_objects_occ0.7_0.9s/images/train/n02818832_9/n04256520_5/img_bed01_blue_meridiani_belmondo_bench_sofa_2002-3_gray.png,foreground,same as foreground,n02818832_9,n04256520_5,Stimuli/canonical view 2/img_n02818832_9_gray.jpg,Stimuli/canonical view 2/img_n04256520_5_gray.jpg,foreground,right,Experiments/experiment_18/400.jpg,Experiments/experiment_18/401.jpg,Experiments/experiment_18/402.jpg,Experiments/experiment_18/403.jpg,264,1,2023-04-03_17h22.23.629,Occlusion_Psychophysics,2022.1.4,MacIntel,59.93407252,,,right,"[""right""]",[1.167399999976169],False,,0.0,0.0,0.0,0.0,0.0,1.0,,,,,,
,,,,,,,,,,,,,,,,,,,,,0.025,,,,,,,,,,Stimuli/psy_flexible_rotation_30_objects_occ0.7_0.9s/images/train/n02818832_9/n02828884_4/img_bed01_blue_b05_c-5_classic_series_bench-2012_2005_gray.jpg,n02818832_9,n02828884_4,flexible,0.806751,n02883344_15,Stimuli/psy_fixed_rotation_30_objects_occ0.7_0.9s/images/train/n04379243_0/n02883344_15/img_17th_c._monastery_dining_table_2010_microwave_box_2014-3_gray.png,random,fixed,n02818832_9,n02828884_4,Stimuli/canonical view 2/img_n02818832_9_gray.jpg,Stimuli/canonical view 2/img_n02828884_4_gray.jpg,foreground,right,Experiments/experiment_18/404.jpg,Experiments/experiment_18/405.jpg,Experiments/experiment_18/406.jpg,Experiments/experiment_18/407.jpg,264,1,2023-04-03_17h22.23.629,Occlusion_Psychophysics,2022.1.4,MacIntel,59.93407252,,,right,"[""right""]",[1.2728999999760617],False,,0.0,0.0,1.0,1.0,1.0,1.0,,,,,,
,,,,,,,,,,,,,,,,,,,,,0.05,,,,,,,,,,Stimuli/psy_flexible_rotation_30_objects_occ0.7_0.9s/images/train/n02933112_4/n02883344_15/img_buffet_microwave_box_2001_gray.jpg,n02933112_4,n02883344_15,flexible,0.852845,n02883344_15,Stimuli/psy_flexible_rotation_30_objects_occ0.7_0.9s/images/train/n02933112_4/n02883344_15/img_buffet_microwave_box_2001-3_gray.png,foreground,same as foreground,n02933112_4,n02828884_4,Stimuli/canonical view 2/img_n02933112_4_gray.jpg,Stimuli/canonical view 2/img_n02828884_4_gray.jpg,random,left,Experiments/experiment_18/408.jpg,Experiments/experiment_18/409.jpg,Experiments/experiment_18/410.jpg,Experiments/experiment_18/411.jpg,264,1,2023-04-03_17h22.23.629,Occlusion_Psychophysics,2022.1.4,MacIntel,59.93407252,,,right,"[""right""]",[0.7029999999999745],False,,0.0,0.0,2.0,2.0,2.0,1.0,,,,,,
,,,,,,,,,,,,,,,,,,,,,0.025,,,,,,,,,,Stimuli/psy_flexible_rotation_30_objects_occ0.7_0.9s/images/train/n04379243_0/n04256520_5/img_17th_c._monastery_dining_table_2010_meridiani_belmondo_bench_sofa_2011_gray.jpg,n04379243_0,n04256520_5,flexible,0.716321,n04256520_5,Stimuli/psy_flexible_rotation_30_objects_occ0.7_0.9s/images/train/n04379243_0/n04256520_5/img_17th_c._monastery_dining_table_2010_meridiani_belmondo_bench_sofa_2011-3_gray.png,foreground,same as foreground,n04379243_0,n04256520_5,Stimuli/canonical view 2/img_n04379243_0_gray.jpg,Stimuli/canonical view 2/img_n04256520_5_gray.jpg,foreground,right,Experiments/experiment_18/412.jpg,Experiments/experiment_18/413.jpg,Experiments/experiment_18/414.jpg,Experiments/experiment_18/415.jpg,264,1,2023-04-03_17h22.23.629,Occlusion_Psychophysics,2022.1.4,MacIntel,59.93407252,,,right,"[""right""]",[0.4947999999523063],True,right,1.0,0.0,3.0,3.0,3.0,1.0,1.2592,,,,,
,,,,,,,,,,,,,,,,,,,,,0.025,,,,,,,,,,Stimuli/psy_fixed_rotation_30_objects_occ0.7_0.9s/images/train/n02818832_0/n02933112_-18/img_b03_the_sofa_and_chair_company_-_stanley_bed_2014_cgaxis_models_48_26_vray_composite_2009_gray.jpg,n02818832_0,n02933112_-18,fixed,0.732942,n02818832_3,Stimuli/psy_fixed_rotation_30_objects_occ0.7_0.9s/images/train/n02828884_3/n02818832_3/img_b04_wood_metal_park_bench_b05_ccm_contemporary_bed_max2013_2000-3_gray.png,random,fixed,n02818832_0,n02933112_-18,Stimuli/canonical view 2/img_n02818832_0_gray.jpg,Stimuli/canonical view 2/img_n02933112_-18_gray.jpg,foreground,left,Experiments/experiment_18/416.jpg,Experiments/experiment_18/417.jpg,Experiments/experiment_18/418.jpg,Experiments/experiment_18/419.jpg,264,1,2023-04-03_17h22.23.629,Occlusion_Psychophysics,2022.1.4,MacIntel,59.93407252,,,left,"[""left""]",[1.0373999999761736],False,,0.0,0.0,4.0,4.0,4.0,1.0,,,,,,
,,,,,,,,,,,,,,,,,,,,,0.05,,,,,,,,,,Stimuli/psy_flexible_rotation_30_objects_occ0.7_0.9s/images/train/n02828884_9/n02933112_-2/img_cr-96_bench_sink_base_white_wood_2004_gray.jpg,n02828884_9,n02933112_-2,flexible,0.734188,n02818832_0,Stimuli/psy_flexible_rotation_30_objects_occ0.7_0.9s/images/train/n02818832_9/n02818832_0/img_bed01_blue_b03_the_sofa_and_chair_company_-_stanley_bed_2014_2000-3_gray.png,random,flexible,n02828884_9,n03001627_8,Stimuli/canonical view 2/img_n02828884_9_gray.jpg,Stimuli/canonical view 2/img_n03001627_8_gray.jpg,random,left,Experiments/experiment_18/420.jpg,Experiments/experiment_18/421.jpg,Experiments/experiment_18/422.jpg,Experiments/experiment_18/423.jpg,264,1,2023-04-03_17h22.23.629,Occlusion_Psychophysics,2022.1.4,MacIntel,59.93407252,,,right,"[""right""]",[0.5198999999762464],False,,0.0,0.0,5.0,5.0,5.0,1.0,,,,,,
,,,,,,,,,,,,,,,,,,,,,0.05,,,,,,,,,,Stimuli/psy_fixed_rotation_30_objects_occ0.7_0.9s/images/train/n04256520_5/n04405907_9/img_meridiani_belmondo_bench_sofa_vray_004_2004_gray.jpg,n04256520_5,n04405907_9,fixed,0.852997,n02818832_0,Stimuli/psy_fixed_rotation_30_objects_occ0.7_0.9s/images/train/n04379243_8/n02818832_0/img_glass_table_b03_the_sofa_and_chair_company_-_stanley_bed_2014_2013-3_gray.png,random,fixed,n04256520_5,n04379243_-7,Stimuli/canonical view 2/img_n04256520_5_gray.jpg,Stimuli/canonical view 2/img_n04379243_-7_gray.jpg,random,right,Experiments/experiment_18/424.jpg,Experiments/experiment_18/425.jpg,Experiments/experiment_18/426.jpg,Experiments/experiment_18/427.jpg,264,1,2023-04-03_17h22.23.629,Occlusion_Psychophysics,2022.1.4,MacIntel,59.93407252,,,right,"[""right""]",[0.7229999999999563],False,,0.0,0.0,6.0,6.0,6.0,1.0,,,,,,
,,,,,,,,,,,,,,,,,,,,,0.05,,,,,,,,,,Stimuli/psy_fixed_rotation_30_objects_occ0.7_0.9s/images/train/n03928116_4/n04405907_5/img_dp_33_b_2013__vray_samsung_40_uhd_smart_tv_2011_2001_gray.jpg,n03928116_4,n04405907_5,fixed,0.727925,n02818832_0,Stimuli/psy_fixed_rotation_30_objects_occ0.7_0.9s/images/train/n04070727_3/n02818832_0/img_b05_db_apps_tech_06_02_2_composite_b03_the_sofa_and_chair_company_-_stanley_bed_2014_2008-3_gray.png,random,fixed,n03928116_4,n04405907_9,Stimuli/canonical view 2/img_n03928116_4_gray.jpg,Stimuli/canonical view 2/img_n04405907_9_gray.jpg,random,right,Experiments/experiment_18/428.jpg,Experiments/experiment_18/429.jpg,Experiments/experiment_18/430.jpg,Experiments/experiment_18/431.jpg,264,1,2023-04-03_17h22.23.629,Occlusion_Psychophysics,2022.1.4,MacIntel,59.93407252,,,right,"[""right""]",[1.4225000000000136],False,,0.0,0.0,7.0,7.0,7.0,1.0,,,,,,
,,,,,,,,,,,,,,,,,,,,,0.025,,,,,,,,,,Stimuli/psy_flexible_rotation_30_objects_occ0.7_0.9s/images/train/n02883344_0/n04405907_9/img_b03_box_vray_004_2003_gray.jpg,n02883344_0,n04405907_9,flexible,0.704417,n04405907_9,Stimuli/psy_flexible_rotation_30_objects_occ0.7_0.9s/images/train/n02883344_0/n04405907_9/img_b03_box_vray_004_2003-3_gray.png,foreground,same as foreground,n02883344_0,n04405907_9,Stimuli/canonical view 2/img_n02883344_0_gray.jpg,Stimuli/canonical view 2/img_n04405907_9_gray.jpg,foreground,right,Experiments/experiment_18/432.jpg,Experiments/experiment_18/433.jpg,Experiments/experiment_18/434.jpg,Experiments/experiment_18/435.jpg,264,1,2023-04-03_17h22.23.629,Occlusion_Psychophysics,2022.1.4,MacIntel,59.93407252,,,right,"[""right""]",[0.6899999999999409],False,,0.0,0.0,8.0,8.0,8.0,1.0,,,,,,
,,,,,,,,,,,,,,,,,,,,,0.025,,,,,,,,,,Stimuli/psy_fixed_rotation_30_objects_occ0.7_0.9s/images/train/n04405907_9/n04405907_8/img_vray_004_stylized_tv_2009_gray.jpg,n04405907_9,n04405907_8,fixed,0.733472,n02883344_-1,Stimuli/psy_flexible_rotation_30_objects_occ0.7_0.9s/images/train/n04379243_-7/n02883344_-1/img_quatre_dining_table_woven_box_2013-3_gray.png,random,flexible,n04405907_9,n04379243_0,Stimuli/canonical view 2/img_n04405907_9_gray.jpg,Stimuli/canonical view 2/img_n04379243_0_gray.jpg,random,left,Experiments/experiment_18/436.jpg,Experiments/experiment_18/437.jpg,Experiments/experiment_18/438.jpg,Experiments/experiment_18/439.jpg,264,1,2023-04-03_17h22.23.629,Occlusion_Psychophysics,2022.1.4,MacIntel,59.93407252,,,left,"[""left""]",[0.7621000000237927],False,,0.0,0.0,9.0,9.0,9.0,1.0,,,,,,
,,,,,,,,,,,,,,,,,,,,,0.025,,,,,,,,,,Stimuli/psy_flexible_rotation_30_objects_occ0.7_0.9s/images/train/n02933112_-2/n02883344_-1/img_sink_base_white_wood_woven_box_2008_gray.jpg,n02933112_-2,n02883344_-1,flexible,0.790782,n04379243_-7,Stimuli/psy_fixed_rotation_30_objects_occ0.7_0.9s/images/train/n02828884_4/n04379243_-7/img_b05_c-5_classic_series_bench-2012_quatre_dining_table_2005-3_gray.png,random,fixed,n02933112_-2,n04379243_0,Stimuli/canonical view 2/img_n02933112_-2_gray.jpg,Stimuli/canonical view 2/img_n04379243_0_gray.jpg,random,right,Experiments/experiment_18/440.jpg,Experiments/experiment_18/441.jpg,Experiments/experiment_18/442.jpg,Experiments/experiment_18/443.jpg,264,1,2023-04-03_17h22.23.629,Occlusion_Psychophysics,2022.1.4,MacIntel,59.93407252,,,left,"[""left""]",[0.8528999999762163],False,,0.0,0.0,10.0,10.0,10.0,1.0,,,,,,
,,,,,,,,,,,,,,,,,,,,,0.05,,,,,,,,,,Stimuli/psy_flexible_rotation_30_objects_occ0.7_0.9s/images/train/n04379243_8/n02818832_9/img_glass_table_bed01_blue_2014_gray.jpg,n04379243_8,n02818832_9,flexible,0.795296,n02818832_9,Stimuli/psy_flexible_rotation_30_objects_occ0.7_0.9s/images/train/n04379243_8/n02818832_9/img_glass_table_bed01_blue_2014-3_gray.png,foreground,same as foreground,n04379243_8,n02818832_9,Stimuli/canonical view 2/img_n04379243_8_gray.jpg,Stimuli/canonical view 2/img_n02818832_9_gray.jpg,foreground,right,Experiments/experiment_18/444.jpg,Experiments/experiment_18/445.jpg,Experiments/experiment_18/446.jpg,Experiments/experiment_18/447.jpg,264,1,2023-04-03_17h22.23.629,Occlusion_Psychophysics,2022.1.4,MacIntel,59.93407252,,,right,"[""right""]",[0.46239999997612813],False,,0.0,0.0,11.0,11.0,11.0,1.0,,,,,,
,,,,,,,,,,,,,,,,,,,,,0.05,,,,,,,,,,Stimuli/psy_fixed_rotation_30_objects_occ0.7_0.9s/images/train/n04405907_9/n03001627_8/img_vray_004_chair_billiani_doll_2011_gray.jpg,n04405907_9,n03001627_8,fixed,0.734438,n04256520_5,Stimuli/psy_flexible_rotation_30_objects_occ0.7_0.9s/images/train/n03928116_10/n04256520_5/img_ydp_103_r_2012__vray_meridiani_belmondo_bench_sofa_2004-3_gray.png,random,flexible,n04405907_9,n03001627_8,Stimuli/canonical view 2/img_n04405907_9_gray.jpg,Stimuli/canonical view 2/img_n03001627_8_gray.jpg,foreground,left,Experiments/experiment_18/448.jpg,Experiments/experiment_18/449.jpg,Experiments/experiment_18/450.jpg,Experiments/experiment_18/451.jpg,264,1,2023-04-03_17h22.23.629,Occlusion_Psychophysics,2022.1.4,MacIntel,59.93407252,,,left,"[""left""]",[0.7237000000476428],False,,0.0,0.0,12.0,12.0,12.0,1.0,,,,,,
