in_color,Instructions_key.keys,Instructions_key.rt,Tutorial_instruction_key.keys,Tutorial_instruction_key.rt,Tutorial_fixation_ley.keys,Tutorial_fixation_ley.rt,Tutorial_single_img_key.keys,Tutorial_single_img_key.rt,Tutorial_intra_trial_fixation_key.keys,Tutorial_intra_trial_fixation_key.rt,Tutorial_stimulus_key.keys,Tutorial_stimulus_key.rt,Tutorial_response_key.keys,Tutorial_response_key.rt,Tutorial_attention_check_key.keys,Tutorial_attention_check_key.rt,advance_or_repeat.keys,advance_or_repeat.rt,Practice_instructions_key.keys,Practice_instructions_key.rt,intra_trial_duration,Practice_key_response.keys,Practice_key_response.rt,Practice_react_key.keys,Practice_react_key.rt,Practice_loop.thisRepN,Practice_loop.thisTrialN,Practice_loop.thisN,Practice_loop.thisIndex,Practice_loop.ran,multi_object_filepath,background_id,foreground_id,multi_object_rotation,occlusion_level,single_object_id,single_object_filepath,single_is_foreground_or_random,single_object_rotation,background_choice_id,alt_choice_id,background_option_filepath,alternative_option_filepath,alternative_is_foreground_or_random,location_of_correct_answer,multi_object_exp_filename,single_object_exp_filename,background_option_exp_filename,alternative_option_exp_filename,participant,session,date,expName,psychopyVersion,OS,frameRate,Practice_end_key.keys,Practice_end_key.rt,correct_answer,Input_selection.keys,Input_selection.rt,Was_attention_check,Attention_check.keys,Attention_check.corr,Each_session_loop.thisRepN,Each_session_loop.thisTrialN,Each_session_loop.thisN,Each_session_loop.thisIndex,Each_session_loop.ran,Attention_check.rt,Num_sessions.thisRepN,Num_sessions.thisTrialN,Num_sessions.thisN,Num_sessions.thisIndex,Num_sessions.ran
False,right,2.099,right,0.712,right,0.094,left,0.006,right,0.112,left,0.01,right,0.19,right,0.476,a,4.036,a,1.604,0.05,right,1.095,a,3.065,0.0,0.0,0.0,0.0,1.0,Stimuli/psy_flexible_rotation_30_objects_occ0.7_0.9s/images/train/n04405907_8/n03001627_8/img_stylized_tv_chair_billiani_doll_2010_gray.jpg,n04405907_8,n03001627_8,flexible,0.737579,n02818832_9,Stimuli/psy_fixed_rotation_30_objects_occ0.7_0.9s/images/train/n02883344_0/n02818832_9/img_b03_box_bed01_blue_2006-3_gray.png,random,fixed,n04405907_8,n02818832_3,Stimuli/canonical view 2/img_n04405907_8_gray.jpg,Stimuli/canonical view 2/img_n02818832_3_gray.jpg,random,right,Experiments/experiment_13/1000.jpg,Experiments/experiment_13/1001.jpg,Experiments/experiment_13/1002.jpg,Experiments/experiment_13/1003.jpg,269,1,2023-09-17_10h50.30.176,Occlusion_Psychophysics,2022.1.4,Win32,32,,,,,,,,,,,,,,,,,,,
,,,,,,,,,,,,,,,,,,,,,0.025,,,,,,,,,,Stimuli/psy_fixed_rotation_30_objects_occ0.7_0.9s/images/train/n03928116_0/n02828884_3/img_b02_piano_b04_wood_metal_park_bench_2011_gray.jpg,n03928116_0,n02828884_3,fixed,0.730199,n02828884_3,Stimuli/psy_fixed_rotation_30_objects_occ0.7_0.9s/images/train/n03928116_0/n02828884_3/img_b02_piano_b04_wood_metal_park_bench_2011-3_gray.png,foreground,same as foreground,n03928116_0,n02828884_3,Stimuli/canonical view 2/img_n03928116_0_gray.jpg,Stimuli/canonical view 2/img_n02828884_3_gray.jpg,foreground,right,Experiments/experiment_13/0.jpg,Experiments/experiment_13/1.jpg,Experiments/experiment_13/2.jpg,Experiments/experiment_13/3.jpg,269,1,2023-09-17_10h50.30.176,Occlusion_Psychophysics,2022.1.4,Win32,32,right,2.238,right,"[""right""]",[1.0149999999999864],False,,0.0,0.0,0.0,0.0,0.0,1.0,,,,,,
,,,,,,,,,,,,,,,,,,,,,0.025,,,,,,,,,,Stimuli/psy_fixed_rotation_30_objects_occ0.7_0.9s/images/train/n04379243_8/n04256520_5/img_glass_table_meridiani_belmondo_bench_sofa_2007_gray.jpg,n04379243_8,n04256520_5,fixed,0.78771,n04256520_5,Stimuli/psy_fixed_rotation_30_objects_occ0.7_0.9s/images/train/n04379243_8/n04256520_5/img_glass_table_meridiani_belmondo_bench_sofa_2007-3_gray.png,foreground,same as foreground,n04379243_8,n04405907_9,Stimuli/canonical view 2/img_n04379243_8_gray.jpg,Stimuli/canonical view 2/img_n04405907_9_gray.jpg,random,left,Experiments/experiment_13/4.jpg,Experiments/experiment_13/5.jpg,Experiments/experiment_13/6.jpg,Experiments/experiment_13/7.jpg,269,1,2023-09-17_10h50.30.176,Occlusion_Psychophysics,2022.1.4,Win32,32,,,left,"[""left""]",[0.7939999999999827],False,,0.0,0.0,1.0,1.0,1.0,1.0,,,,,,
,,,,,,,,,,,,,,,,,,,,,0.025,,,,,,,,,,Stimuli/psy_fixed_rotation_30_objects_occ0.7_0.9s/images/train/n03928116_4/n04256520_9/img_dp_33_b_2013__vray_napoleon_iii_sofa_2011_gray.jpg,n03928116_4,n04256520_9,fixed,0.709696,n04256520_9,Stimuli/psy_fixed_rotation_30_objects_occ0.7_0.9s/images/train/n03928116_4/n04256520_9/img_dp_33_b_2013__vray_napoleon_iii_sofa_2011-3_gray.png,foreground,same as foreground,n03928116_4,n04405907_8,Stimuli/canonical view 2/img_n03928116_4_gray.jpg,Stimuli/canonical view 2/img_n04405907_8_gray.jpg,random,right,Experiments/experiment_13/8.jpg,Experiments/experiment_13/9.jpg,Experiments/experiment_13/10.jpg,Experiments/experiment_13/11.jpg,269,1,2023-09-17_10h50.30.176,Occlusion_Psychophysics,2022.1.4,Win32,32,,,left,"[""left""]",[0.8029999999999973],False,,0.0,0.0,2.0,2.0,2.0,1.0,,,,,,
,,,,,,,,,,,,,,,,,,,,,0.05,,,,,,,,,,Stimuli/psy_flexible_rotation_30_objects_occ0.7_0.9s/images/train/n02933112_4/n02883344_-1/img_buffet_woven_box_2005_gray.jpg,n02933112_4,n02883344_-1,flexible,0.740922,n02883344_0,Stimuli/psy_fixed_rotation_30_objects_occ0.7_0.9s/images/train/n04256520_4/n02883344_0/img_club_house_italia_nautilus_sofa_b03_box_2007-3_gray.png,random,fixed,n02933112_4,n03001627_9,Stimuli/canonical view 2/img_n02933112_4_gray.jpg,Stimuli/canonical view 2/img_n03001627_9_gray.jpg,random,right,Experiments/experiment_13/12.jpg,Experiments/experiment_13/13.jpg,Experiments/experiment_13/14.jpg,Experiments/experiment_13/15.jpg,269,1,2023-09-17_10h50.30.176,Occlusion_Psychophysics,2022.1.4,Win32,32,,,right,"[""right""]",[0.8729999999999905],False,,0.0,0.0,3.0,3.0,3.0,1.0,,,,,,
,,,,,,,,,,,,,,,,,,,,,0.05,,,,,,,,,,Stimuli/psy_fixed_rotation_30_objects_occ0.7_0.9s/images/train/n02883344_-1/n04256520_4/img_woven_box_club_house_italia_nautilus_sofa_2002_gray.jpg,n02883344_-1,n04256520_4,fixed,0.797853,n02883344_-1,Stimuli/psy_fixed_rotation_30_objects_occ0.7_0.9s/images/train/n02933112_-2/n02883344_-1/img_sink_base_white_wood_woven_box_2000-3_gray.png,random,fixed,n02883344_-1,n04256520_4,Stimuli/canonical view 2/img_n02883344_-1_gray.jpg,Stimuli/canonical view 2/img_n04256520_4_gray.jpg,foreground,right,Experiments/experiment_13/16.jpg,Experiments/experiment_13/17.jpg,Experiments/experiment_13/18.jpg,Experiments/experiment_13/19.jpg,269,1,2023-09-17_10h50.30.176,Occlusion_Psychophysics,2022.1.4,Win32,32,,,left,"[""left""]",[0.7950000000000159],False,,0.0,0.0,4.0,4.0,4.0,1.0,,,,,,
,,,,,,,,,,,,,,,,,,,,,0.025,,,,,,,,,,Stimuli/psy_flexible_rotation_30_objects_occ0.7_0.9s/images/train/n02818832_3/n04256520_4/img_b05_ccm_contemporary_bed_max2013_club_house_italia_nautilus_sofa_2000_gray.jpg,n02818832_3,n04256520_4,flexible,0.749357,n02818832_3,Stimuli/psy_flexible_rotation_30_objects_occ0.7_0.9s/images/train/n02933112_-2/n02818832_3/img_sink_base_white_wood_b05_ccm_contemporary_bed_max2013_2004-3_gray.png,random,flexible,n02818832_3,n04379243_8,Stimuli/canonical view 2/img_n02818832_3_gray.jpg,Stimuli/canonical view 2/img_n04379243_8_gray.jpg,random,left,Experiments/experiment_13/20.jpg,Experiments/experiment_13/21.jpg,Experiments/experiment_13/22.jpg,Experiments/experiment_13/23.jpg,269,1,2023-09-17_10h50.30.176,Occlusion_Psychophysics,2022.1.4,Win32,32,,,right,"[""left""]",[1.2090000000000032],False,,0.0,0.0,5.0,5.0,5.0,1.0,,,,,,
,,,,,,,,,,,,,,,,,,,,,0.05,,,,,,,,,,Stimuli/psy_fixed_rotation_30_objects_occ0.7_0.9s/images/train/n02933112_4/n04256520_5/img_buffet_meridiani_belmondo_bench_sofa_2000_gray.jpg,n02933112_4,n04256520_5,fixed,0.796693,n03928116_0,Stimuli/psy_flexible_rotation_30_objects_occ0.7_0.9s/images/train/n02828884_4/n03928116_0/img_b05_c-5_classic_series_bench-2012_b02_piano_2003-3_gray.png,random,flexible,n02933112_4,n04256520_5,Stimuli/canonical view 2/img_n02933112_4_gray.jpg,Stimuli/canonical view 2/img_n04256520_5_gray.jpg,foreground,left,Experiments/experiment_13/24.jpg,Experiments/experiment_13/25.jpg,Experiments/experiment_13/26.jpg,Experiments/experiment_13/27.jpg,269,1,2023-09-17_10h50.30.176,Occlusion_Psychophysics,2022.1.4,Win32,32,,,right,"[""left""]",[1.7719999999999914],False,,0.0,0.0,6.0,6.0,6.0,1.0,,,,,,
,,,,,,,,,,,,,,,,,,,,,0.025,,,,,,,,,,Stimuli/psy_fixed_rotation_30_objects_occ0.7_0.9s/images/train/n04256520_5/n04256520_4/img_meridiani_belmondo_bench_sofa_club_house_italia_nautilus_sofa_2008_gray.jpg,n04256520_5,n04256520_4,fixed,0.773449,n04256520_4,Stimuli/psy_fixed_rotation_30_objects_occ0.7_0.9s/images/train/n04256520_5/n04256520_4/img_meridiani_belmondo_bench_sofa_club_house_italia_nautilus_sofa_2008-3_gray.png,foreground,same as foreground,n04256520_5,n03928116_0,Stimuli/canonical view 2/img_n04256520_5_gray.jpg,Stimuli/canonical view 2/img_n03928116_0_gray.jpg,random,right,Experiments/experiment_13/28.jpg,Experiments/experiment_13/29.jpg,Experiments/experiment_13/30.jpg,Experiments/experiment_13/31.jpg,269,1,2023-09-17_10h50.30.176,Occlusion_Psychophysics,2022.1.4,Win32,32,,,left,"[""left""]",[1.7970000000000255],False,,0.0,0.0,7.0,7.0,7.0,1.0,,,,,,
,,,,,,,,,,,,,,,,,,,,,0.05,,,,,,,,,,Stimuli/psy_fixed_rotation_30_objects_occ0.7_0.9s/images/train/n02883344_0/n02883344_15/img_b03_box_microwave_box_2014_gray.jpg,n02883344_0,n02883344_15,fixed,0.820172,n02883344_15,Stimuli/psy_fixed_rotation_30_objects_occ0.7_0.9s/images/train/n02883344_0/n02883344_15/img_b03_box_microwave_box_2014-3_gray.png,foreground,same as foreground,n02883344_0,n02933112_-18,Stimuli/canonical view 2/img_n02883344_0_gray.jpg,Stimuli/canonical view 2/img_n02933112_-18_gray.jpg,random,right,Experiments/experiment_13/32.jpg,Experiments/experiment_13/33.jpg,Experiments/experiment_13/34.jpg,Experiments/experiment_13/35.jpg,269,1,2023-09-17_10h50.30.176,Occlusion_Psychophysics,2022.1.4,Win32,32,,,left,"[""right""]",[1.7660000000000196],False,,0.0,0.0,8.0,8.0,8.0,1.0,,,,,,
,,,,,,,,,,,,,,,,,,,,,0.05,,,,,,,,,,Stimuli/psy_fixed_rotation_30_objects_occ0.7_0.9s/images/train/n04379243_8/n02828884_4/img_glass_table_b05_c-5_classic_series_bench-2012_2004_gray.jpg,n04379243_8,n02828884_4,fixed,0.748129,n02828884_4,Stimuli/psy_fixed_rotation_30_objects_occ0.7_0.9s/images/train/n04379243_8/n02828884_4/img_glass_table_b05_c-5_classic_series_bench-2012_2004-3_gray.png,foreground,same as foreground,n04379243_8,n02828884_4,Stimuli/canonical view 2/img_n04379243_8_gray.jpg,Stimuli/canonical view 2/img_n02828884_4_gray.jpg,foreground,left,Experiments/experiment_13/36.jpg,Experiments/experiment_13/37.jpg,Experiments/experiment_13/38.jpg,Experiments/experiment_13/39.jpg,269,1,2023-09-17_10h50.30.176,Occlusion_Psychophysics,2022.1.4,Win32,32,,,left,"[""left""]",[0.7419999999999618],False,,0.0,0.0,9.0,9.0,9.0,1.0,,,,,,
,,,,,,,,,,,,,,,,,,,,,0.05,,,,,,,,,,Stimuli/psy_flexible_rotation_30_objects_occ0.7_0.9s/images/train/n02818832_9/n02818832_0/img_bed01_blue_b03_the_sofa_and_chair_company_-_stanley_bed_2014_2014_gray.jpg,n02818832_9,n02818832_0,flexible,0.783554,n03928116_0,Stimuli/psy_fixed_rotation_30_objects_occ0.7_0.9s/images/train/n04070727_5/n03928116_0/img_b05_db_apps_tech_06_13_composite_b02_piano_2010-3_gray.png,random,fixed,n02818832_9,n03001627_-2,Stimuli/canonical view 2/img_n02818832_9_gray.jpg,Stimuli/canonical view 2/img_n03001627_-2_gray.jpg,random,right,Experiments/experiment_13/40.jpg,Experiments/experiment_13/41.jpg,Experiments/experiment_13/42.jpg,Experiments/experiment_13/43.jpg,269,1,2023-09-17_10h50.30.176,Occlusion_Psychophysics,2022.1.4,Win32,32,,,right,"[""right""]",[1.01400000000001],False,,0.0,0.0,10.0,10.0,10.0,1.0,,,,,,
,,,,,,,,,,,,,,,,,,,,,0.025,,,,,,,,,,Stimuli/psy_flexible_rotation_30_objects_occ0.7_0.9s/images/train/n04405907_8/n02883344_-1/img_stylized_tv_woven_box_2005_gray.jpg,n04405907_8,n02883344_-1,flexible,0.857357,n02883344_-1,Stimuli/psy_flexible_rotation_30_objects_occ0.7_0.9s/images/train/n04405907_8/n02883344_-1/img_stylized_tv_woven_box_2005-3_gray.png,foreground,same as foreground,n04405907_8,n04256520_9,Stimuli/canonical view 2/img_n04405907_8_gray.jpg,Stimuli/canonical view 2/img_n04256520_9_gray.jpg,random,right,Experiments/experiment_13/44.jpg,Experiments/experiment_13/45.jpg,Experiments/experiment_13/46.jpg,Experiments/experiment_13/47.jpg,269,1,2023-09-17_10h50.30.176,Occlusion_Psychophysics,2022.1.4,Win32,32,,,right,"[""left""]",[1.3269999999999982],False,,0.0,0.0,11.0,11.0,11.0,1.0,,,,,,
,,,,,,,,,,,,,,,,,,,,,0.05,,,,,,,,,,Stimuli/psy_fixed_rotation_30_objects_occ0.7_0.9s/images/train/n03001627_9/n02883344_-1/img_chair_eames_plastic_armchair_woven_box_2004_gray.jpg,n03001627_9,n02883344_-1,fixed,0.77859,n02933112_-2,Stimuli/psy_fixed_rotation_30_objects_occ0.7_0.9s/images/train/n04256520_4/n02933112_-2/img_club_house_italia_nautilus_sofa_sink_base_white_wood_2012-3_gray.png,random,fixed,n03001627_9,n04405907_9,Stimuli/canonical view 2/img_n03001627_9_gray.jpg,Stimuli/canonical view 2/img_n04405907_9_gray.jpg,random,right,Experiments/experiment_13/48.jpg,Experiments/experiment_13/49.jpg,Experiments/experiment_13/50.jpg,Experiments/experiment_13/51.jpg,269,1,2023-09-17_10h50.30.176,Occlusion_Psychophysics,2022.1.4,Win32,32,,,right,"[""right""]",[0.90300000000002],False,,0.0,0.0,12.0,12.0,12.0,1.0,,,,,,
,,,,,,,,,,,,,,,,,,,,,0.05,,,,,,,,,,Stimuli/psy_flexible_rotation_30_objects_occ0.7_0.9s/images/train/n04256520_4/n02883344_-1/img_club_house_italia_nautilus_sofa_woven_box_2002_gray.jpg,n04256520_4,n02883344_-1,flexible,0.824506,n02828884_3,Stimuli/psy_fixed_rotation_30_objects_occ0.7_0.9s/images/train/n02883344_15/n02828884_3/img_microwave_box_b04_wood_metal_park_bench_2002-3_gray.png,random,fixed,n04256520_4,n03928116_10,Stimuli/canonical view 2/img_n04256520_4_gray.jpg,Stimuli/canonical view 2/img_n03928116_10_gray.jpg,random,left,Experiments/experiment_13/52.jpg,Experiments/experiment_13/53.jpg,Experiments/experiment_13/54.jpg,Experiments/experiment_13/55.jpg,269,1,2023-09-17_10h50.30.176,Occlusion_Psychophysics,2022.1.4,Win32,32,,,left,"[""left""]",[1.024000000000001],False,,0.0,0.0,13.0,13.0,13.0,1.0,,,,,,
,,,,,,,,,,,,,,,,,,,,,0.025,,,,,,,,,,Stimuli/psy_flexible_rotation_30_objects_occ0.7_0.9s/images/train/n02883344_0/n04256520_9/img_b03_box_napoleon_iii_sofa_2015_gray.jpg,n02883344_0,n04256520_9,flexible,0.717337,n02933112_-2,Stimuli/psy_flexible_rotation_30_objects_occ0.7_0.9s/images/train/n03001627_-2/n02933112_-2/img_wood_chair_sink_base_white_wood_2006-3_gray.png,random,flexible,n02883344_0,n03928116_10,Stimuli/canonical view 2/img_n02883344_0_gray.jpg,Stimuli/canonical view 2/img_n03928116_10_gray.jpg,random,right,Experiments/experiment_13/56.jpg,Experiments/experiment_13/57.jpg,Experiments/experiment_13/58.jpg,Experiments/experiment_13/59.jpg,269,1,2023-09-17_10h50.30.176,Occlusion_Psychophysics,2022.1.4,Win32,32,,,left,"[""right""]",[1.2010000000000218],False,,0.0,0.0,14.0,14.0,14.0,1.0,,,,,,
,,,,,,,,,,,,,,,,,,,,,0.05,,,,,,,,,,Stimuli/psy_flexible_rotation_30_objects_occ0.7_0.9s/images/train/n04256520_5/n02818832_9/img_meridiani_belmondo_bench_sofa_bed01_blue_2012_gray.jpg,n04256520_5,n02818832_9,flexible,0.71403,n02828884_3,Stimuli/psy_fixed_rotation_30_objects_occ0.7_0.9s/images/train/n04405907_9/n02828884_3/img_vray_004_b04_wood_metal_park_bench_2004-3_gray.png,random,fixed,n04256520_5,n02818832_9,Stimuli/canonical view 2/img_n04256520_5_gray.jpg,Stimuli/canonical view 2/img_n02818832_9_gray.jpg,foreground,left,Experiments/experiment_13/60.jpg,Experiments/experiment_13/61.jpg,Experiments/experiment_13/62.jpg,Experiments/experiment_13/63.jpg,269,1,2023-09-17_10h50.30.176,Occlusion_Psychophysics,2022.1.4,Win32,32,,,left,"[""right""]",[1.0810000000000173],False,,0.0,0.0,15.0,15.0,15.0,1.0,,,,,,
,,,,,,,,,,,,,,,,,,,,,0.05,,,,,,,,,,Stimuli/psy_fixed_rotation_30_objects_occ0.7_0.9s/images/train/n04405907_9/n02883344_0/img_vray_004_b03_box_2000_gray.jpg,n04405907_9,n02883344_0,fixed,0.770008,n02883344_0,Stimuli/psy_fixed_rotation_30_objects_occ0.7_0.9s/images/train/n04405907_9/n02883344_0/img_vray_004_b03_box_2000-3_gray.png,foreground,same as foreground,n04405907_9,n02883344_0,Stimuli/canonical view 2/img_n04405907_9_gray.jpg,Stimuli/canonical view 2/img_n02883344_0_gray.jpg,foreground,left,Experiments/experiment_13/64.jpg,Experiments/experiment_13/65.jpg,Experiments/experiment_13/66.jpg,Experiments/experiment_13/67.jpg,269,1,2023-09-17_10h50.30.176,Occlusion_Psychophysics,2022.1.4,Win32,32,,,left,"[""left""]",[0.8320000000000505],False,,0.0,0.0,16.0,16.0,16.0,1.0,,,,,,
,,,,,,,,,,,,,,,,,,,,,0.025,,,,,,,,,,Stimuli/psy_flexible_rotation_30_objects_occ0.7_0.9s/images/train/n02818832_3/n02933112_4/img_b05_ccm_contemporary_bed_max2013_buffet_2011_gray.jpg,n02818832_3,n02933112_4,flexible,0.741245,n02933112_4,Stimuli/psy_flexible_rotation_30_objects_occ0.7_0.9s/images/train/n02818832_3/n02933112_4/img_b05_ccm_contemporary_bed_max2013_buffet_2011-3_gray.png,foreground,same as foreground,n02818832_3,n02933112_4,Stimuli/canonical view 2/img_n02818832_3_gray.jpg,Stimuli/canonical view 2/img_n02933112_4_gray.jpg,foreground,left,Experiments/experiment_13/68.jpg,Experiments/experiment_13/69.jpg,Experiments/experiment_13/70.jpg,Experiments/experiment_13/71.jpg,269,1,2023-09-17_10h50.30.176,Occlusion_Psychophysics,2022.1.4,Win32,32,,,right,"[""left""]",[1.3330000000000268],False,,0.0,0.0,17.0,17.0,17.0,1.0,,,,,,
,,,,,,,,,,,,,,,,,,,,,0.05,,,,,,,,,,Stimuli/psy_flexible_rotation_30_objects_occ0.7_0.9s/images/train/n02828884_3/n04405907_8/img_b04_wood_metal_park_bench_stylized_tv_2002_gray.jpg,n02828884_3,n04405907_8,flexible,0.805676,n04405907_8,Stimuli/psy_flexible_rotation_30_objects_occ0.7_0.9s/images/train/n02828884_3/n04405907_8/img_b04_wood_metal_park_bench_stylized_tv_2002-3_gray.png,foreground,same as foreground,n02828884_3,n04256520_9,Stimuli/canonical view 2/img_n02828884_3_gray.jpg,Stimuli/canonical view 2/img_n04256520_9_gray.jpg,random,left,Experiments/experiment_13/72.jpg,Experiments/experiment_13/73.jpg,Experiments/experiment_13/74.jpg,Experiments/experiment_13/75.jpg,269,1,2023-09-17_10h50.30.176,Occlusion_Psychophysics,2022.1.4,Win32,32,,,left,"[""left""]",[1.641999999999996],False,,0.0,0.0,18.0,18.0,18.0,1.0,,,,,,
,,,,,,,,,,,,,,,,,,,,,0.025,,,,,,,,,,Stimuli/psy_flexible_rotation_30_objects_occ0.7_0.9s/images/train/n04256520_9/n04405907_8/img_napoleon_iii_sofa_stylized_tv_2011_gray.jpg,n04256520_9,n04405907_8,flexible,0.749397,n02818832_3,Stimuli/psy_fixed_rotation_30_objects_occ0.7_0.9s/images/train/n02828884_3/n02818832_3/img_b04_wood_metal_park_bench_b05_ccm_contemporary_bed_max2013_2003-3_gray.png,random,fixed,n04256520_9,n03001627_8,Stimuli/canonical view 2/img_n04256520_9_gray.jpg,Stimuli/canonical view 2/img_n03001627_8_gray.jpg,random,left,Experiments/experiment_13/76.jpg,Experiments/experiment_13/77.jpg,Experiments/experiment_13/78.jpg,Experiments/experiment_13/79.jpg,269,1,2023-09-17_10h50.30.176,Occlusion_Psychophysics,2022.1.4,Win32,32,,,right,"[""left""]",[1.8629999999999995],False,,0.0,0.0,19.0,19.0,19.0,1.0,,,,,,
,,,,,,,,,,,,,,,,,,,,,0.05,,,,,,,,,,Stimuli/psy_flexible_rotation_30_objects_occ0.7_0.9s/images/train/n04405907_8/n02818832_9/img_stylized_tv_bed01_blue_2013_gray.jpg,n04405907_8,n02818832_9,flexible,0.770677,n04256520_5,Stimuli/psy_flexible_rotation_30_objects_occ0.7_0.9s/images/train/n02883344_0/n04256520_5/img_b03_box_meridiani_belmondo_bench_sofa_2012-3_gray.png,random,flexible,n04405907_8,n04256520_9,Stimuli/canonical view 2/img_n04405907_8_gray.jpg,Stimuli/canonical view 2/img_n04256520_9_gray.jpg,random,right,Experiments/experiment_13/80.jpg,Experiments/experiment_13/81.jpg,Experiments/experiment_13/82.jpg,Experiments/experiment_13/83.jpg,269,1,2023-09-17_10h50.30.176,Occlusion_Psychophysics,2022.1.4,Win32,32,,,left,"[""right""]",[0.9230000000000018],False,,0.0,0.0,20.0,20.0,20.0,1.0,,,,,,
,,,,,,,,,,,,,,,,,,,,,0.025,,,,,,,,,,Stimuli/psy_flexible_rotation_30_objects_occ0.7_0.9s/images/train/n04256520_5/n02933112_4/img_meridiani_belmondo_bench_sofa_buffet_2014_gray.jpg,n04256520_5,n02933112_4,flexible,0.770967,n04256520_4,Stimuli/psy_flexible_rotation_30_objects_occ0.7_0.9s/images/train/n02933112_4/n04256520_4/img_buffet_club_house_italia_nautilus_sofa_2015-3_gray.png,random,flexible,n04256520_5,n02933112_4,Stimuli/canonical view 2/img_n04256520_5_gray.jpg,Stimuli/canonical view 2/img_n02933112_4_gray.jpg,foreground,left,Experiments/experiment_13/84.jpg,Experiments/experiment_13/85.jpg,Experiments/experiment_13/86.jpg,Experiments/experiment_13/87.jpg,269,1,2023-09-17_10h50.30.176,Occlusion_Psychophysics,2022.1.4,Win32,32,,,right,"[""right""]",[1.197999999999979],False,,0.0,0.0,21.0,21.0,21.0,1.0,,,,,,
,,,,,,,,,,,,,,,,,,,,,0.025,,,,,,,,,,Stimuli/psy_flexible_rotation_30_objects_occ0.7_0.9s/images/train/n02883344_0/n04379243_0/img_b03_box_17th_c._monastery_dining_table_2010_2006_gray.jpg,n02883344_0,n04379243_0,flexible,0.771007,n04379243_0,Stimuli/psy_flexible_rotation_30_objects_occ0.7_0.9s/images/train/n02883344_0/n04379243_0/img_b03_box_17th_c._monastery_dining_table_2010_2006-3_gray.png,foreground,same as foreground,n02883344_0,n02883344_-1,Stimuli/canonical view 2/img_n02883344_0_gray.jpg,Stimuli/canonical view 2/img_n02883344_-1_gray.jpg,random,left,Experiments/experiment_13/88.jpg,Experiments/experiment_13/89.jpg,Experiments/experiment_13/90.jpg,Experiments/experiment_13/91.jpg,269,1,2023-09-17_10h50.30.176,Occlusion_Psychophysics,2022.1.4,Win32,32,,,left,"[""left""]",[1.4809999999999945],False,,0.0,0.0,22.0,22.0,22.0,1.0,,,,,,
,,,,,,,,,,,,,,,,,,,,,0.025,,,,,,,,,,Stimuli/psy_flexible_rotation_30_objects_occ0.7_0.9s/images/train/n03001627_9/n03928116_0/img_chair_eames_plastic_armchair_b02_piano_2010_gray.jpg,n03001627_9,n03928116_0,flexible,0.884839,n03928116_0,Stimuli/psy_flexible_rotation_30_objects_occ0.7_0.9s/images/train/n03001627_9/n03928116_0/img_chair_eames_plastic_armchair_b02_piano_2010-3_gray.png,foreground,same as foreground,n03001627_9,n03928116_0,Stimuli/canonical view 2/img_n03001627_9_gray.jpg,Stimuli/canonical view 2/img_n03928116_0_gray.jpg,foreground,left,Experiments/experiment_13/92.jpg,Experiments/experiment_13/93.jpg,Experiments/experiment_13/94.jpg,Experiments/experiment_13/95.jpg,269,1,2023-09-17_10h50.30.176,Occlusion_Psychophysics,2022.1.4,Win32,32,,,left,"[""right""]",[1.7339999999999804],False,,0.0,0.0,23.0,23.0,23.0,1.0,,,,,,
,,,,,,,,,,,,,,,,,,,,,0.025,,,,,,,,,,Stimuli/psy_flexible_rotation_30_objects_occ0.7_0.9s/images/train/n04405907_5/n02883344_0/img_samsung_40_uhd_smart_tv_2011_b03_box_2002_gray.jpg,n04405907_5,n02883344_0,flexible,0.883414,n04405907_8,Stimuli/psy_flexible_rotation_30_objects_occ0.7_0.9s/images/train/n02828884_4/n04405907_8/img_b05_c-5_classic_series_bench-2012_stylized_tv_2012-3_gray.png,random,flexible,n04405907_5,n03928116_10,Stimuli/canonical view 2/img_n04405907_5_gray.jpg,Stimuli/canonical view 2/img_n03928116_10_gray.jpg,random,left,Experiments/experiment_13/96.jpg,Experiments/experiment_13/97.jpg,Experiments/experiment_13/98.jpg,Experiments/experiment_13/99.jpg,269,1,2023-09-17_10h50.30.176,Occlusion_Psychophysics,2022.1.4,Win32,32,,,right,"[""right""]",[1.1359999999999673],False,,0.0,0.0,24.0,24.0,24.0,1.0,,,,,,
,,,,,,,,,,,,,,,,,,,,,0.05,,,,,,,,,,Stimuli/psy_flexible_rotation_30_objects_occ0.7_0.9s/images/train/n02883344_15/n02883344_-1/img_microwave_box_woven_box_2004_gray.jpg,n02883344_15,n02883344_-1,flexible,0.746312,n04379243_0,Stimuli/psy_fixed_rotation_30_objects_occ0.7_0.9s/images/train/n02933112_-2/n04379243_0/img_sink_base_white_wood_17th_c._monastery_dining_table_2010_2008-3_gray.png,random,fixed,n02883344_15,n02883344_-1,Stimuli/canonical view 2/img_n02883344_15_gray.jpg,Stimuli/canonical view 2/img_n02883344_-1_gray.jpg,foreground,left,Experiments/experiment_13/100.jpg,Experiments/experiment_13/101.jpg,Experiments/experiment_13/102.jpg,Experiments/experiment_13/103.jpg,269,1,2023-09-17_10h50.30.176,Occlusion_Psychophysics,2022.1.4,Win32,32,,,right,"[""left""]",[1.2439999999999714],False,,0.0,0.0,25.0,25.0,25.0,1.0,,,,,,
,,,,,,,,,,,,,,,,,,,,,0.05,,,,,,,,,,Stimuli/psy_flexible_rotation_30_objects_occ0.7_0.9s/images/train/n02818832_0/n04379243_0/img_b03_the_sofa_and_chair_company_-_stanley_bed_2014_17th_c._monastery_dining_table_2010_2007_gray.jpg,n02818832_0,n04379243_0,flexible,0.836015,n04379243_0,Stimuli/psy_flexible_rotation_30_objects_occ0.7_0.9s/images/train/n02818832_0/n04379243_0/img_b03_the_sofa_and_chair_company_-_stanley_bed_2014_17th_c._monastery_dining_table_2010_2007-3_gray.png,foreground,same as foreground,n02818832_0,n04379243_0,Stimuli/canonical view 2/img_n02818832_0_gray.jpg,Stimuli/canonical view 2/img_n04379243_0_gray.jpg,foreground,left,Experiments/experiment_13/104.jpg,Experiments/experiment_13/105.jpg,Experiments/experiment_13/106.jpg,Experiments/experiment_13/107.jpg,269,1,2023-09-17_10h50.30.176,Occlusion_Psychophysics,2022.1.4,Win32,32,,,right,"[""left""]",[1.3629999999999995],False,,0.0,0.0,26.0,26.0,26.0,1.0,,,,,,
,,,,,,,,,,,,,,,,,,,,,0.05,,,,,,,,,,Stimuli/psy_fixed_rotation_30_objects_occ0.7_0.9s/images/train/n04405907_8/n03928116_10/img_stylized_tv_ydp_103_r_2012__vray_2008_gray.jpg,n04405907_8,n03928116_10,fixed,0.741808,n03928116_10,Stimuli/psy_fixed_rotation_30_objects_occ0.7_0.9s/images/train/n04405907_8/n03928116_10/img_stylized_tv_ydp_103_r_2012__vray_2008-3_gray.png,foreground,same as foreground,n04405907_8,n03928116_10,Stimuli/canonical view 2/img_n04405907_8_gray.jpg,Stimuli/canonical view 2/img_n03928116_10_gray.jpg,foreground,right,Experiments/experiment_13/108.jpg,Experiments/experiment_13/109.jpg,Experiments/experiment_13/110.jpg,Experiments/experiment_13/111.jpg,269,1,2023-09-17_10h50.30.176,Occlusion_Psychophysics,2022.1.4,Win32,32,,,right,"[""left""]",[1.5440000000000396],False,,0.0,0.0,27.0,27.0,27.0,1.0,,,,,,
,,,,,,,,,,,,,,,,,,,,,0.05,,,,,,,,,,Stimuli/psy_fixed_rotation_30_objects_occ0.7_0.9s/images/train/n02818832_3/n04405907_9/img_b05_ccm_contemporary_bed_max2013_vray_004_2002_gray.jpg,n02818832_3,n04405907_9,fixed,0.721593,n02818832_3,Stimuli/psy_fixed_rotation_30_objects_occ0.7_0.9s/images/train/n04256520_9/n02818832_3/img_napoleon_iii_sofa_b05_ccm_contemporary_bed_max2013_2015-3_gray.png,random,fixed,n02818832_3,n03001627_8,Stimuli/canonical view 2/img_n02818832_3_gray.jpg,Stimuli/canonical view 2/img_n03001627_8_gray.jpg,random,left,Experiments/experiment_13/112.jpg,Experiments/experiment_13/113.jpg,Experiments/experiment_13/114.jpg,Experiments/experiment_13/115.jpg,269,1,2023-09-17_10h50.30.176,Occlusion_Psychophysics,2022.1.4,Win32,32,,,left,,,False,,0.0,0.0,28.0,28.0,28.0,1.0,,,,,,
,,,,,,,,,,,,,,,,,,,,,0.025,,,,,,,,,,Stimuli/psy_flexible_rotation_30_objects_occ0.7_0.9s/images/train/n02883344_-1/n02883344_15/img_woven_box_microwave_box_2002_gray.jpg,n02883344_-1,n02883344_15,flexible,0.843791,n02883344_15,Stimuli/psy_flexible_rotation_30_objects_occ0.7_0.9s/images/train/n02883344_-1/n02883344_15/img_woven_box_microwave_box_2002-3_gray.png,foreground,same as foreground,n02883344_-1,n02883344_15,Stimuli/canonical view 2/img_n02883344_-1_gray.jpg,Stimuli/canonical view 2/img_n02883344_15_gray.jpg,foreground,left,Experiments/experiment_13/116.jpg,Experiments/experiment_13/117.jpg,Experiments/experiment_13/118.jpg,Experiments/experiment_13/119.jpg,269,1,2023-09-17_10h50.30.176,Occlusion_Psychophysics,2022.1.4,Win32,32,,,right,"[""right""]",[1.336999999999989],False,,0.0,0.0,29.0,29.0,29.0,1.0,,,,,,
,,,,,,,,,,,,,,,,,,,,,0.05,,,,,,,,,,Stimuli/psy_flexible_rotation_30_objects_occ0.7_0.9s/images/train/n04405907_9/n04379243_8/img_vray_004_glass_table_2014_gray.jpg,n04405907_9,n04379243_8,flexible,0.720768,n02818832_0,Stimuli/psy_fixed_rotation_30_objects_occ0.7_0.9s/images/train/n04379243_8/n02818832_0/img_glass_table_b03_the_sofa_and_chair_company_-_stanley_bed_2014_2007-3_gray.png,random,fixed,n04405907_9,n04379243_8,Stimuli/canonical view 2/img_n04405907_9_gray.jpg,Stimuli/canonical view 2/img_n04379243_8_gray.jpg,foreground,left,Experiments/experiment_13/120.jpg,Experiments/experiment_13/121.jpg,Experiments/experiment_13/122.jpg,Experiments/experiment_13/123.jpg,269,1,2023-09-17_10h50.30.176,Occlusion_Psychophysics,2022.1.4,Win32,32,,,right,"[""right""]",[0.8240000000000123],False,,0.0,0.0,30.0,30.0,30.0,1.0,,,,,,
,,,,,,,,,,,,,,,,,,,,,0.025,,,,,,,,,,Stimuli/psy_fixed_rotation_30_objects_occ0.7_0.9s/images/train/n02818832_9/n02818832_0/img_bed01_blue_b03_the_sofa_and_chair_company_-_stanley_bed_2014_2013_gray.jpg,n02818832_9,n02818832_0,fixed,0.70727,n02883344_-1,Stimuli/psy_fixed_rotation_30_objects_occ0.7_0.9s/images/train/n04379243_0/n02883344_-1/img_17th_c._monastery_dining_table_2010_woven_box_2002-3_gray.png,random,fixed,n02818832_9,n02933112_-18,Stimuli/canonical view 2/img_n02818832_9_gray.jpg,Stimuli/canonical view 2/img_n02933112_-18_gray.jpg,random,left,Experiments/experiment_13/124.jpg,Experiments/experiment_13/125.jpg,Experiments/experiment_13/126.jpg,Experiments/experiment_13/127.jpg,269,1,2023-09-17_10h50.30.176,Occlusion_Psychophysics,2022.1.4,Win32,32,,,right,"[""right""]",[1.858000000000004],False,,0.0,0.0,31.0,31.0,31.0,1.0,,,,,,
,,,,,,,,,,,,,,,,,,,,,0.05,,,,,,,,,,Stimuli/psy_fixed_rotation_30_objects_occ0.7_0.9s/images/train/n02933112_-2/n04256520_4/img_sink_base_white_wood_club_house_italia_nautilus_sofa_2015_gray.jpg,n02933112_-2,n04256520_4,fixed,0.713786,n04256520_4,Stimuli/psy_fixed_rotation_30_objects_occ0.7_0.9s/images/train/n02933112_-2/n04256520_4/img_sink_base_white_wood_club_house_italia_nautilus_sofa_2015-3_gray.png,foreground,same as foreground,n02933112_-2,n04256520_4,Stimuli/canonical view 2/img_n02933112_-2_gray.jpg,Stimuli/canonical view 2/img_n04256520_4_gray.jpg,foreground,left,Experiments/experiment_13/128.jpg,Experiments/experiment_13/129.jpg,Experiments/experiment_13/130.jpg,Experiments/experiment_13/131.jpg,269,1,2023-09-17_10h50.30.176,Occlusion_Psychophysics,2022.1.4,Win32,32,,,right,"[""right""]",[0.8249999999999886],False,,0.0,0.0,32.0,32.0,32.0,1.0,,,,,,
,,,,,,,,,,,,,,,,,,,,,0.025,,,,,,,,,,Stimuli/psy_flexible_rotation_30_objects_occ0.7_0.9s/images/train/n04405907_9/n04256520_4/img_vray_004_club_house_italia_nautilus_sofa_2008_gray.jpg,n04405907_9,n04256520_4,flexible,0.771991,n04256520_4,Stimuli/psy_flexible_rotation_30_objects_occ0.7_0.9s/images/train/n04405907_9/n04256520_4/img_vray_004_club_house_italia_nautilus_sofa_2008-3_gray.png,foreground,same as foreground,n04405907_9,n04379243_-7,Stimuli/canonical view 2/img_n04405907_9_gray.jpg,Stimuli/canonical view 2/img_n04379243_-7_gray.jpg,random,left,Experiments/experiment_13/132.jpg,Experiments/experiment_13/133.jpg,Experiments/experiment_13/134.jpg,Experiments/experiment_13/135.jpg,269,1,2023-09-17_10h50.30.176,Occlusion_Psychophysics,2022.1.4,Win32,32,,,right,"[""right""]",[1.025000000000034],False,,0.0,0.0,33.0,33.0,33.0,1.0,,,,,,
,,,,,,,,,,,,,,,,,,,,,0.025,,,,,,,,,,Stimuli/psy_fixed_rotation_30_objects_occ0.7_0.9s/images/train/n03001627_9/n04405907_8/img_chair_eames_plastic_armchair_stylized_tv_2006_gray.jpg,n03001627_9,n04405907_8,fixed,0.777699,n04405907_8,Stimuli/psy_fixed_rotation_30_objects_occ0.7_0.9s/images/train/n03001627_9/n04405907_8/img_chair_eames_plastic_armchair_stylized_tv_2006-3_gray.png,foreground,same as foreground,n03001627_9,n03001627_8,Stimuli/canonical view 2/img_n03001627_9_gray.jpg,Stimuli/canonical view 2/img_n03001627_8_gray.jpg,random,right,Experiments/experiment_13/136.jpg,Experiments/experiment_13/137.jpg,Experiments/experiment_13/138.jpg,Experiments/experiment_13/139.jpg,269,1,2023-09-17_10h50.30.176,Occlusion_Psychophysics,2022.1.4,Win32,32,,,right,"[""right""]",[1.1689999999999827],False,,0.0,0.0,34.0,34.0,34.0,1.0,,,,,,
,,,,,,,,,,,,,,,,,,,,,0.025,,,,,,,,,,Stimuli/psy_flexible_rotation_30_objects_occ0.7_0.9s/images/train/n03001627_-2/n04405907_8/img_wood_chair_stylized_tv_2015_gray.jpg,n03001627_-2,n04405907_8,flexible,0.714748,n04405907_8,Stimuli/psy_flexible_rotation_30_objects_occ0.7_0.9s/images/train/n03001627_-2/n04405907_8/img_wood_chair_stylized_tv_2015-3_gray.png,foreground,same as foreground,n03001627_-2,n04405907_8,Stimuli/canonical view 2/img_n03001627_-2_gray.jpg,Stimuli/canonical view 2/img_n04405907_8_gray.jpg,foreground,left,Experiments/experiment_13/140.jpg,Experiments/experiment_13/141.jpg,Experiments/experiment_13/142.jpg,Experiments/experiment_13/143.jpg,269,1,2023-09-17_10h50.30.176,Occlusion_Psychophysics,2022.1.4,Win32,32,,,left,"[""left""]",[0.9009999999999536],False,,0.0,0.0,35.0,35.0,35.0,1.0,,,,,,
,,,,,,,,,,,,,,,,,,,,,0.025,,,,,,,,,,Stimuli/psy_flexible_rotation_30_objects_occ0.7_0.9s/images/train/n02818832_0/n02818832_3/img_b03_the_sofa_and_chair_company_-_stanley_bed_2014_b05_ccm_contemporary_bed_max2013_2011_gray.jpg,n02818832_0,n02818832_3,flexible,0.863443,n02883344_15,Stimuli/psy_flexible_rotation_30_objects_occ0.7_0.9s/images/train/n04379243_8/n02883344_15/img_glass_table_microwave_box_2014-3_gray.png,random,flexible,n02818832_0,n03928116_4,Stimuli/canonical view 2/img_n02818832_0_gray.jpg,Stimuli/canonical view 2/img_n03928116_4_gray.jpg,random,left,Experiments/experiment_13/144.jpg,Experiments/experiment_13/145.jpg,Experiments/experiment_13/146.jpg,Experiments/experiment_13/147.jpg,269,1,2023-09-17_10h50.30.176,Occlusion_Psychophysics,2022.1.4,Win32,32,,,left,"[""left""]",[1.0830000000000268],False,,0.0,0.0,36.0,36.0,36.0,1.0,,,,,,
,,,,,,,,,,,,,,,,,,,,,0.025,,,,,,,,,,Stimuli/psy_flexible_rotation_30_objects_occ0.7_0.9s/images/train/n04256520_9/n02933112_-2/img_napoleon_iii_sofa_sink_base_white_wood_2004_gray.jpg,n04256520_9,n02933112_-2,flexible,0.749679,n02933112_-2,Stimuli/psy_flexible_rotation_30_objects_occ0.7_0.9s/images/train/n04256520_9/n02933112_-2/img_napoleon_iii_sofa_sink_base_white_wood_2004-3_gray.png,foreground,same as foreground,n04256520_9,n02828884_4,Stimuli/canonical view 2/img_n04256520_9_gray.jpg,Stimuli/canonical view 2/img_n02828884_4_gray.jpg,random,left,Experiments/experiment_13/148.jpg,Experiments/experiment_13/149.jpg,Experiments/experiment_13/150.jpg,Experiments/experiment_13/151.jpg,269,1,2023-09-17_10h50.30.176,Occlusion_Psychophysics,2022.1.4,Win32,32,,,right,"[""right""]",[1.0470000000000255],False,,0.0,0.0,37.0,37.0,37.0,1.0,,,,,,
,,,,,,,,,,,,,,,,,,,,,0.025,,,,,,,,,,Stimuli/psy_fixed_rotation_30_objects_occ0.7_0.9s/images/train/n04256520_4/n02828884_4/img_club_house_italia_nautilus_sofa_b05_c-5_classic_series_bench-2012_2004_gray.jpg,n04256520_4,n02828884_4,fixed,0.805503,n02828884_4,Stimuli/psy_fixed_rotation_30_objects_occ0.7_0.9s/images/train/n04256520_4/n02828884_4/img_club_house_italia_nautilus_sofa_b05_c-5_classic_series_bench-2012_2004-3_gray.png,foreground,same as foreground,n04256520_4,n02883344_-1,Stimuli/canonical view 2/img_n04256520_4_gray.jpg,Stimuli/canonical view 2/img_n02883344_-1_gray.jpg,random,left,Experiments/experiment_13/152.jpg,Experiments/experiment_13/153.jpg,Experiments/experiment_13/154.jpg,Experiments/experiment_13/155.jpg,269,1,2023-09-17_10h50.30.176,Occlusion_Psychophysics,2022.1.4,Win32,32,,,right,"[""right""]",[1.7080000000000268],False,,0.0,0.0,38.0,38.0,38.0,1.0,,,,,,
,,,,,,,,,,,,,,,,,,,,,0.025,,,,,,,,,,Stimuli/psy_fixed_rotation_30_objects_occ0.7_0.9s/images/train/n04379243_-7/n04256520_9/img_quatre_dining_table_napoleon_iii_sofa_2010_gray.jpg,n04379243_-7,n04256520_9,fixed,0.704813,n02883344_15,Stimuli/psy_flexible_rotation_30_objects_occ0.7_0.9s/images/train/n02933112_-2/n02883344_15/img_sink_base_white_wood_microwave_box_2007-3_gray.png,random,flexible,n04379243_-7,n04256520_9,Stimuli/canonical view 2/img_n04379243_-7_gray.jpg,Stimuli/canonical view 2/img_n04256520_9_gray.jpg,foreground,left,Experiments/experiment_13/156.jpg,Experiments/experiment_13/157.jpg,Experiments/experiment_13/158.jpg,Experiments/experiment_13/159.jpg,269,1,2023-09-17_10h50.30.176,Occlusion_Psychophysics,2022.1.4,Win32,32,,,right,"[""left""]",[1.1809999999999832],False,,0.0,0.0,39.0,39.0,39.0,1.0,,,,,,
,,,,,,,,,,,,,,,,,,,,,0.025,,,,,,,,,,Stimuli/psy_fixed_rotation_30_objects_occ0.7_0.9s/images/train/n04405907_9/n04405907_8/img_vray_004_stylized_tv_2007_gray.jpg,n04405907_9,n04405907_8,fixed,0.730211,n04405907_8,Stimuli/psy_fixed_rotation_30_objects_occ0.7_0.9s/images/train/n04405907_9/n04405907_8/img_vray_004_stylized_tv_2007-3_gray.png,foreground,same as foreground,n04405907_9,n04405907_8,Stimuli/canonical view 2/img_n04405907_9_gray.jpg,Stimuli/canonical view 2/img_n04405907_8_gray.jpg,foreground,right,Experiments/experiment_13/160.jpg,Experiments/experiment_13/161.jpg,Experiments/experiment_13/162.jpg,Experiments/experiment_13/163.jpg,269,1,2023-09-17_10h50.30.176,Occlusion_Psychophysics,2022.1.4,Win32,32,,,left,"[""left""]",[0.8010000000000446],False,,0.0,0.0,40.0,40.0,40.0,1.0,,,,,,
,,,,,,,,,,,,,,,,,,,,,0.05,,,,,,,,,,Stimuli/psy_fixed_rotation_30_objects_occ0.7_0.9s/images/train/n02818832_0/n02818832_3/img_b03_the_sofa_and_chair_company_-_stanley_bed_2014_b05_ccm_contemporary_bed_max2013_2006_gray.jpg,n02818832_0,n02818832_3,fixed,0.842211,n02818832_3,Stimuli/psy_fixed_rotation_30_objects_occ0.7_0.9s/images/train/n02818832_0/n02818832_3/img_b03_the_sofa_and_chair_company_-_stanley_bed_2014_b05_ccm_contemporary_bed_max2013_2006-3_gray.png,foreground,same as foreground,n02818832_0,n02818832_3,Stimuli/canonical view 2/img_n02818832_0_gray.jpg,Stimuli/canonical view 2/img_n02818832_3_gray.jpg,foreground,right,Experiments/experiment_13/164.jpg,Experiments/experiment_13/165.jpg,Experiments/experiment_13/166.jpg,Experiments/experiment_13/167.jpg,269,1,2023-09-17_10h50.30.176,Occlusion_Psychophysics,2022.1.4,Win32,32,,,right,"[""left""]",[1.2379999999999995],False,,0.0,0.0,41.0,41.0,41.0,1.0,,,,,,
,,,,,,,,,,,,,,,,,,,,,0.025,,,,,,,,,,Stimuli/psy_fixed_rotation_30_objects_occ0.7_0.9s/images/train/n02818832_9/n04379243_-7/img_bed01_blue_quatre_dining_table_2010_gray.jpg,n02818832_9,n04379243_-7,fixed,0.735886,n04379243_8,Stimuli/psy_fixed_rotation_30_objects_occ0.7_0.9s/images/train/n04256520_5/n04379243_8/img_meridiani_belmondo_bench_sofa_glass_table_2011-3_gray.png,random,fixed,n02818832_9,n04379243_-7,Stimuli/canonical view 2/img_n02818832_9_gray.jpg,Stimuli/canonical view 2/img_n04379243_-7_gray.jpg,foreground,right,Experiments/experiment_13/168.jpg,Experiments/experiment_13/169.jpg,Experiments/experiment_13/170.jpg,Experiments/experiment_13/171.jpg,269,1,2023-09-17_10h50.30.176,Occlusion_Psychophysics,2022.1.4,Win32,32,,,right,"[""right""]",[0.952000000000055],False,,0.0,0.0,42.0,42.0,42.0,1.0,,,,,,
,,,,,,,,,,,,,,,,,,,,,0.05,,,,,,,,,,Stimuli/psy_flexible_rotation_30_objects_occ0.7_0.9s/images/train/n02818832_3/n04379243_0/img_b05_ccm_contemporary_bed_max2013_17th_c._monastery_dining_table_2010_2001_gray.jpg,n02818832_3,n04379243_0,flexible,0.708468,n04379243_0,Stimuli/psy_flexible_rotation_30_objects_occ0.7_0.9s/images/train/n02818832_3/n04379243_0/img_b05_ccm_contemporary_bed_max2013_17th_c._monastery_dining_table_2010_2001-3_gray.png,foreground,same as foreground,n02818832_3,n02933112_-2,Stimuli/canonical view 2/img_n02818832_3_gray.jpg,Stimuli/canonical view 2/img_n02933112_-2_gray.jpg,random,right,Experiments/experiment_13/172.jpg,Experiments/experiment_13/173.jpg,Experiments/experiment_13/174.jpg,Experiments/experiment_13/175.jpg,269,1,2023-09-17_10h50.30.176,Occlusion_Psychophysics,2022.1.4,Win32,32,,,right,"[""right""]",[1.0170000000000528],False,,0.0,0.0,43.0,43.0,43.0,1.0,,,,,,
,,,,,,,,,,,,,,,,,,,,,0.05,,,,,,,,,,Stimuli/psy_flexible_rotation_30_objects_occ0.7_0.9s/images/train/n03001627_9/n04256520_9/img_chair_eames_plastic_armchair_napoleon_iii_sofa_2005_gray.jpg,n03001627_9,n04256520_9,flexible,0.758808,n02828884_3,Stimuli/psy_flexible_rotation_30_objects_occ0.7_0.9s/images/train/n03928116_10/n02828884_3/img_ydp_103_r_2012__vray_b04_wood_metal_park_bench_2002-3_gray.png,random,flexible,n03001627_9,n03928116_0,Stimuli/canonical view 2/img_n03001627_9_gray.jpg,Stimuli/canonical view 2/img_n03928116_0_gray.jpg,random,right,Experiments/experiment_13/176.jpg,Experiments/experiment_13/177.jpg,Experiments/experiment_13/178.jpg,Experiments/experiment_13/179.jpg,269,1,2023-09-17_10h50.30.176,Occlusion_Psychophysics,2022.1.4,Win32,32,,,left,"[""right""]",[2.86099999999999],False,,0.0,0.0,44.0,44.0,44.0,1.0,,,,,,
,,,,,,,,,,,,,,,,,,,,,0.025,,,,,,,,,,Stimuli/psy_flexible_rotation_30_objects_occ0.7_0.9s/images/train/n04379243_-7/n04405907_8/img_quatre_dining_table_stylized_tv_2007_gray.jpg,n04379243_-7,n04405907_8,flexible,0.848638,n04405907_8,Stimuli/psy_flexible_rotation_30_objects_occ0.7_0.9s/images/train/n04379243_-7/n04405907_8/img_quatre_dining_table_stylized_tv_2007-3_gray.png,foreground,same as foreground,n04379243_-7,n04405907_8,Stimuli/canonical view 2/img_n04379243_-7_gray.jpg,Stimuli/canonical view 2/img_n04405907_8_gray.jpg,foreground,right,Experiments/experiment_13/180.jpg,Experiments/experiment_13/181.jpg,Experiments/experiment_13/182.jpg,Experiments/experiment_13/183.jpg,269,1,2023-09-17_10h50.30.176,Occlusion_Psychophysics,2022.1.4,Win32,32,,,left,"[""left""]",[1.0559999999999832],False,,0.0,0.0,45.0,45.0,45.0,1.0,,,,,,
,,,,,,,,,,,,,,,,,,,,,0.025,,,,,,,,,,Stimuli/psy_flexible_rotation_30_objects_occ0.7_0.9s/images/train/n02818832_0/n02818832_3/img_b03_the_sofa_and_chair_company_-_stanley_bed_2014_b05_ccm_contemporary_bed_max2013_2007_gray.jpg,n02818832_0,n02818832_3,flexible,0.822619,n02818832_3,Stimuli/psy_flexible_rotation_30_objects_occ0.7_0.9s/images/train/n02818832_0/n02818832_3/img_b03_the_sofa_and_chair_company_-_stanley_bed_2014_b05_ccm_contemporary_bed_max2013_2007-3_gray.png,foreground,same as foreground,n02818832_0,n03001627_-2,Stimuli/canonical view 2/img_n02818832_0_gray.jpg,Stimuli/canonical view 2/img_n03001627_-2_gray.jpg,random,left,Experiments/experiment_13/184.jpg,Experiments/experiment_13/185.jpg,Experiments/experiment_13/186.jpg,Experiments/experiment_13/187.jpg,269,1,2023-09-17_10h50.30.176,Occlusion_Psychophysics,2022.1.4,Win32,32,,,left,"[""left""]",[1.2980000000000018],False,,0.0,0.0,46.0,46.0,46.0,1.0,,,,,,
,,,,,,,,,,,,,,,,,,,,,0.05,,,,,,,,,,Stimuli/psy_fixed_rotation_30_objects_occ0.7_0.9s/images/train/n02933112_-18/n04405907_9/img_cgaxis_models_48_26_vray_composite_vray_004_2009_gray.jpg,n02933112_-18,n04405907_9,fixed,0.702499,n04405907_9,Stimuli/psy_fixed_rotation_30_objects_occ0.7_0.9s/images/train/n02933112_-18/n04405907_9/img_cgaxis_models_48_26_vray_composite_vray_004_2009-3_gray.png,foreground,same as foreground,n02933112_-18,n04405907_9,Stimuli/canonical view 2/img_n02933112_-18_gray.jpg,Stimuli/canonical view 2/img_n04405907_9_gray.jpg,foreground,left,Experiments/experiment_13/188.jpg,Experiments/experiment_13/189.jpg,Experiments/experiment_13/190.jpg,Experiments/experiment_13/191.jpg,269,1,2023-09-17_10h50.30.176,Occlusion_Psychophysics,2022.1.4,Win32,32,,,left,"[""left""]",[1.8100000000000023],False,,0.0,0.0,47.0,47.0,47.0,1.0,,,,,,
,,,,,,,,,,,,,,,,,,,,,0.025,,,,,,,,,,Stimuli/psy_flexible_rotation_30_objects_occ0.7_0.9s/images/train/n04405907_9/n02933112_4/img_vray_004_buffet_2002_gray.jpg,n04405907_9,n02933112_4,flexible,0.77459,n02933112_4,Stimuli/psy_flexible_rotation_30_objects_occ0.7_0.9s/images/train/n04405907_9/n02933112_4/img_vray_004_buffet_2002-3_gray.png,foreground,same as foreground,n04405907_9,n02933112_4,Stimuli/canonical view 2/img_n04405907_9_gray.jpg,Stimuli/canonical view 2/img_n02933112_4_gray.jpg,foreground,right,Experiments/experiment_13/192.jpg,Experiments/experiment_13/193.jpg,Experiments/experiment_13/194.jpg,Experiments/experiment_13/195.jpg,269,1,2023-09-17_10h50.30.176,Occlusion_Psychophysics,2022.1.4,Win32,32,,,left,"[""left""]",[0.9490000000000123],False,,0.0,0.0,48.0,48.0,48.0,1.0,,,,,,
,,,,,,,,,,,,,,,,,,,,,0.05,,,,,,,,,,Stimuli/psy_fixed_rotation_30_objects_occ0.7_0.9s/images/train/n02933112_4/n04405907_8/img_buffet_stylized_tv_2008_gray.jpg,n02933112_4,n04405907_8,fixed,0.746801,n04405907_8,Stimuli/psy_fixed_rotation_30_objects_occ0.7_0.9s/images/train/n02933112_4/n04405907_8/img_buffet_stylized_tv_2008-3_gray.png,foreground,same as foreground,n02933112_4,n04405907_8,Stimuli/canonical view 2/img_n02933112_4_gray.jpg,Stimuli/canonical view 2/img_n04405907_8_gray.jpg,foreground,left,Experiments/experiment_13/196.jpg,Experiments/experiment_13/197.jpg,Experiments/experiment_13/198.jpg,Experiments/experiment_13/199.jpg,269,1,2023-09-17_10h50.30.176,Occlusion_Psychophysics,2022.1.4,Win32,32,,,right,"[""right""]",[1.01400000000001],False,,0.0,0.0,49.0,49.0,49.0,1.0,,,,,,
,,,,,,,,,,,,,,,,,,,,,0.025,,,,,,,,,,Stimuli/psy_fixed_rotation_30_objects_occ0.7_0.9s/images/train/n04405907_8/n02933112_-2/img_stylized_tv_sink_base_white_wood_2005_gray.jpg,n04405907_8,n02933112_-2,fixed,0.836084,n02883344_-1,Stimuli/psy_flexible_rotation_30_objects_occ0.7_0.9s/images/train/n04379243_8/n02883344_-1/img_glass_table_woven_box_2009-3_gray.png,random,flexible,n04405907_8,n02828884_4,Stimuli/canonical view 2/img_n04405907_8_gray.jpg,Stimuli/canonical view 2/img_n02828884_4_gray.jpg,random,right,Experiments/experiment_13/200.jpg,Experiments/experiment_13/201.jpg,Experiments/experiment_13/202.jpg,Experiments/experiment_13/203.jpg,269,1,2023-09-17_10h50.30.176,Occlusion_Psychophysics,2022.1.4,Win32,32,,,right,"[""right""]",[1.0780000000000314],False,,0.0,0.0,50.0,50.0,50.0,1.0,,,,,,
,,,,,,,,,,,,,,,,,,,,,0.025,,,,,,,,,,Stimuli/psy_fixed_rotation_30_objects_occ0.7_0.9s/images/train/n04379243_-7/n04405907_9/img_quatre_dining_table_vray_004_2012_gray.jpg,n04379243_-7,n04405907_9,fixed,0.801959,n04405907_9,Stimuli/psy_fixed_rotation_30_objects_occ0.7_0.9s/images/train/n04379243_-7/n04405907_9/img_quatre_dining_table_vray_004_2012-3_gray.png,foreground,same as foreground,n04379243_-7,n04405907_8,Stimuli/canonical view 2/img_n04379243_-7_gray.jpg,Stimuli/canonical view 2/img_n04405907_8_gray.jpg,random,left,Experiments/experiment_13/204.jpg,Experiments/experiment_13/205.jpg,Experiments/experiment_13/206.jpg,Experiments/experiment_13/207.jpg,269,1,2023-09-17_10h50.30.176,Occlusion_Psychophysics,2022.1.4,Win32,32,,,right,"[""right""]",[1.0219999999999914],False,,0.0,0.0,51.0,51.0,51.0,1.0,,,,,,
,,,,,,,,,,,,,,,,,,,,,0.05,,,,,,,,,,Stimuli/psy_flexible_rotation_30_objects_occ0.7_0.9s/images/train/n04405907_5/n04256520_4/img_samsung_40_uhd_smart_tv_2011_club_house_italia_nautilus_sofa_2015_gray.jpg,n04405907_5,n04256520_4,flexible,0.730717,n04256520_4,Stimuli/psy_flexible_rotation_30_objects_occ0.7_0.9s/images/train/n04405907_5/n04256520_4/img_samsung_40_uhd_smart_tv_2011_club_house_italia_nautilus_sofa_2015-3_gray.png,foreground,same as foreground,n04405907_5,n02933112_-18,Stimuli/canonical view 2/img_n04405907_5_gray.jpg,Stimuli/canonical view 2/img_n02933112_-18_gray.jpg,random,left,Experiments/experiment_13/208.jpg,Experiments/experiment_13/209.jpg,Experiments/experiment_13/210.jpg,Experiments/experiment_13/211.jpg,269,1,2023-09-17_10h50.30.176,Occlusion_Psychophysics,2022.1.4,Win32,32,,,left,"[""left""]",[0.8980000000000246],False,,0.0,0.0,52.0,52.0,52.0,1.0,,,,,,
,,,,,,,,,,,,,,,,,,,,,0.025,,,,,,,,,,Stimuli/psy_fixed_rotation_30_objects_occ0.7_0.9s/images/train/n04256520_9/n02818832_3/img_napoleon_iii_sofa_b05_ccm_contemporary_bed_max2013_2001_gray.jpg,n04256520_9,n02818832_3,fixed,0.738576,n04379243_0,Stimuli/psy_fixed_rotation_30_objects_occ0.7_0.9s/images/train/n04405907_5/n04379243_0/img_samsung_40_uhd_smart_tv_2011_17th_c._monastery_dining_table_2010_2001-3_gray.png,random,fixed,n04256520_9,n04256520_5,Stimuli/canonical view 2/img_n04256520_9_gray.jpg,Stimuli/canonical view 2/img_n04256520_5_gray.jpg,random,right,Experiments/experiment_13/212.jpg,Experiments/experiment_13/213.jpg,Experiments/experiment_13/214.jpg,Experiments/experiment_13/215.jpg,269,1,2023-09-17_10h50.30.176,Occlusion_Psychophysics,2022.1.4,Win32,32,,,left,"[""left""]",[1.38900000000001],False,,0.0,0.0,53.0,53.0,53.0,1.0,,,,,,
,,,,,,,,,,,,,,,,,,,,,0.05,,,,,,,,,,Stimuli/psy_flexible_rotation_30_objects_occ0.7_0.9s/images/train/n03928116_4/n04256520_9/img_dp_33_b_2013__vray_napoleon_iii_sofa_2002_gray.jpg,n03928116_4,n04256520_9,flexible,0.760098,n04256520_9,Stimuli/psy_flexible_rotation_30_objects_occ0.7_0.9s/images/train/n03928116_4/n04256520_9/img_dp_33_b_2013__vray_napoleon_iii_sofa_2002-3_gray.png,foreground,same as foreground,n03928116_4,n02933112_-2,Stimuli/canonical view 2/img_n03928116_4_gray.jpg,Stimuli/canonical view 2/img_n02933112_-2_gray.jpg,random,left,Experiments/experiment_13/216.jpg,Experiments/experiment_13/217.jpg,Experiments/experiment_13/218.jpg,Experiments/experiment_13/219.jpg,269,1,2023-09-17_10h50.30.176,Occlusion_Psychophysics,2022.1.4,Win32,32,,,right,"[""left""]",[1.7960000000000491],False,,0.0,0.0,54.0,54.0,54.0,1.0,,,,,,
,,,,,,,,,,,,,,,,,,,,,0.025,,,,,,,,,,Stimuli/psy_flexible_rotation_30_objects_occ0.7_0.9s/images/train/n03928116_4/n02933112_-2/img_dp_33_b_2013__vray_sink_base_white_wood_2010_gray.jpg,n03928116_4,n02933112_-2,flexible,0.799478,n03928116_0,Stimuli/psy_fixed_rotation_30_objects_occ0.7_0.9s/images/train/n02933112_4/n03928116_0/img_buffet_b02_piano_2005-3_gray.png,random,fixed,n03928116_4,n02883344_-1,Stimuli/canonical view 2/img_n03928116_4_gray.jpg,Stimuli/canonical view 2/img_n02883344_-1_gray.jpg,random,right,Experiments/experiment_13/220.jpg,Experiments/experiment_13/221.jpg,Experiments/experiment_13/222.jpg,Experiments/experiment_13/223.jpg,269,1,2023-09-17_10h50.30.176,Occlusion_Psychophysics,2022.1.4,Win32,32,,,right,"[""right""]",[1.0510000000000446],False,,0.0,0.0,55.0,55.0,55.0,1.0,,,,,,
,,,,,,,,,,,,,,,,,,,,,0.025,,,,,,,,,,Stimuli/psy_fixed_rotation_30_objects_occ0.7_0.9s/images/train/n02828884_3/n04405907_5/img_b04_wood_metal_park_bench_samsung_40_uhd_smart_tv_2011_2006_gray.jpg,n02828884_3,n04405907_5,fixed,0.774736,n04405907_5,Stimuli/psy_fixed_rotation_30_objects_occ0.7_0.9s/images/train/n02828884_3/n04405907_5/img_b04_wood_metal_park_bench_samsung_40_uhd_smart_tv_2011_2006-3_gray.png,foreground,same as foreground,n02828884_3,n02818832_0,Stimuli/canonical view 2/img_n02828884_3_gray.jpg,Stimuli/canonical view 2/img_n02818832_0_gray.jpg,random,left,Experiments/experiment_13/224.jpg,Experiments/experiment_13/225.jpg,Experiments/experiment_13/226.jpg,Experiments/experiment_13/227.jpg,269,1,2023-09-17_10h50.30.176,Occlusion_Psychophysics,2022.1.4,Win32,32,,,right,"[""right""]",[0.8870000000000005],False,,0.0,0.0,56.0,56.0,56.0,1.0,,,,,,
,,,,,,,,,,,,,,,,,,,,,0.025,,,,,,,,,,Stimuli/psy_fixed_rotation_30_objects_occ0.7_0.9s/images/train/n02828884_9/n04256520_5/img_cr-96_bench_meridiani_belmondo_bench_sofa_2010_gray.jpg,n02828884_9,n04256520_5,fixed,0.803125,n02883344_0,Stimuli/psy_flexible_rotation_30_objects_occ0.7_0.9s/images/train/n03928116_0/n02883344_0/img_b02_piano_b03_box_2014-3_gray.png,random,flexible,n02828884_9,n04379243_8,Stimuli/canonical view 2/img_n02828884_9_gray.jpg,Stimuli/canonical view 2/img_n04379243_8_gray.jpg,random,right,Experiments/experiment_13/228.jpg,Experiments/experiment_13/229.jpg,Experiments/experiment_13/230.jpg,Experiments/experiment_13/231.jpg,269,1,2023-09-17_10h50.30.176,Occlusion_Psychophysics,2022.1.4,Win32,32,,,left,"[""left""]",[0.9200000000000159],False,,0.0,0.0,57.0,57.0,57.0,1.0,,,,,,
,,,,,,,,,,,,,,,,,,,,,0.05,,,,,,,,,,Stimuli/psy_fixed_rotation_30_objects_occ0.7_0.9s/images/train/n04256520_4/n04405907_9/img_club_house_italia_nautilus_sofa_vray_004_2012_gray.jpg,n04256520_4,n04405907_9,fixed,0.708056,n02828884_4,Stimuli/psy_flexible_rotation_30_objects_occ0.7_0.9s/images/train/n02828884_4/n02828884_4/img_b05_c-5_classic_series_bench-2012_b05_c-5_classic_series_bench-2012_2013-3_gray.png,random,flexible,n04256520_4,n03928116_4,Stimuli/canonical view 2/img_n04256520_4_gray.jpg,Stimuli/canonical view 2/img_n03928116_4_gray.jpg,random,left,Experiments/experiment_13/232.jpg,Experiments/experiment_13/233.jpg,Experiments/experiment_13/234.jpg,Experiments/experiment_13/235.jpg,269,1,2023-09-17_10h50.30.176,Occlusion_Psychophysics,2022.1.4,Win32,32,,,left,"[""left""]",[1.0539999999999736],False,,0.0,0.0,58.0,58.0,58.0,1.0,,,,,,
,,,,,,,,,,,,,,,,,,,,,0.025,,,,,,,,,,Stimuli/psy_fixed_rotation_30_objects_occ0.7_0.9s/images/train/n04379243_8/n02818832_9/img_glass_table_bed01_blue_2010_gray.jpg,n04379243_8,n02818832_9,fixed,0.791004,n02828884_3,Stimuli/psy_fixed_rotation_30_objects_occ0.7_0.9s/images/train/n04256520_5/n02828884_3/img_meridiani_belmondo_bench_sofa_b04_wood_metal_park_bench_2002-3_gray.png,random,fixed,n04379243_8,n02818832_9,Stimuli/canonical view 2/img_n04379243_8_gray.jpg,Stimuli/canonical view 2/img_n02818832_9_gray.jpg,foreground,left,Experiments/experiment_13/236.jpg,Experiments/experiment_13/237.jpg,Experiments/experiment_13/238.jpg,Experiments/experiment_13/239.jpg,269,1,2023-09-17_10h50.30.176,Occlusion_Psychophysics,2022.1.4,Win32,32,,,left,"[""left""]",[0.7950000000000159],True,right,1.0,0.0,59.0,59.0,59.0,1.0,0.884,,,,,
,,,,,,,,,,,,,,,,,,,,,0.05,,,,,,,,,,Stimuli/psy_fixed_rotation_30_objects_occ0.7_0.9s/images/train/n02818832_9/n02818832_3/img_bed01_blue_b05_ccm_contemporary_bed_max2013_2012_gray.jpg,n02818832_9,n02818832_3,fixed,0.818601,n02883344_15,Stimuli/psy_flexible_rotation_30_objects_occ0.7_0.9s/images/train/n02828884_3/n02883344_15/img_b04_wood_metal_park_bench_microwave_box_2006-3_gray.png,random,flexible,n02818832_9,n02818832_3,Stimuli/canonical view 2/img_n02818832_9_gray.jpg,Stimuli/canonical view 2/img_n02818832_3_gray.jpg,foreground,left,Experiments/experiment_13/240.jpg,Experiments/experiment_13/241.jpg,Experiments/experiment_13/242.jpg,Experiments/experiment_13/243.jpg,269,1,2023-09-17_10h50.30.176,Occlusion_Psychophysics,2022.1.4,Win32,32,,,right,"[""right""]",[0.8640000000000327],False,,0.0,0.0,60.0,60.0,60.0,1.0,,,,,,
,,,,,,,,,,,,,,,,,,,,,0.025,,,,,,,,,,Stimuli/psy_flexible_rotation_30_objects_occ0.7_0.9s/images/train/n03001627_8/n03001627_9/img_chair_billiani_doll_chair_eames_plastic_armchair_2013_gray.jpg,n03001627_8,n03001627_9,flexible,0.701168,n02818832_9,Stimuli/psy_fixed_rotation_30_objects_occ0.7_0.9s/images/train/n02933112_-2/n02818832_9/img_sink_base_white_wood_bed01_blue_2010-3_gray.png,random,fixed,n03001627_8,n03001627_9,Stimuli/canonical view 2/img_n03001627_8_gray.jpg,Stimuli/canonical view 2/img_n03001627_9_gray.jpg,foreground,left,Experiments/experiment_13/244.jpg,Experiments/experiment_13/245.jpg,Experiments/experiment_13/246.jpg,Experiments/experiment_13/247.jpg,269,1,2023-09-17_10h50.30.176,Occlusion_Psychophysics,2022.1.4,Win32,32,,,left,"[""right""]",[1.1199999999999477],False,,0.0,0.0,61.0,61.0,61.0,1.0,,,,,,
,,,,,,,,,,,,,,,,,,,,,0.05,,,,,,,,,,Stimuli/psy_fixed_rotation_30_objects_occ0.7_0.9s/images/train/n02818832_9/n04379243_-7/img_bed01_blue_quatre_dining_table_2013_gray.jpg,n02818832_9,n04379243_-7,fixed,0.72243,n04379243_-7,Stimuli/psy_fixed_rotation_30_objects_occ0.7_0.9s/images/train/n02818832_9/n04379243_-7/img_bed01_blue_quatre_dining_table_2013-3_gray.png,foreground,same as foreground,n02818832_9,n04379243_-7,Stimuli/canonical view 2/img_n02818832_9_gray.jpg,Stimuli/canonical view 2/img_n04379243_-7_gray.jpg,foreground,right,Experiments/experiment_13/248.jpg,Experiments/experiment_13/249.jpg,Experiments/experiment_13/250.jpg,Experiments/experiment_13/251.jpg,269,1,2023-09-17_10h50.30.176,Occlusion_Psychophysics,2022.1.4,Win32,32,,,left,"[""left""]",[2.5470000000000255],False,,0.0,0.0,62.0,62.0,62.0,1.0,,,,,,
,,,,,,,,,,,,,,,,,,,,,0.05,,,,,,,,,,Stimuli/psy_fixed_rotation_30_objects_occ0.7_0.9s/images/train/n04405907_5/n03928116_4/img_samsung_40_uhd_smart_tv_2011_dp_33_b_2013__vray_2002_gray.jpg,n04405907_5,n03928116_4,fixed,0.71283,n02818832_9,Stimuli/psy_flexible_rotation_30_objects_occ0.7_0.9s/images/train/n02883344_0/n02818832_9/img_b03_box_bed01_blue_2007-3_gray.png,random,flexible,n04405907_5,n03928116_4,Stimuli/canonical view 2/img_n04405907_5_gray.jpg,Stimuli/canonical view 2/img_n03928116_4_gray.jpg,foreground,left,Experiments/experiment_13/252.jpg,Experiments/experiment_13/253.jpg,Experiments/experiment_13/254.jpg,Experiments/experiment_13/255.jpg,269,1,2023-09-17_10h50.30.176,Occlusion_Psychophysics,2022.1.4,Win32,32,,,right,"[""right""]",[0.964999999999975],False,,0.0,0.0,63.0,63.0,63.0,1.0,,,,,,
,,,,,,,,,,,,,,,,,,,,,0.05,,,,,,,,,,Stimuli/psy_fixed_rotation_30_objects_occ0.7_0.9s/images/train/n03928116_0/n04379243_0/img_b02_piano_17th_c._monastery_dining_table_2010_2000_gray.jpg,n03928116_0,n04379243_0,fixed,0.752234,n03928116_0,Stimuli/psy_flexible_rotation_30_objects_occ0.7_0.9s/images/train/n02883344_-1/n03928116_0/img_woven_box_b02_piano_2001-3_gray.png,random,flexible,n03928116_0,n04256520_5,Stimuli/canonical view 2/img_n03928116_0_gray.jpg,Stimuli/canonical view 2/img_n04256520_5_gray.jpg,random,right,Experiments/experiment_13/256.jpg,Experiments/experiment_13/257.jpg,Experiments/experiment_13/258.jpg,Experiments/experiment_13/259.jpg,269,1,2023-09-17_10h50.30.176,Occlusion_Psychophysics,2022.1.4,Win32,32,,,right,"[""right""]",[0.8359999999999559],True,right,1.0,0.0,64.0,64.0,64.0,1.0,0.847,,,,,
,,,,,,,,,,,,,,,,,,,,,0.025,,,,,,,,,,Stimuli/psy_flexible_rotation_30_objects_occ0.7_0.9s/images/train/n02933112_-2/n02883344_0/img_sink_base_white_wood_b03_box_2012_gray.jpg,n02933112_-2,n02883344_0,flexible,0.800058,n04405907_5,Stimuli/psy_flexible_rotation_30_objects_occ0.7_0.9s/images/train/n02933112_4/n04405907_5/img_buffet_samsung_40_uhd_smart_tv_2011_2014-3_gray.png,random,flexible,n02933112_-2,n04379243_8,Stimuli/canonical view 2/img_n02933112_-2_gray.jpg,Stimuli/canonical view 2/img_n04379243_8_gray.jpg,random,left,Experiments/experiment_13/260.jpg,Experiments/experiment_13/261.jpg,Experiments/experiment_13/262.jpg,Experiments/experiment_13/263.jpg,269,1,2023-09-17_10h50.30.176,Occlusion_Psychophysics,2022.1.4,Win32,32,,,right,"[""left""]",[1.079999999999984],False,,0.0,0.0,65.0,65.0,65.0,1.0,,,,,,
,,,,,,,,,,,,,,,,,,,,,0.05,,,,,,,,,,Stimuli/psy_flexible_rotation_30_objects_occ0.7_0.9s/images/train/n04405907_8/n02818832_3/img_stylized_tv_b05_ccm_contemporary_bed_max2013_2015_gray.jpg,n04405907_8,n02818832_3,flexible,0.729958,n02818832_3,Stimuli/psy_flexible_rotation_30_objects_occ0.7_0.9s/images/train/n04405907_8/n02818832_3/img_stylized_tv_b05_ccm_contemporary_bed_max2013_2015-3_gray.png,foreground,same as foreground,n04405907_8,n02818832_3,Stimuli/canonical view 2/img_n04405907_8_gray.jpg,Stimuli/canonical view 2/img_n02818832_3_gray.jpg,foreground,left,Experiments/experiment_13/264.jpg,Experiments/experiment_13/265.jpg,Experiments/experiment_13/266.jpg,Experiments/experiment_13/267.jpg,269,1,2023-09-17_10h50.30.176,Occlusion_Psychophysics,2022.1.4,Win32,32,,,right,"[""right""]",[2.1829999999999927],False,,0.0,0.0,66.0,66.0,66.0,1.0,,,,,,
,,,,,,,,,,,,,,,,,,,,,0.05,,,,,,,,,,Stimuli/psy_fixed_rotation_30_objects_occ0.7_0.9s/images/train/n04256520_5/n03928116_0/img_meridiani_belmondo_bench_sofa_b02_piano_2015_gray.jpg,n04256520_5,n03928116_0,fixed,0.709256,n03928116_0,Stimuli/psy_fixed_rotation_30_objects_occ0.7_0.9s/images/train/n04256520_5/n03928116_0/img_meridiani_belmondo_bench_sofa_b02_piano_2015-3_gray.png,foreground,same as foreground,n04256520_5,n03001627_8,Stimuli/canonical view 2/img_n04256520_5_gray.jpg,Stimuli/canonical view 2/img_n03001627_8_gray.jpg,random,right,Experiments/experiment_13/268.jpg,Experiments/experiment_13/269.jpg,Experiments/experiment_13/270.jpg,Experiments/experiment_13/271.jpg,269,1,2023-09-17_10h50.30.176,Occlusion_Psychophysics,2022.1.4,Win32,32,,,left,"[""left""]",[0.9549999999999841],False,,0.0,0.0,67.0,67.0,67.0,1.0,,,,,,
,,,,,,,,,,,,,,,,,,,,,0.05,,,,,,,,,,Stimuli/psy_fixed_rotation_30_objects_occ0.7_0.9s/images/train/n03001627_-2/n04405907_9/img_wood_chair_vray_004_2007_gray.jpg,n03001627_-2,n04405907_9,fixed,0.74877,n04405907_9,Stimuli/psy_fixed_rotation_30_objects_occ0.7_0.9s/images/train/n03001627_-2/n04405907_9/img_wood_chair_vray_004_2007-3_gray.png,foreground,same as foreground,n03001627_-2,n04405907_9,Stimuli/canonical view 2/img_n03001627_-2_gray.jpg,Stimuli/canonical view 2/img_n04405907_9_gray.jpg,foreground,left,Experiments/experiment_13/272.jpg,Experiments/experiment_13/273.jpg,Experiments/experiment_13/274.jpg,Experiments/experiment_13/275.jpg,269,1,2023-09-17_10h50.30.176,Occlusion_Psychophysics,2022.1.4,Win32,32,,,left,"[""left""]",[0.7390000000000327],False,,0.0,0.0,68.0,68.0,68.0,1.0,,,,,,
,,,,,,,,,,,,,,,,,,,,,0.05,,,,,,,,,,Stimuli/psy_flexible_rotation_30_objects_occ0.7_0.9s/images/train/n03001627_9/n04256520_5/img_chair_eames_plastic_armchair_meridiani_belmondo_bench_sofa_2002_gray.jpg,n03001627_9,n04256520_5,flexible,0.801159,n04405907_9,Stimuli/psy_fixed_rotation_30_objects_occ0.7_0.9s/images/train/n02883344_0/n04405907_9/img_b03_box_vray_004_2013-3_gray.png,random,fixed,n03001627_9,n04379243_-7,Stimuli/canonical view 2/img_n03001627_9_gray.jpg,Stimuli/canonical view 2/img_n04379243_-7_gray.jpg,random,left,Experiments/experiment_13/276.jpg,Experiments/experiment_13/277.jpg,Experiments/experiment_13/278.jpg,Experiments/experiment_13/279.jpg,269,1,2023-09-17_10h50.30.176,Occlusion_Psychophysics,2022.1.4,Win32,32,,,left,"[""left""]",[1.0199999999999818],False,,0.0,0.0,69.0,69.0,69.0,1.0,,,,,,
,,,,,,,,,,,,,,,,,,,,,0.05,,,,,,,,,,Stimuli/psy_fixed_rotation_30_objects_occ0.7_0.9s/images/train/n04379243_-7/n04256520_4/img_quatre_dining_table_club_house_italia_nautilus_sofa_2002_gray.jpg,n04379243_-7,n04256520_4,fixed,0.720902,n04256520_4,Stimuli/psy_fixed_rotation_30_objects_occ0.7_0.9s/images/train/n04379243_-7/n04256520_4/img_quatre_dining_table_club_house_italia_nautilus_sofa_2002-3_gray.png,foreground,same as foreground,n04379243_-7,n04256520_4,Stimuli/canonical view 2/img_n04379243_-7_gray.jpg,Stimuli/canonical view 2/img_n04256520_4_gray.jpg,foreground,left,Experiments/experiment_13/280.jpg,Experiments/experiment_13/281.jpg,Experiments/experiment_13/282.jpg,Experiments/experiment_13/283.jpg,269,1,2023-09-17_10h50.30.176,Occlusion_Psychophysics,2022.1.4,Win32,32,,,right,"[""right""]",[1.1200000000000045],False,,0.0,0.0,70.0,70.0,70.0,1.0,,,,,,
,,,,,,,,,,,,,,,,,,,,,0.05,,,,,,,,,,Stimuli/psy_fixed_rotation_30_objects_occ0.7_0.9s/images/train/n02883344_15/n04379243_-7/img_microwave_box_quatre_dining_table_2002_gray.jpg,n02883344_15,n04379243_-7,fixed,0.808114,n04379243_-7,Stimuli/psy_fixed_rotation_30_objects_occ0.7_0.9s/images/train/n02883344_15/n04379243_-7/img_microwave_box_quatre_dining_table_2002-3_gray.png,foreground,same as foreground,n02883344_15,n04405907_8,Stimuli/canonical view 2/img_n02883344_15_gray.jpg,Stimuli/canonical view 2/img_n04405907_8_gray.jpg,random,right,Experiments/experiment_13/284.jpg,Experiments/experiment_13/285.jpg,Experiments/experiment_13/286.jpg,Experiments/experiment_13/287.jpg,269,1,2023-09-17_10h50.30.176,Occlusion_Psychophysics,2022.1.4,Win32,32,,,left,"[""left""]",[1.5460000000000491],False,,0.0,0.0,71.0,71.0,71.0,1.0,,,,,,
,,,,,,,,,,,,,,,,,,,,,0.05,,,,,,,,,,Stimuli/psy_flexible_rotation_30_objects_occ0.7_0.9s/images/train/n04405907_8/n04256520_9/img_stylized_tv_napoleon_iii_sofa_2014_gray.jpg,n04405907_8,n04256520_9,flexible,0.803961,n03001627_9,Stimuli/psy_fixed_rotation_30_objects_occ0.7_0.9s/images/train/n03001627_9/n03001627_9/img_chair_eames_plastic_armchair_chair_eames_plastic_armchair_2007-3_gray.png,random,fixed,n04405907_8,n02883344_0,Stimuli/canonical view 2/img_n04405907_8_gray.jpg,Stimuli/canonical view 2/img_n02883344_0_gray.jpg,random,left,Experiments/experiment_13/288.jpg,Experiments/experiment_13/289.jpg,Experiments/experiment_13/290.jpg,Experiments/experiment_13/291.jpg,269,1,2023-09-17_10h50.30.176,Occlusion_Psychophysics,2022.1.4,Win32,32,,,right,"[""left""]",[1.0260000000000105],False,,0.0,0.0,72.0,72.0,72.0,1.0,,,,,,
,,,,,,,,,,,,,,,,,,,,,0.025,,,,,,,,,,Stimuli/psy_fixed_rotation_30_objects_occ0.7_0.9s/images/train/n04256520_4/n04405907_8/img_club_house_italia_nautilus_sofa_stylized_tv_2000_gray.jpg,n04256520_4,n04405907_8,fixed,0.774048,n03001627_8,Stimuli/psy_fixed_rotation_30_objects_occ0.7_0.9s/images/train/n04405907_9/n03001627_8/img_vray_004_chair_billiani_doll_2003-3_gray.png,random,fixed,n04256520_4,n03928116_4,Stimuli/canonical view 2/img_n04256520_4_gray.jpg,Stimuli/canonical view 2/img_n03928116_4_gray.jpg,random,right,Experiments/experiment_13/292.jpg,Experiments/experiment_13/293.jpg,Experiments/experiment_13/294.jpg,Experiments/experiment_13/295.jpg,269,1,2023-09-17_10h50.30.176,Occlusion_Psychophysics,2022.1.4,Win32,32,,,right,"[""right""]",[1.3290000000000077],False,,0.0,0.0,73.0,73.0,73.0,1.0,,,,,,
,,,,,,,,,,,,,,,,,,,,,0.025,,,,,,,,,,Stimuli/psy_flexible_rotation_30_objects_occ0.7_0.9s/images/train/n04405907_8/n04405907_5/img_stylized_tv_samsung_40_uhd_smart_tv_2011_2002_gray.jpg,n04405907_8,n04405907_5,flexible,0.701436,n04405907_5,Stimuli/psy_flexible_rotation_30_objects_occ0.7_0.9s/images/train/n04405907_8/n04405907_5/img_stylized_tv_samsung_40_uhd_smart_tv_2011_2002-3_gray.png,foreground,same as foreground,n04405907_8,n03928116_10,Stimuli/canonical view 2/img_n04405907_8_gray.jpg,Stimuli/canonical view 2/img_n03928116_10_gray.jpg,random,right,Experiments/experiment_13/296.jpg,Experiments/experiment_13/297.jpg,Experiments/experiment_13/298.jpg,Experiments/experiment_13/299.jpg,269,1,2023-09-17_10h50.30.176,Occlusion_Psychophysics,2022.1.4,Win32,32,,,left,"[""right""]",[0.8990000000000009],False,,0.0,0.0,74.0,74.0,74.0,1.0,,,,,,
,,,,,,,,,,,,,,,,,,,,,0.025,,,,,,,,,,Stimuli/psy_fixed_rotation_30_objects_occ0.7_0.9s/images/train/n04405907_5/n02883344_15/img_samsung_40_uhd_smart_tv_2011_microwave_box_2002_gray.jpg,n04405907_5,n02883344_15,fixed,0.764121,n02883344_15,Stimuli/psy_fixed_rotation_30_objects_occ0.7_0.9s/images/train/n04405907_5/n02883344_15/img_samsung_40_uhd_smart_tv_2011_microwave_box_2002-3_gray.png,foreground,same as foreground,n04405907_5,n02883344_15,Stimuli/canonical view 2/img_n04405907_5_gray.jpg,Stimuli/canonical view 2/img_n02883344_15_gray.jpg,foreground,left,Experiments/experiment_13/300.jpg,Experiments/experiment_13/301.jpg,Experiments/experiment_13/302.jpg,Experiments/experiment_13/303.jpg,269,1,2023-09-17_10h50.30.176,Occlusion_Psychophysics,2022.1.4,Win32,32,,,left,"[""left""]",[1.0749999999999886],False,,0.0,0.0,75.0,75.0,75.0,1.0,,,,,,
,,,,,,,,,,,,,,,,,,,,,0.05,,,,,,,,,,Stimuli/psy_flexible_rotation_30_objects_occ0.7_0.9s/images/train/n03928116_4/n02818832_0/img_dp_33_b_2013__vray_b03_the_sofa_and_chair_company_-_stanley_bed_2014_2002_gray.jpg,n03928116_4,n02818832_0,flexible,0.754531,n04379243_-7,Stimuli/psy_fixed_rotation_30_objects_occ0.7_0.9s/images/train/n02828884_3/n04379243_-7/img_b04_wood_metal_park_bench_quatre_dining_table_2009-3_gray.png,random,fixed,n03928116_4,n02818832_0,Stimuli/canonical view 2/img_n03928116_4_gray.jpg,Stimuli/canonical view 2/img_n02818832_0_gray.jpg,foreground,right,Experiments/experiment_13/304.jpg,Experiments/experiment_13/305.jpg,Experiments/experiment_13/306.jpg,Experiments/experiment_13/307.jpg,269,1,2023-09-17_10h50.30.176,Occlusion_Psychophysics,2022.1.4,Win32,32,,,left,"[""right""]",[0.8879999999999768],False,,0.0,0.0,76.0,76.0,76.0,1.0,,,,,,
,,,,,,,,,,,,,,,,,,,,,0.025,,,,,,,,,,Stimuli/psy_flexible_rotation_30_objects_occ0.7_0.9s/images/train/n02933112_4/n04256520_4/img_buffet_club_house_italia_nautilus_sofa_2010_gray.jpg,n02933112_4,n04256520_4,flexible,0.717934,n02933112_-2,Stimuli/psy_flexible_rotation_30_objects_occ0.7_0.9s/images/train/n04379243_8/n02933112_-2/img_glass_table_sink_base_white_wood_2007-3_gray.png,random,flexible,n02933112_4,n04405907_5,Stimuli/canonical view 2/img_n02933112_4_gray.jpg,Stimuli/canonical view 2/img_n04405907_5_gray.jpg,random,left,Experiments/experiment_13/308.jpg,Experiments/experiment_13/309.jpg,Experiments/experiment_13/310.jpg,Experiments/experiment_13/311.jpg,269,1,2023-09-17_10h50.30.176,Occlusion_Psychophysics,2022.1.4,Win32,32,,,right,"[""right""]",[1.13900000000001],False,,0.0,0.0,77.0,77.0,77.0,1.0,,,,,,
,,,,,,,,,,,,,,,,,,,,,0.025,,,,,,,,,,Stimuli/psy_flexible_rotation_30_objects_occ0.7_0.9s/images/train/n04405907_8/n02818832_0/img_stylized_tv_b03_the_sofa_and_chair_company_-_stanley_bed_2014_2004_gray.jpg,n04405907_8,n02818832_0,flexible,0.785503,n02818832_9,Stimuli/psy_flexible_rotation_30_objects_occ0.7_0.9s/images/train/n04405907_5/n02818832_9/img_samsung_40_uhd_smart_tv_2011_bed01_blue_2012-3_gray.png,random,flexible,n04405907_8,n04256520_4,Stimuli/canonical view 2/img_n04405907_8_gray.jpg,Stimuli/canonical view 2/img_n04256520_4_gray.jpg,random,right,Experiments/experiment_13/312.jpg,Experiments/experiment_13/313.jpg,Experiments/experiment_13/314.jpg,Experiments/experiment_13/315.jpg,269,1,2023-09-17_10h50.30.176,Occlusion_Psychophysics,2022.1.4,Win32,32,,,right,"[""left""]",[1.2340000000000373],False,,0.0,0.0,78.0,78.0,78.0,1.0,,,,,,
,,,,,,,,,,,,,,,,,,,,,0.05,,,,,,,,,,Stimuli/psy_fixed_rotation_30_objects_occ0.7_0.9s/images/train/n02933112_-2/n02883344_-1/img_sink_base_white_wood_woven_box_2011_gray.jpg,n02933112_-2,n02883344_-1,fixed,0.740306,n02883344_0,Stimuli/psy_fixed_rotation_30_objects_occ0.7_0.9s/images/train/n04405907_5/n02883344_0/img_samsung_40_uhd_smart_tv_2011_b03_box_2009-3_gray.png,random,fixed,n02933112_-2,n04379243_-7,Stimuli/canonical view 2/img_n02933112_-2_gray.jpg,Stimuli/canonical view 2/img_n04379243_-7_gray.jpg,random,left,Experiments/experiment_13/316.jpg,Experiments/experiment_13/317.jpg,Experiments/experiment_13/318.jpg,Experiments/experiment_13/319.jpg,269,1,2023-09-17_10h50.30.176,Occlusion_Psychophysics,2022.1.4,Win32,32,,,left,"[""left""]",[0.9850000000000136],False,,0.0,0.0,79.0,79.0,79.0,1.0,,,,,,
,,,,,,,,,,,,,,,,,,,,,0.025,,,,,,,,,,Stimuli/psy_flexible_rotation_30_objects_occ0.7_0.9s/images/train/n02933112_4/n04405907_8/img_buffet_stylized_tv_2015_gray.jpg,n02933112_4,n04405907_8,flexible,0.738012,n04405907_8,Stimuli/psy_flexible_rotation_30_objects_occ0.7_0.9s/images/train/n02933112_4/n04405907_8/img_buffet_stylized_tv_2015-3_gray.png,foreground,same as foreground,n02933112_4,n04405907_8,Stimuli/canonical view 2/img_n02933112_4_gray.jpg,Stimuli/canonical view 2/img_n04405907_8_gray.jpg,foreground,left,Experiments/experiment_13/320.jpg,Experiments/experiment_13/321.jpg,Experiments/experiment_13/322.jpg,Experiments/experiment_13/323.jpg,269,1,2023-09-17_10h50.30.176,Occlusion_Psychophysics,2022.1.4,Win32,32,,,right,"[""right""]",[0.8279999999999745],False,,0.0,0.0,80.0,80.0,80.0,1.0,,,,,,
,,,,,,,,,,,,,,,,,,,,,0.05,,,,,,,,,,Stimuli/psy_fixed_rotation_30_objects_occ0.7_0.9s/images/train/n02933112_-18/n02818832_3/img_cgaxis_models_48_26_vray_composite_b05_ccm_contemporary_bed_max2013_2001_gray.jpg,n02933112_-18,n02818832_3,fixed,0.869519,n02828884_4,Stimuli/psy_fixed_rotation_30_objects_occ0.7_0.9s/images/train/n02818832_0/n02828884_4/img_b03_the_sofa_and_chair_company_-_stanley_bed_2014_b05_c-5_classic_series_bench-2012_2005-3_gray.png,random,fixed,n02933112_-18,n02818832_3,Stimuli/canonical view 2/img_n02933112_-18_gray.jpg,Stimuli/canonical view 2/img_n02818832_3_gray.jpg,foreground,left,Experiments/experiment_13/324.jpg,Experiments/experiment_13/325.jpg,Experiments/experiment_13/326.jpg,Experiments/experiment_13/327.jpg,269,1,2023-09-17_10h50.30.176,Occlusion_Psychophysics,2022.1.4,Win32,32,,,right,"[""right""]",[0.9519999999999982],False,,0.0,0.0,81.0,81.0,81.0,1.0,,,,,,
,,,,,,,,,,,,,,,,,,,,,0.05,,,,,,,,,,Stimuli/psy_flexible_rotation_30_objects_occ0.7_0.9s/images/train/n04405907_9/n02883344_-1/img_vray_004_woven_box_2003_gray.jpg,n04405907_9,n02883344_-1,flexible,0.860358,n02883344_-1,Stimuli/psy_flexible_rotation_30_objects_occ0.7_0.9s/images/train/n04405907_9/n02883344_-1/img_vray_004_woven_box_2003-3_gray.png,foreground,same as foreground,n04405907_9,n02828884_9,Stimuli/canonical view 2/img_n04405907_9_gray.jpg,Stimuli/canonical view 2/img_n02828884_9_gray.jpg,random,right,Experiments/experiment_13/328.jpg,Experiments/experiment_13/329.jpg,Experiments/experiment_13/330.jpg,Experiments/experiment_13/331.jpg,269,1,2023-09-17_10h50.30.176,Occlusion_Psychophysics,2022.1.4,Win32,32,,,right,"[""right""]",[1.0109999999999673],False,,0.0,0.0,82.0,82.0,82.0,1.0,,,,,,
,,,,,,,,,,,,,,,,,,,,,0.025,,,,,,,,,,Stimuli/psy_fixed_rotation_30_objects_occ0.7_0.9s/images/train/n02828884_3/n02883344_15/img_b04_wood_metal_park_bench_microwave_box_2011_gray.jpg,n02828884_3,n02883344_15,fixed,0.89798,n02883344_15,Stimuli/psy_fixed_rotation_30_objects_occ0.7_0.9s/images/train/n02828884_3/n02883344_15/img_b04_wood_metal_park_bench_microwave_box_2011-3_gray.png,foreground,same as foreground,n02828884_3,n02883344_15,Stimuli/canonical view 2/img_n02828884_3_gray.jpg,Stimuli/canonical view 2/img_n02883344_15_gray.jpg,foreground,left,Experiments/experiment_13/332.jpg,Experiments/experiment_13/333.jpg,Experiments/experiment_13/334.jpg,Experiments/experiment_13/335.jpg,269,1,2023-09-17_10h50.30.176,Occlusion_Psychophysics,2022.1.4,Win32,32,,,left,"[""left""]",[1.0769999999999982],False,,0.0,0.0,83.0,83.0,83.0,1.0,,,,,,
,,,,,,,,,,,,,,,,,,,,,0.05,,,,,,,,,,Stimuli/psy_fixed_rotation_30_objects_occ0.7_0.9s/images/train/n02933112_4/n04379243_0/img_buffet_17th_c._monastery_dining_table_2010_2006_gray.jpg,n02933112_4,n04379243_0,fixed,0.70611,n04379243_0,Stimuli/psy_fixed_rotation_30_objects_occ0.7_0.9s/images/train/n02933112_4/n04379243_0/img_buffet_17th_c._monastery_dining_table_2010_2006-3_gray.png,foreground,same as foreground,n02933112_4,n04379243_0,Stimuli/canonical view 2/img_n02933112_4_gray.jpg,Stimuli/canonical view 2/img_n04379243_0_gray.jpg,foreground,left,Experiments/experiment_13/336.jpg,Experiments/experiment_13/337.jpg,Experiments/experiment_13/338.jpg,Experiments/experiment_13/339.jpg,269,1,2023-09-17_10h50.30.176,Occlusion_Psychophysics,2022.1.4,Win32,32,,,left,"[""left""]",[0.8940000000000055],False,,0.0,0.0,84.0,84.0,84.0,1.0,,,,,,
,,,,,,,,,,,,,,,,,,,,,0.05,,,,,,,,,,Stimuli/psy_flexible_rotation_30_objects_occ0.7_0.9s/images/train/n02818832_0/n04379243_0/img_b03_the_sofa_and_chair_company_-_stanley_bed_2014_17th_c._monastery_dining_table_2010_2003_gray.jpg,n02818832_0,n04379243_0,flexible,0.734912,n04405907_5,Stimuli/psy_fixed_rotation_30_objects_occ0.7_0.9s/images/train/n02818832_9/n04405907_5/img_bed01_blue_samsung_40_uhd_smart_tv_2011_2011-3_gray.png,random,fixed,n02818832_0,n03928116_10,Stimuli/canonical view 2/img_n02818832_0_gray.jpg,Stimuli/canonical view 2/img_n03928116_10_gray.jpg,random,left,Experiments/experiment_13/340.jpg,Experiments/experiment_13/341.jpg,Experiments/experiment_13/342.jpg,Experiments/experiment_13/343.jpg,269,1,2023-09-17_10h50.30.176,Occlusion_Psychophysics,2022.1.4,Win32,32,,,left,"[""left""]",[1.794999999999959],False,,0.0,0.0,85.0,85.0,85.0,1.0,,,,,,
,,,,,,,,,,,,,,,,,,,,,0.025,,,,,,,,,,Stimuli/psy_flexible_rotation_30_objects_occ0.7_0.9s/images/train/n02933112_-2/n02818832_9/img_sink_base_white_wood_bed01_blue_2006_gray.jpg,n02933112_-2,n02818832_9,flexible,0.722283,n02818832_9,Stimuli/psy_flexible_rotation_30_objects_occ0.7_0.9s/images/train/n02933112_-2/n02818832_9/img_sink_base_white_wood_bed01_blue_2006-3_gray.png,foreground,same as foreground,n02933112_-2,n02883344_0,Stimuli/canonical view 2/img_n02933112_-2_gray.jpg,Stimuli/canonical view 2/img_n02883344_0_gray.jpg,random,left,Experiments/experiment_13/344.jpg,Experiments/experiment_13/345.jpg,Experiments/experiment_13/346.jpg,Experiments/experiment_13/347.jpg,269,1,2023-09-17_10h50.30.176,Occlusion_Psychophysics,2022.1.4,Win32,32,,,left,"[""left""]",[1.3299999999999272],False,,0.0,0.0,86.0,86.0,86.0,1.0,,,,,,
,,,,,,,,,,,,,,,,,,,,,0.025,,,,,,,,,,Stimuli/psy_flexible_rotation_30_objects_occ0.7_0.9s/images/train/n02883344_0/n02883344_15/img_b03_box_microwave_box_2011_gray.jpg,n02883344_0,n02883344_15,flexible,0.834711,n02818832_0,Stimuli/psy_flexible_rotation_30_objects_occ0.7_0.9s/images/train/n04070727_5/n02818832_0/img_b05_db_apps_tech_06_13_composite_b03_the_sofa_and_chair_company_-_stanley_bed_2014_2009-3_gray.png,random,flexible,n02883344_0,n02883344_15,Stimuli/canonical view 2/img_n02883344_0_gray.jpg,Stimuli/canonical view 2/img_n02883344_15_gray.jpg,foreground,right,Experiments/experiment_13/348.jpg,Experiments/experiment_13/349.jpg,Experiments/experiment_13/350.jpg,Experiments/experiment_13/351.jpg,269,1,2023-09-17_10h50.30.176,Occlusion_Psychophysics,2022.1.4,Win32,32,,,left,"[""left""]",[1.7699999999999818],False,,0.0,0.0,87.0,87.0,87.0,1.0,,,,,,
,,,,,,,,,,,,,,,,,,,,,0.025,,,,,,,,,,Stimuli/psy_fixed_rotation_30_objects_occ0.7_0.9s/images/train/n03928116_10/n02933112_-2/img_ydp_103_r_2012__vray_sink_base_white_wood_2008_gray.jpg,n03928116_10,n02933112_-2,fixed,0.838852,n03928116_0,Stimuli/psy_flexible_rotation_30_objects_occ0.7_0.9s/images/train/n02818832_0/n03928116_0/img_b03_the_sofa_and_chair_company_-_stanley_bed_2014_b02_piano_2003-3_gray.png,random,flexible,n03928116_10,n02933112_-2,Stimuli/canonical view 2/img_n03928116_10_gray.jpg,Stimuli/canonical view 2/img_n02933112_-2_gray.jpg,foreground,right,Experiments/experiment_13/352.jpg,Experiments/experiment_13/353.jpg,Experiments/experiment_13/354.jpg,Experiments/experiment_13/355.jpg,269,1,2023-09-17_10h50.30.176,Occlusion_Psychophysics,2022.1.4,Win32,32,,,left,"[""left""]",[0.8209999999999127],False,,0.0,0.0,88.0,88.0,88.0,1.0,,,,,,
,,,,,,,,,,,,,,,,,,,,,0.025,,,,,,,,,,Stimuli/psy_fixed_rotation_30_objects_occ0.7_0.9s/images/train/n03928116_0/n03001627_8/img_b02_piano_chair_billiani_doll_2015_gray.jpg,n03928116_0,n03001627_8,fixed,0.766667,n03928116_10,Stimuli/psy_flexible_rotation_30_objects_occ0.7_0.9s/images/train/n02818832_9/n03928116_10/img_bed01_blue_ydp_103_r_2012__vray_2008-3_gray.png,random,flexible,n03928116_0,n03001627_8,Stimuli/canonical view 2/img_n03928116_0_gray.jpg,Stimuli/canonical view 2/img_n03001627_8_gray.jpg,foreground,left,Experiments/experiment_13/356.jpg,Experiments/experiment_13/357.jpg,Experiments/experiment_13/358.jpg,Experiments/experiment_13/359.jpg,269,1,2023-09-17_10h50.30.176,Occlusion_Psychophysics,2022.1.4,Win32,32,,,right,"[""right""]",[0.9629999999999654],False,,0.0,0.0,89.0,89.0,89.0,1.0,,,,,,
,,,,,,,,,,,,,,,,,,,,,0.025,,,,,,,,,,Stimuli/psy_flexible_rotation_30_objects_occ0.7_0.9s/images/train/n02818832_9/n04379243_0/img_bed01_blue_17th_c._monastery_dining_table_2010_2014_gray.jpg,n02818832_9,n04379243_0,flexible,0.775625,n02818832_0,Stimuli/psy_fixed_rotation_30_objects_occ0.7_0.9s/images/train/n02828884_4/n02818832_0/img_b05_c-5_classic_series_bench-2012_b03_the_sofa_and_chair_company_-_stanley_bed_2014_2002-3_gray.png,random,fixed,n02818832_9,n04379243_0,Stimuli/canonical view 2/img_n02818832_9_gray.jpg,Stimuli/canonical view 2/img_n04379243_0_gray.jpg,foreground,right,Experiments/experiment_13/360.jpg,Experiments/experiment_13/361.jpg,Experiments/experiment_13/362.jpg,Experiments/experiment_13/363.jpg,269,1,2023-09-17_10h50.30.176,Occlusion_Psychophysics,2022.1.4,Win32,32,,,left,"[""right""]",[0.9180000000000064],False,,0.0,0.0,90.0,90.0,90.0,1.0,,,,,,
,,,,,,,,,,,,,,,,,,,,,0.025,,,,,,,,,,Stimuli/psy_flexible_rotation_30_objects_occ0.7_0.9s/images/train/n04379243_0/n03928116_10/img_17th_c._monastery_dining_table_2010_ydp_103_r_2012__vray_2004_gray.jpg,n04379243_0,n03928116_10,flexible,0.738274,n03928116_10,Stimuli/psy_flexible_rotation_30_objects_occ0.7_0.9s/images/train/n04379243_0/n03928116_10/img_17th_c._monastery_dining_table_2010_ydp_103_r_2012__vray_2004-3_gray.png,foreground,same as foreground,n04379243_0,n03928116_10,Stimuli/canonical view 2/img_n04379243_0_gray.jpg,Stimuli/canonical view 2/img_n03928116_10_gray.jpg,foreground,right,Experiments/experiment_13/364.jpg,Experiments/experiment_13/365.jpg,Experiments/experiment_13/366.jpg,Experiments/experiment_13/367.jpg,269,1,2023-09-17_10h50.30.176,Occlusion_Psychophysics,2022.1.4,Win32,32,,,left,"[""left""]",[0.8339999999999463],False,,0.0,0.0,91.0,91.0,91.0,1.0,,,,,,
,,,,,,,,,,,,,,,,,,,,,0.05,,,,,,,,,,Stimuli/psy_fixed_rotation_30_objects_occ0.7_0.9s/images/train/n04379243_8/n02933112_-2/img_glass_table_sink_base_white_wood_2011_gray.jpg,n04379243_8,n02933112_-2,fixed,0.85815,n02933112_-2,Stimuli/psy_fixed_rotation_30_objects_occ0.7_0.9s/images/train/n04379243_8/n02933112_-2/img_glass_table_sink_base_white_wood_2011-3_gray.png,foreground,same as foreground,n04379243_8,n02933112_-2,Stimuli/canonical view 2/img_n04379243_8_gray.jpg,Stimuli/canonical view 2/img_n02933112_-2_gray.jpg,foreground,left,Experiments/experiment_13/368.jpg,Experiments/experiment_13/369.jpg,Experiments/experiment_13/370.jpg,Experiments/experiment_13/371.jpg,269,1,2023-09-17_10h50.30.176,Occlusion_Psychophysics,2022.1.4,Win32,32,,,right,"[""right""]",[0.8999999999999773],True,right,1.0,0.0,92.0,92.0,92.0,1.0,0.853,,,,,
,,,,,,,,,,,,,,,,,,,,,0.025,,,,,,,,,,Stimuli/psy_fixed_rotation_30_objects_occ0.7_0.9s/images/train/n04379243_0/n02818832_3/img_17th_c._monastery_dining_table_2010_b05_ccm_contemporary_bed_max2013_2003_gray.jpg,n04379243_0,n02818832_3,fixed,0.743017,n02818832_3,Stimuli/psy_fixed_rotation_30_objects_occ0.7_0.9s/images/train/n04379243_0/n02818832_3/img_17th_c._monastery_dining_table_2010_b05_ccm_contemporary_bed_max2013_2003-3_gray.png,foreground,same as foreground,n04379243_0,n02818832_3,Stimuli/canonical view 2/img_n04379243_0_gray.jpg,Stimuli/canonical view 2/img_n02818832_3_gray.jpg,foreground,left,Experiments/experiment_13/372.jpg,Experiments/experiment_13/373.jpg,Experiments/experiment_13/374.jpg,Experiments/experiment_13/375.jpg,269,1,2023-09-17_10h50.30.176,Occlusion_Psychophysics,2022.1.4,Win32,32,,,right,"[""right""]",[0.95900000000006],False,,0.0,0.0,93.0,93.0,93.0,1.0,,,,,,
,,,,,,,,,,,,,,,,,,,,,0.025,,,,,,,,,,Stimuli/psy_fixed_rotation_30_objects_occ0.7_0.9s/images/train/n03928116_4/n02818832_0/img_dp_33_b_2013__vray_b03_the_sofa_and_chair_company_-_stanley_bed_2014_2012_gray.jpg,n03928116_4,n02818832_0,fixed,0.77405,n02933112_-2,Stimuli/psy_fixed_rotation_30_objects_occ0.7_0.9s/images/train/n04256520_5/n02933112_-2/img_meridiani_belmondo_bench_sofa_sink_base_white_wood_2005-3_gray.png,random,fixed,n03928116_4,n02818832_0,Stimuli/canonical view 2/img_n03928116_4_gray.jpg,Stimuli/canonical view 2/img_n02818832_0_gray.jpg,foreground,left,Experiments/experiment_13/376.jpg,Experiments/experiment_13/377.jpg,Experiments/experiment_13/378.jpg,Experiments/experiment_13/379.jpg,269,1,2023-09-17_10h50.30.176,Occlusion_Psychophysics,2022.1.4,Win32,32,,,right,"[""right""]",[1.6089999999999236],False,,0.0,0.0,94.0,94.0,94.0,1.0,,,,,,
,,,,,,,,,,,,,,,,,,,,,0.05,,,,,,,,,,Stimuli/psy_flexible_rotation_30_objects_occ0.7_0.9s/images/train/n02883344_15/n03928116_4/img_microwave_box_dp_33_b_2013__vray_2014_gray.jpg,n02883344_15,n03928116_4,flexible,0.759228,n03928116_4,Stimuli/psy_flexible_rotation_30_objects_occ0.7_0.9s/images/train/n02883344_15/n03928116_4/img_microwave_box_dp_33_b_2013__vray_2014-3_gray.png,foreground,same as foreground,n02883344_15,n03928116_4,Stimuli/canonical view 2/img_n02883344_15_gray.jpg,Stimuli/canonical view 2/img_n03928116_4_gray.jpg,foreground,right,Experiments/experiment_13/380.jpg,Experiments/experiment_13/381.jpg,Experiments/experiment_13/382.jpg,Experiments/experiment_13/383.jpg,269,1,2023-09-17_10h50.30.176,Occlusion_Psychophysics,2022.1.4,Win32,32,,,left,"[""left""]",[1.5450000000000728],False,,0.0,0.0,95.0,95.0,95.0,1.0,,,,,,
,,,,,,,,,,,,,,,,,,,,,0.025,,,,,,,,,,Stimuli/psy_fixed_rotation_30_objects_occ0.7_0.9s/images/train/n04379243_-7/n04379243_0/img_quatre_dining_table_17th_c._monastery_dining_table_2010_2014_gray.jpg,n04379243_-7,n04379243_0,fixed,0.704189,n04379243_0,Stimuli/psy_fixed_rotation_30_objects_occ0.7_0.9s/images/train/n04379243_-7/n04379243_0/img_quatre_dining_table_17th_c._monastery_dining_table_2010_2014-3_gray.png,foreground,same as foreground,n04379243_-7,n04405907_5,Stimuli/canonical view 2/img_n04379243_-7_gray.jpg,Stimuli/canonical view 2/img_n04405907_5_gray.jpg,random,right,Experiments/experiment_13/384.jpg,Experiments/experiment_13/385.jpg,Experiments/experiment_13/386.jpg,Experiments/experiment_13/387.jpg,269,1,2023-09-17_10h50.30.176,Occlusion_Psychophysics,2022.1.4,Win32,32,,,right,"[""right""]",[0.8940000000000055],False,,0.0,0.0,96.0,96.0,96.0,1.0,,,,,,
,,,,,,,,,,,,,,,,,,,,,0.025,,,,,,,,,,Stimuli/psy_fixed_rotation_30_objects_occ0.7_0.9s/images/train/n04379243_-7/n03928116_4/img_quatre_dining_table_dp_33_b_2013__vray_2012_gray.jpg,n04379243_-7,n03928116_4,fixed,0.72852,n02818832_0,Stimuli/psy_fixed_rotation_30_objects_occ0.7_0.9s/images/train/n04070727_3/n02818832_0/img_b05_db_apps_tech_06_02_2_composite_b03_the_sofa_and_chair_company_-_stanley_bed_2014_2002-3_gray.png,random,fixed,n04379243_-7,n03928116_4,Stimuli/canonical view 2/img_n04379243_-7_gray.jpg,Stimuli/canonical view 2/img_n03928116_4_gray.jpg,foreground,right,Experiments/experiment_13/388.jpg,Experiments/experiment_13/389.jpg,Experiments/experiment_13/390.jpg,Experiments/experiment_13/391.jpg,269,1,2023-09-17_10h50.30.176,Occlusion_Psychophysics,2022.1.4,Win32,32,,,right,"[""right""]",[2.0539999999999736],True,left,1.0,0.0,97.0,97.0,97.0,1.0,0.867,,,,,
,,,,,,,,,,,,,,,,,,,,,0.05,,,,,,,,,,Stimuli/psy_flexible_rotation_30_objects_occ0.7_0.9s/images/train/n02883344_-1/n04405907_9/img_woven_box_vray_004_2008_gray.jpg,n02883344_-1,n04405907_9,flexible,0.848626,n04256520_4,Stimuli/psy_flexible_rotation_30_objects_occ0.7_0.9s/images/train/n02818832_3/n04256520_4/img_b05_ccm_contemporary_bed_max2013_club_house_italia_nautilus_sofa_2005-3_gray.png,random,flexible,n02883344_-1,n04405907_9,Stimuli/canonical view 2/img_n02883344_-1_gray.jpg,Stimuli/canonical view 2/img_n04405907_9_gray.jpg,foreground,left,Experiments/experiment_13/392.jpg,Experiments/experiment_13/393.jpg,Experiments/experiment_13/394.jpg,Experiments/experiment_13/395.jpg,269,1,2023-09-17_10h50.30.176,Occlusion_Psychophysics,2022.1.4,Win32,32,,,right,"[""right""]",[1.2430000000000518],False,,0.0,0.0,98.0,98.0,98.0,1.0,,,,,,
,,,,,,,,,,,,,,,,,,,,,0.025,,,,,,,,,,Stimuli/psy_flexible_rotation_30_objects_occ0.7_0.9s/images/train/n03928116_10/n03928116_0/img_ydp_103_r_2012__vray_b02_piano_2004_gray.jpg,n03928116_10,n03928116_0,flexible,0.796713,n03928116_0,Stimuli/psy_flexible_rotation_30_objects_occ0.7_0.9s/images/train/n03928116_10/n03928116_0/img_ydp_103_r_2012__vray_b02_piano_2004-3_gray.png,foreground,same as foreground,n03928116_10,n02933112_-18,Stimuli/canonical view 2/img_n03928116_10_gray.jpg,Stimuli/canonical view 2/img_n02933112_-18_gray.jpg,random,right,Experiments/experiment_13/396.jpg,Experiments/experiment_13/397.jpg,Experiments/experiment_13/398.jpg,Experiments/experiment_13/399.jpg,269,1,2023-09-17_10h50.30.176,Occlusion_Psychophysics,2022.1.4,Win32,32,,,left,"[""left""]",[1.1730000000000018],False,,0.0,0.0,99.0,99.0,99.0,1.0,,,,,,
,,,,,,,,,,,,,,,,,,,,,,,,,,,,,,,,,,,,,,,,,,,,,,,,,,269,1,2023-09-17_10h50.30.176,Occlusion_Psychophysics,2022.1.4,Win32,32,,,,,,,,,,,,,,,0.0,0.0,0.0,0.0,1.0
,,,,,,,,,,,,,,,,,,,,,0.025,,,,,,,,,,Stimuli/psy_flexible_rotation_30_objects_occ0.7_0.9s/images/train/n02933112_4/n02883344_15/img_buffet_microwave_box_2000_gray.jpg,n02933112_4,n02883344_15,flexible,0.70174,n02883344_15,Stimuli/psy_flexible_rotation_30_objects_occ0.7_0.9s/images/train/n02933112_4/n02883344_15/img_buffet_microwave_box_2000-3_gray.png,foreground,same as foreground,n02933112_4,n02883344_15,Stimuli/canonical view 2/img_n02933112_4_gray.jpg,Stimuli/canonical view 2/img_n02883344_15_gray.jpg,foreground,right,Experiments/experiment_13/400.jpg,Experiments/experiment_13/401.jpg,Experiments/experiment_13/402.jpg,Experiments/experiment_13/403.jpg,269,1,2023-09-17_10h50.30.176,Occlusion_Psychophysics,2022.1.4,Win32,32,,,right,"[""right""]",[1.1180000000000518],False,,0.0,0.0,0.0,0.0,0.0,1.0,,,,,,
,,,,,,,,,,,,,,,,,,,,,0.05,,,,,,,,,,Stimuli/psy_flexible_rotation_30_objects_occ0.7_0.9s/images/train/n02828884_4/n04379243_0/img_b05_c-5_classic_series_bench-2012_17th_c._monastery_dining_table_2010_2006_gray.jpg,n02828884_4,n04379243_0,flexible,0.726651,n04379243_0,Stimuli/psy_flexible_rotation_30_objects_occ0.7_0.9s/images/train/n02828884_4/n04379243_0/img_b05_c-5_classic_series_bench-2012_17th_c._monastery_dining_table_2010_2006-3_gray.png,foreground,same as foreground,n02828884_4,n04379243_0,Stimuli/canonical view 2/img_n02828884_4_gray.jpg,Stimuli/canonical view 2/img_n04379243_0_gray.jpg,foreground,right,Experiments/experiment_13/404.jpg,Experiments/experiment_13/405.jpg,Experiments/experiment_13/406.jpg,Experiments/experiment_13/407.jpg,269,1,2023-09-17_10h50.30.176,Occlusion_Psychophysics,2022.1.4,Win32,32,,,left,"[""right""]",[1.1449999999999818],True,right,1.0,0.0,1.0,1.0,1.0,1.0,0.894,,,,,
,,,,,,,,,,,,,,,,,,,,,0.05,,,,,,,,,,Stimuli/psy_flexible_rotation_30_objects_occ0.7_0.9s/images/train/n02818832_3/n04256520_4/img_b05_ccm_contemporary_bed_max2013_club_house_italia_nautilus_sofa_2005_gray.jpg,n02818832_3,n04256520_4,flexible,0.763717,n04256520_4,Stimuli/psy_flexible_rotation_30_objects_occ0.7_0.9s/images/train/n02818832_3/n04256520_4/img_b05_ccm_contemporary_bed_max2013_club_house_italia_nautilus_sofa_2005-3_gray.png,foreground,same as foreground,n02818832_3,n04256520_4,Stimuli/canonical view 2/img_n02818832_3_gray.jpg,Stimuli/canonical view 2/img_n04256520_4_gray.jpg,foreground,left,Experiments/experiment_13/408.jpg,Experiments/experiment_13/409.jpg,Experiments/experiment_13/410.jpg,Experiments/experiment_13/411.jpg,269,1,2023-09-17_10h50.30.176,Occlusion_Psychophysics,2022.1.4,Win32,32,,,left,"[""left""]",[0.8859999999999673],False,,0.0,0.0,2.0,2.0,2.0,1.0,,,,,,
,,,,,,,,,,,,,,,,,,,,,0.05,,,,,,,,,,Stimuli/psy_flexible_rotation_30_objects_occ0.7_0.9s/images/train/n02933112_-18/n02933112_-2/img_cgaxis_models_48_26_vray_composite_sink_base_white_wood_2001_gray.jpg,n02933112_-18,n02933112_-2,flexible,0.777414,n04405907_9,Stimuli/psy_fixed_rotation_30_objects_occ0.7_0.9s/images/train/n04405907_9/n04405907_9/img_vray_004_vray_004_2001-3_gray.png,random,fixed,n02933112_-18,n02933112_-2,Stimuli/canonical view 2/img_n02933112_-18_gray.jpg,Stimuli/canonical view 2/img_n02933112_-2_gray.jpg,foreground,right,Experiments/experiment_13/412.jpg,Experiments/experiment_13/413.jpg,Experiments/experiment_13/414.jpg,Experiments/experiment_13/415.jpg,269,1,2023-09-17_10h50.30.176,Occlusion_Psychophysics,2022.1.4,Win32,32,,,left,"[""left""]",[0.9239999999999782],False,,0.0,0.0,3.0,3.0,3.0,1.0,,,,,,
,,,,,,,,,,,,,,,,,,,,,0.025,,,,,,,,,,Stimuli/psy_flexible_rotation_30_objects_occ0.7_0.9s/images/train/n02818832_0/n02818832_3/img_b03_the_sofa_and_chair_company_-_stanley_bed_2014_b05_ccm_contemporary_bed_max2013_2014_gray.jpg,n02818832_0,n02818832_3,flexible,0.706731,n02883344_-1,Stimuli/psy_flexible_rotation_30_objects_occ0.7_0.9s/images/train/n02933112_-18/n02883344_-1/img_cgaxis_models_48_26_vray_composite_woven_box_2009-3_gray.png,random,flexible,n02818832_0,n02818832_3,Stimuli/canonical view 2/img_n02818832_0_gray.jpg,Stimuli/canonical view 2/img_n02818832_3_gray.jpg,foreground,left,Experiments/experiment_13/416.jpg,Experiments/experiment_13/417.jpg,Experiments/experiment_13/418.jpg,Experiments/experiment_13/419.jpg,269,1,2023-09-17_10h50.30.176,Occlusion_Psychophysics,2022.1.4,Win32,32,,,right,"[""left""]",[1.490000000000009],False,,0.0,0.0,4.0,4.0,4.0,1.0,,,,,,
,,,,,,,,,,,,,,,,,,,,,0.05,,,,,,,,,,Stimuli/psy_flexible_rotation_30_objects_occ0.7_0.9s/images/train/n04405907_8/n02883344_15/img_stylized_tv_microwave_box_2003_gray.jpg,n04405907_8,n02883344_15,flexible,0.840821,n02883344_15,Stimuli/psy_flexible_rotation_30_objects_occ0.7_0.9s/images/train/n04405907_8/n02883344_15/img_stylized_tv_microwave_box_2003-3_gray.png,foreground,same as foreground,n04405907_8,n02883344_15,Stimuli/canonical view 2/img_n04405907_8_gray.jpg,Stimuli/canonical view 2/img_n02883344_15_gray.jpg,foreground,left,Experiments/experiment_13/420.jpg,Experiments/experiment_13/421.jpg,Experiments/experiment_13/422.jpg,Experiments/experiment_13/423.jpg,269,1,2023-09-17_10h50.30.176,Occlusion_Psychophysics,2022.1.4,Win32,32,,,right,"[""right""]",[1.169999999999959],False,,0.0,0.0,5.0,5.0,5.0,1.0,,,,,,
,,,,,,,,,,,,,,,,,,,,,0.025,,,,,,,,,,Stimuli/psy_flexible_rotation_30_objects_occ0.7_0.9s/images/train/n02828884_3/n02883344_-1/img_b04_wood_metal_park_bench_woven_box_2004_gray.jpg,n02828884_3,n02883344_-1,flexible,0.734017,n02883344_-1,Stimuli/psy_flexible_rotation_30_objects_occ0.7_0.9s/images/train/n02828884_3/n02883344_-1/img_b04_wood_metal_park_bench_woven_box_2004-3_gray.png,foreground,same as foreground,n02828884_3,n02883344_-1,Stimuli/canonical view 2/img_n02828884_3_gray.jpg,Stimuli/canonical view 2/img_n02883344_-1_gray.jpg,foreground,right,Experiments/experiment_13/424.jpg,Experiments/experiment_13/425.jpg,Experiments/experiment_13/426.jpg,Experiments/experiment_13/427.jpg,269,1,2023-09-17_10h50.30.176,Occlusion_Psychophysics,2022.1.4,Win32,32,,,right,"[""right""]",[0.8600000000000136],False,,0.0,0.0,6.0,6.0,6.0,1.0,,,,,,
,,,,,,,,,,,,,,,,,,,,,0.025,,,,,,,,,,Stimuli/psy_fixed_rotation_30_objects_occ0.7_0.9s/images/train/n03001627_8/n04405907_8/img_chair_billiani_doll_stylized_tv_2006_gray.jpg,n03001627_8,n04405907_8,fixed,0.752604,n02828884_9,Stimuli/psy_flexible_rotation_30_objects_occ0.7_0.9s/images/train/n02883344_0/n02828884_9/img_b03_box_cr-96_bench_2002-3_gray.png,random,flexible,n03001627_8,n04379243_0,Stimuli/canonical view 2/img_n03001627_8_gray.jpg,Stimuli/canonical view 2/img_n04379243_0_gray.jpg,random,left,Experiments/experiment_13/428.jpg,Experiments/experiment_13/429.jpg,Experiments/experiment_13/430.jpg,Experiments/experiment_13/431.jpg,269,1,2023-09-17_10h50.30.176,Occlusion_Psychophysics,2022.1.4,Win32,32,,,right,"[""right""]",[0.9539999999999509],False,,0.0,0.0,7.0,7.0,7.0,1.0,,,,,,
,,,,,,,,,,,,,,,,,,,,,0.025,,,,,,,,,,Stimuli/psy_flexible_rotation_30_objects_occ0.7_0.9s/images/train/n04405907_8/n02883344_0/img_stylized_tv_b03_box_2005_gray.jpg,n04405907_8,n02883344_0,flexible,0.762058,n04379243_0,Stimuli/psy_flexible_rotation_30_objects_occ0.7_0.9s/images/train/n02883344_0/n04379243_0/img_b03_box_17th_c._monastery_dining_table_2010_2005-3_gray.png,random,flexible,n04405907_8,n02883344_0,Stimuli/canonical view 2/img_n04405907_8_gray.jpg,Stimuli/canonical view 2/img_n02883344_0_gray.jpg,foreground,right,Experiments/experiment_13/432.jpg,Experiments/experiment_13/433.jpg,Experiments/experiment_13/434.jpg,Experiments/experiment_13/435.jpg,269,1,2023-09-17_10h50.30.176,Occlusion_Psychophysics,2022.1.4,Win32,32,,,right,"[""right""]",[1.3880000000000337],False,,0.0,0.0,8.0,8.0,8.0,1.0,,,,,,
,,,,,,,,,,,,,,,,,,,,,0.05,,,,,,,,,,Stimuli/psy_flexible_rotation_30_objects_occ0.7_0.9s/images/train/n04379243_0/n02883344_15/img_17th_c._monastery_dining_table_2010_microwave_box_2003_gray.jpg,n04379243_0,n02883344_15,flexible,0.732864,n03928116_0,Stimuli/psy_fixed_rotation_30_objects_occ0.7_0.9s/images/train/n03928116_4/n03928116_0/img_dp_33_b_2013__vray_b02_piano_2005-3_gray.png,random,fixed,n04379243_0,n04256520_4,Stimuli/canonical view 2/img_n04379243_0_gray.jpg,Stimuli/canonical view 2/img_n04256520_4_gray.jpg,random,right,Experiments/experiment_13/436.jpg,Experiments/experiment_13/437.jpg,Experiments/experiment_13/438.jpg,Experiments/experiment_13/439.jpg,269,1,2023-09-17_10h50.30.176,Occlusion_Psychophysics,2022.1.4,Win32,32,,,left,"[""left""]",[1.3880000000000337],False,,0.0,0.0,9.0,9.0,9.0,1.0,,,,,,
,,,,,,,,,,,,,,,,,,,,,0.05,,,,,,,,,,Stimuli/psy_flexible_rotation_30_objects_occ0.7_0.9s/images/train/n04379243_-7/n02818832_0/img_quatre_dining_table_b03_the_sofa_and_chair_company_-_stanley_bed_2014_2011_gray.jpg,n04379243_-7,n02818832_0,flexible,0.720465,n04405907_5,Stimuli/psy_fixed_rotation_30_objects_occ0.7_0.9s/images/train/n04256520_9/n04405907_5/img_napoleon_iii_sofa_samsung_40_uhd_smart_tv_2011_2007-3_gray.png,random,fixed,n04379243_-7,n02818832_0,Stimuli/canonical view 2/img_n04379243_-7_gray.jpg,Stimuli/canonical view 2/img_n02818832_0_gray.jpg,foreground,right,Experiments/experiment_13/440.jpg,Experiments/experiment_13/441.jpg,Experiments/experiment_13/442.jpg,Experiments/experiment_13/443.jpg,269,1,2023-09-17_10h50.30.176,Occlusion_Psychophysics,2022.1.4,Win32,32,,,right,"[""right""]",[0.9510000000000218],False,,0.0,0.0,10.0,10.0,10.0,1.0,,,,,,
,,,,,,,,,,,,,,,,,,,,,0.025,,,,,,,,,,Stimuli/psy_fixed_rotation_30_objects_occ0.7_0.9s/images/train/n03928116_10/n04405907_9/img_ydp_103_r_2012__vray_vray_004_2015_gray.jpg,n03928116_10,n04405907_9,fixed,0.829626,n04405907_9,Stimuli/psy_fixed_rotation_30_objects_occ0.7_0.9s/images/train/n03928116_10/n04405907_9/img_ydp_103_r_2012__vray_vray_004_2015-3_gray.png,foreground,same as foreground,n03928116_10,n04405907_5,Stimuli/canonical view 2/img_n03928116_10_gray.jpg,Stimuli/canonical view 2/img_n04405907_5_gray.jpg,random,left,Experiments/experiment_13/444.jpg,Experiments/experiment_13/445.jpg,Experiments/experiment_13/446.jpg,Experiments/experiment_13/447.jpg,269,1,2023-09-17_10h50.30.176,Occlusion_Psychophysics,2022.1.4,Win32,32,,,left,"[""left""]",[1.5170000000000528],False,,0.0,0.0,11.0,11.0,11.0,1.0,,,,,,
,,,,,,,,,,,,,,,,,,,,,0.05,,,,,,,,,,Stimuli/psy_fixed_rotation_30_objects_occ0.7_0.9s/images/train/n03001627_9/n03928116_0/img_chair_eames_plastic_armchair_b02_piano_2009_gray.jpg,n03001627_9,n03928116_0,fixed,0.713595,n03928116_0,Stimuli/psy_fixed_rotation_30_objects_occ0.7_0.9s/images/train/n03001627_9/n03928116_0/img_chair_eames_plastic_armchair_b02_piano_2009-3_gray.png,foreground,same as foreground,n03001627_9,n02818832_9,Stimuli/canonical view 2/img_n03001627_9_gray.jpg,Stimuli/canonical view 2/img_n02818832_9_gray.jpg,random,right,Experiments/experiment_13/448.jpg,Experiments/experiment_13/449.jpg,Experiments/experiment_13/450.jpg,Experiments/experiment_13/451.jpg,269,1,2023-09-17_10h50.30.176,Occlusion_Psychophysics,2022.1.4,Win32,32,,,left,"[""left""]",[0.8949999999999818],True,right,1.0,0.0,12.0,12.0,12.0,1.0,0.868,,,,,
,,,,,,,,,,,,,,,,,,,,,0.025,,,,,,,,,,Stimuli/psy_fixed_rotation_30_objects_occ0.7_0.9s/images/train/n03928116_0/n04405907_8/img_b02_piano_stylized_tv_2012_gray.jpg,n03928116_0,n04405907_8,fixed,0.776366,n04405907_9,Stimuli/psy_flexible_rotation_30_objects_occ0.7_0.9s/images/train/n03928116_4/n04405907_9/img_dp_33_b_2013__vray_vray_004_2000-3_gray.png,random,flexible,n03928116_0,n04405907_8,Stimuli/canonical view 2/img_n03928116_0_gray.jpg,Stimuli/canonical view 2/img_n04405907_8_gray.jpg,foreground,right,Experiments/experiment_13/452.jpg,Experiments/experiment_13/453.jpg,Experiments/experiment_13/454.jpg,Experiments/experiment_13/455.jpg,269,1,2023-09-17_10h50.30.176,Occlusion_Psychophysics,2022.1.4,Win32,32,,,left,"[""left""]",[0.76299999999992],False,,0.0,0.0,13.0,13.0,13.0,1.0,,,,,,
,,,,,,,,,,,,,,,,,,,,,0.05,,,,,,,,,,Stimuli/psy_fixed_rotation_30_objects_occ0.7_0.9s/images/train/n02818832_0/n04405907_8/img_b03_the_sofa_and_chair_company_-_stanley_bed_2014_stylized_tv_2014_gray.jpg,n02818832_0,n04405907_8,fixed,0.745868,n04405907_8,Stimuli/psy_fixed_rotation_30_objects_occ0.7_0.9s/images/train/n02818832_0/n04405907_8/img_b03_the_sofa_and_chair_company_-_stanley_bed_2014_stylized_tv_2014-3_gray.png,foreground,same as foreground,n02818832_0,n04405907_8,Stimuli/canonical view 2/img_n02818832_0_gray.jpg,Stimuli/canonical view 2/img_n04405907_8_gray.jpg,foreground,right,Experiments/experiment_13/456.jpg,Experiments/experiment_13/457.jpg,Experiments/experiment_13/458.jpg,Experiments/experiment_13/459.jpg,269,1,2023-09-17_10h50.30.176,Occlusion_Psychophysics,2022.1.4,Win32,32,,,right,"[""right""]",[0.9049999999999727],False,,0.0,0.0,14.0,14.0,14.0,1.0,,,,,,
