in_color,Instructions_key.keys,Instructions_key.rt,Tutorial_instruction_key.keys,Tutorial_instruction_key.rt,Tutorial_fixation_ley.keys,Tutorial_fixation_ley.rt,Tutorial_single_img_key.keys,Tutorial_single_img_key.rt,Tutorial_intra_trial_fixation_key.keys,Tutorial_intra_trial_fixation_key.rt,Tutorial_stimulus_key.keys,Tutorial_stimulus_key.rt,Tutorial_response_key.keys,Tutorial_response_key.rt,Tutorial_attention_check_key.keys,Tutorial_attention_check_key.rt,advance_or_repeat.keys,advance_or_repeat.rt,End_tutorial.keys,End_tutorial.rt,Tutorial_loop.thisRepN,Tutorial_loop.thisTrialN,Tutorial_loop.thisN,Tutorial_loop.thisIndex,Tutorial_loop.ran,participant,session,date,expName,psychopyVersion,OS,frameRate,Practice_instructions_key.keys,Practice_instructions_key.rt,intra_trial_duration,Practice_key_response.keys,Practice_key_response.rt,Practice_react_key.keys,Practice_react_key.rt,Practice_loop.thisRepN,Practice_loop.thisTrialN,Practice_loop.thisN,Practice_loop.thisIndex,Practice_loop.ran,multi_object_filepath,background_id,foreground_id,multi_object_rotation,occlusion_level,single_object_id,single_object_filepath,single_is_foreground_or_random,single_object_rotation,background_choice_id,alt_choice_id,background_option_filepath,alternative_option_filepath,alternative_is_foreground_or_random,location_of_correct_answer,multi_object_exp_filename,single_object_exp_filename,background_option_exp_filename,alternative_option_exp_filename,Practice_end_key.keys,Practice_end_key.rt,correct_answer,Input_selection.keys,Was_attention_check,Attention_check.keys,Attention_check.corr,Each_session_loop.thisRepN,Each_session_loop.thisTrialN,Each_session_loop.thisN,Each_session_loop.thisIndex,Each_session_loop.ran,Input_selection.rt,Attention_check.rt,Num_sessions.thisRepN,Num_sessions.thisTrialN,Num_sessions.thisN,Num_sessions.thisIndex,Num_sessions.ran
False,space,50.1527,space,5.6762,space,8.3501,space,10.791,space,5.6569,space,2.1608,space,1.9996,space,1.5871,r,17.2654,space,1.044,0.0,0.0,0.0,0.0,1.0,322,1,2023-04-03_19h12.44.597,Occlusion_Psychophysics,2022.1.4,Win32,60.0024001,,,,,,,,,,,,,,,,,,,,,,,,,,,,,,,,,,,,,,,,,,,,,,,,,,
,,,,,,,,,,,,,,,,,,,,,,,,,,322,1,2023-04-03_19h12.44.597,Occlusion_Psychophysics,2022.1.4,Win32,60.0024001,a,16.4638,0.025,left,11.4052,a,10.0304,0.0,0.0,0.0,0.0,1.0,Stimuli/psy_fixed_rotation_30_objects_occ0.7_0.9s/images/train/n04405907_5/n04379243_0/img_samsung_40_uhd_smart_tv_2011_17th_c._monastery_dining_table_2010_2005_gray.jpg,n04405907_5,n04379243_0,fixed,0.71053,n04405907_8,Stimuli/psy_flexible_rotation_30_objects_occ0.7_0.9s/images/train/n02818832_3/n04405907_8/img_b05_ccm_contemporary_bed_max2013_stylized_tv_2003-3_gray.png,random,flexible,n04405907_5,n02828884_9,Stimuli/canonical view 2/img_n04405907_5_gray.jpg,Stimuli/canonical view 2/img_n02828884_9_gray.jpg,random,left,Experiments/experiment_46/1000.jpg,Experiments/experiment_46/1001.jpg,Experiments/experiment_46/1002.jpg,Experiments/experiment_46/1003.jpg,,,,,,,,,,,,,,,,,,,
,,,,,,,,,,,,,,,,,,,,,,,,,,322,1,2023-04-03_19h12.44.597,Occlusion_Psychophysics,2022.1.4,Win32,60.0024001,,,0.05,,,,,,,,,,Stimuli/psy_flexible_rotation_30_objects_occ0.7_0.9s/images/train/n02933112_4/n02883344_-1/img_buffet_woven_box_2009_gray.jpg,n02933112_4,n02883344_-1,flexible,0.716557,n02828884_3,Stimuli/psy_flexible_rotation_30_objects_occ0.7_0.9s/images/train/n02933112_4/n02828884_3/img_buffet_b04_wood_metal_park_bench_2010-3_gray.png,random,flexible,n02933112_4,n02883344_15,Stimuli/canonical view 2/img_n02933112_4_gray.jpg,Stimuli/canonical view 2/img_n02883344_15_gray.jpg,random,left,Experiments/experiment_46/0.jpg,Experiments/experiment_46/1.jpg,Experiments/experiment_46/2.jpg,Experiments/experiment_46/3.jpg,space,4.9141,right,,False,,0.0,0.0,0.0,0.0,0.0,1.0,,,,,,,
,,,,,,,,,,,,,,,,,,,,,,,,,,322,1,2023-04-03_19h12.44.597,Occlusion_Psychophysics,2022.1.4,Win32,60.0024001,,,0.025,,,,,,,,,,Stimuli/psy_fixed_rotation_30_objects_occ0.7_0.9s/images/train/n03928116_4/n04405907_9/img_dp_33_b_2013__vray_vray_004_2005_gray.jpg,n03928116_4,n04405907_9,fixed,0.722082,n04405907_9,Stimuli/psy_fixed_rotation_30_objects_occ0.7_0.9s/images/train/n03928116_4/n04405907_9/img_dp_33_b_2013__vray_vray_004_2005-3_gray.png,foreground,same as foreground,n03928116_4,n04405907_9,Stimuli/canonical view 2/img_n03928116_4_gray.jpg,Stimuli/canonical view 2/img_n04405907_9_gray.jpg,foreground,left,Experiments/experiment_46/4.jpg,Experiments/experiment_46/5.jpg,Experiments/experiment_46/6.jpg,Experiments/experiment_46/7.jpg,,,right,,False,,0.0,0.0,1.0,1.0,1.0,1.0,,,,,,,
,,,,,,,,,,,,,,,,,,,,,,,,,,322,1,2023-04-03_19h12.44.597,Occlusion_Psychophysics,2022.1.4,Win32,60.0024001,,,0.025,,,,,,,,,,Stimuli/psy_flexible_rotation_30_objects_occ0.7_0.9s/images/train/n02933112_-18/n03001627_8/img_cgaxis_models_48_26_vray_composite_chair_billiani_doll_2002_gray.jpg,n02933112_-18,n03001627_8,flexible,0.707122,n03001627_8,Stimuli/psy_flexible_rotation_30_objects_occ0.7_0.9s/images/train/n02933112_-18/n03001627_8/img_cgaxis_models_48_26_vray_composite_chair_billiani_doll_2002-3_gray.png,foreground,same as foreground,n02933112_-18,n02883344_15,Stimuli/canonical view 2/img_n02933112_-18_gray.jpg,Stimuli/canonical view 2/img_n02883344_15_gray.jpg,random,left,Experiments/experiment_46/8.jpg,Experiments/experiment_46/9.jpg,Experiments/experiment_46/10.jpg,Experiments/experiment_46/11.jpg,,,right,,False,,0.0,0.0,2.0,2.0,2.0,1.0,,,,,,,
,,,,,,,,,,,,,,,,,,,,,,,,,,322,1,2023-04-03_19h12.44.597,Occlusion_Psychophysics,2022.1.4,Win32,60.0024001,,,0.025,,,,,,,,,,Stimuli/psy_fixed_rotation_30_objects_occ0.7_0.9s/images/train/n04405907_9/n02883344_-1/img_vray_004_woven_box_2001_gray.jpg,n04405907_9,n02883344_-1,fixed,0.780481,n02883344_-1,Stimuli/psy_fixed_rotation_30_objects_occ0.7_0.9s/images/train/n04405907_9/n02883344_-1/img_vray_004_woven_box_2001-3_gray.png,foreground,same as foreground,n04405907_9,n02883344_-1,Stimuli/canonical view 2/img_n04405907_9_gray.jpg,Stimuli/canonical view 2/img_n02883344_-1_gray.jpg,foreground,left,Experiments/experiment_46/12.jpg,Experiments/experiment_46/13.jpg,Experiments/experiment_46/14.jpg,Experiments/experiment_46/15.jpg,,,left,,False,,0.0,0.0,3.0,3.0,3.0,1.0,,,,,,,
,,,,,,,,,,,,,,,,,,,,,,,,,,322,1,2023-04-03_19h12.44.597,Occlusion_Psychophysics,2022.1.4,Win32,60.0024001,,,0.025,,,,,,,,,,Stimuli/psy_flexible_rotation_30_objects_occ0.7_0.9s/images/train/n02828884_3/n04405907_9/img_b04_wood_metal_park_bench_vray_004_2010_gray.jpg,n02828884_3,n04405907_9,flexible,0.796356,n04379243_0,Stimuli/psy_flexible_rotation_30_objects_occ0.7_0.9s/images/train/n02883344_-1/n04379243_0/img_woven_box_17th_c._monastery_dining_table_2010_2004-3_gray.png,random,flexible,n02828884_3,n04405907_9,Stimuli/canonical view 2/img_n02828884_3_gray.jpg,Stimuli/canonical view 2/img_n04405907_9_gray.jpg,foreground,right,Experiments/experiment_46/16.jpg,Experiments/experiment_46/17.jpg,Experiments/experiment_46/18.jpg,Experiments/experiment_46/19.jpg,,,right,,False,,0.0,0.0,4.0,4.0,4.0,1.0,,,,,,,
,,,,,,,,,,,,,,,,,,,,,,,,,,322,1,2023-04-03_19h12.44.597,Occlusion_Psychophysics,2022.1.4,Win32,60.0024001,,,0.025,,,,,,,,,,Stimuli/psy_fixed_rotation_30_objects_occ0.7_0.9s/images/train/n02828884_3/n03928116_0/img_b04_wood_metal_park_bench_b02_piano_2004_gray.jpg,n02828884_3,n03928116_0,fixed,0.746598,n03928116_0,Stimuli/psy_fixed_rotation_30_objects_occ0.7_0.9s/images/train/n02828884_3/n03928116_0/img_b04_wood_metal_park_bench_b02_piano_2004-3_gray.png,foreground,same as foreground,n02828884_3,n02933112_-2,Stimuli/canonical view 2/img_n02828884_3_gray.jpg,Stimuli/canonical view 2/img_n02933112_-2_gray.jpg,random,right,Experiments/experiment_46/20.jpg,Experiments/experiment_46/21.jpg,Experiments/experiment_46/22.jpg,Experiments/experiment_46/23.jpg,,,left,,False,,0.0,0.0,5.0,5.0,5.0,1.0,,,,,,,
,,,,,,,,,,,,,,,,,,,,,,,,,,322,1,2023-04-03_19h12.44.597,Occlusion_Psychophysics,2022.1.4,Win32,60.0024001,,,0.025,,,,,,,,,,Stimuli/psy_fixed_rotation_30_objects_occ0.7_0.9s/images/train/n02818832_9/n02818832_3/img_bed01_blue_b05_ccm_contemporary_bed_max2013_2011_gray.jpg,n02818832_9,n02818832_3,fixed,0.787143,n04379243_0,Stimuli/psy_fixed_rotation_30_objects_occ0.7_0.9s/images/train/n02883344_0/n04379243_0/img_b03_box_17th_c._monastery_dining_table_2010_2004-3_gray.png,random,fixed,n02818832_9,n04379243_0,Stimuli/canonical view 2/img_n02818832_9_gray.jpg,Stimuli/canonical view 2/img_n04379243_0_gray.jpg,random,left,Experiments/experiment_46/24.jpg,Experiments/experiment_46/25.jpg,Experiments/experiment_46/26.jpg,Experiments/experiment_46/27.jpg,,,right,"[""left""]",False,,0.0,0.0,6.0,6.0,6.0,1.0,[1.281900000005976],,,,,,
,,,,,,,,,,,,,,,,,,,,,,,,,,322,1,2023-04-03_19h12.44.597,Occlusion_Psychophysics,2022.1.4,Win32,60.0024001,,,0.05,,,,,,,,,,Stimuli/psy_flexible_rotation_30_objects_occ0.7_0.9s/images/train/n02828884_3/n02883344_-1/img_b04_wood_metal_park_bench_woven_box_2001_gray.jpg,n02828884_3,n02883344_-1,flexible,0.74365,n04379243_0,Stimuli/psy_fixed_rotation_30_objects_occ0.7_0.9s/images/train/n02933112_4/n04379243_0/img_buffet_17th_c._monastery_dining_table_2010_2012-3_gray.png,random,fixed,n02828884_3,n02883344_0,Stimuli/canonical view 2/img_n02828884_3_gray.jpg,Stimuli/canonical view 2/img_n02883344_0_gray.jpg,random,left,Experiments/experiment_46/28.jpg,Experiments/experiment_46/29.jpg,Experiments/experiment_46/30.jpg,Experiments/experiment_46/31.jpg,,,left,,False,,0.0,0.0,7.0,7.0,7.0,1.0,,,,,,,
,,,,,,,,,,,,,,,,,,,,,,,,,,322,1,2023-04-03_19h12.44.597,Occlusion_Psychophysics,2022.1.4,Win32,60.0024001,,,0.05,,,,,,,,,,Stimuli/psy_flexible_rotation_30_objects_occ0.7_0.9s/images/train/n04256520_4/n02818832_0/img_club_house_italia_nautilus_sofa_b03_the_sofa_and_chair_company_-_stanley_bed_2014_2009_gray.jpg,n04256520_4,n02818832_0,flexible,0.751992,n02818832_0,Stimuli/psy_flexible_rotation_30_objects_occ0.7_0.9s/images/train/n04256520_4/n02818832_0/img_club_house_italia_nautilus_sofa_b03_the_sofa_and_chair_company_-_stanley_bed_2014_2009-3_gray.png,foreground,same as foreground,n04256520_4,n02818832_3,Stimuli/canonical view 2/img_n04256520_4_gray.jpg,Stimuli/canonical view 2/img_n02818832_3_gray.jpg,random,left,Experiments/experiment_46/32.jpg,Experiments/experiment_46/33.jpg,Experiments/experiment_46/34.jpg,Experiments/experiment_46/35.jpg,,,left,,False,,0.0,0.0,8.0,8.0,8.0,1.0,,,,,,,
,,,,,,,,,,,,,,,,,,,,,,,,,,322,1,2023-04-03_19h12.44.597,Occlusion_Psychophysics,2022.1.4,Win32,60.0024001,,,0.025,,,,,,,,,,Stimuli/psy_flexible_rotation_30_objects_occ0.7_0.9s/images/train/n04405907_8/n04256520_9/img_stylized_tv_napoleon_iii_sofa_2013_gray.jpg,n04405907_8,n04256520_9,flexible,0.773537,n04256520_9,Stimuli/psy_flexible_rotation_30_objects_occ0.7_0.9s/images/train/n04405907_8/n04256520_9/img_stylized_tv_napoleon_iii_sofa_2013-3_gray.png,foreground,same as foreground,n04405907_8,n04256520_9,Stimuli/canonical view 2/img_n04405907_8_gray.jpg,Stimuli/canonical view 2/img_n04256520_9_gray.jpg,foreground,left,Experiments/experiment_46/36.jpg,Experiments/experiment_46/37.jpg,Experiments/experiment_46/38.jpg,Experiments/experiment_46/39.jpg,,,right,,False,,0.0,0.0,9.0,9.0,9.0,1.0,,,,,,,
,,,,,,,,,,,,,,,,,,,,,,,,,,322,1,2023-04-03_19h12.44.597,Occlusion_Psychophysics,2022.1.4,Win32,60.0024001,,,0.05,,,,,,,,,,Stimuli/psy_fixed_rotation_30_objects_occ0.7_0.9s/images/train/n02883344_0/n03928116_10/img_b03_box_ydp_103_r_2012__vray_2003_gray.jpg,n02883344_0,n03928116_10,fixed,0.736781,n03928116_4,Stimuli/psy_flexible_rotation_30_objects_occ0.7_0.9s/images/train/n04405907_9/n03928116_4/img_vray_004_dp_33_b_2013__vray_2010-3_gray.png,random,flexible,n02883344_0,n03001627_8,Stimuli/canonical view 2/img_n02883344_0_gray.jpg,Stimuli/canonical view 2/img_n03001627_8_gray.jpg,random,left,Experiments/experiment_46/40.jpg,Experiments/experiment_46/41.jpg,Experiments/experiment_46/42.jpg,Experiments/experiment_46/43.jpg,,,right,,False,,0.0,0.0,10.0,10.0,10.0,1.0,,,,,,,
,,,,,,,,,,,,,,,,,,,,,,,,,,322,1,2023-04-03_19h12.44.597,Occlusion_Psychophysics,2022.1.4,Win32,60.0024001,,,0.05,,,,,,,,,,Stimuli/psy_flexible_rotation_30_objects_occ0.7_0.9s/images/train/n02883344_-1/n04405907_8/img_woven_box_stylized_tv_2000_gray.jpg,n02883344_-1,n04405907_8,flexible,0.780145,n04405907_8,Stimuli/psy_flexible_rotation_30_objects_occ0.7_0.9s/images/train/n02883344_-1/n04405907_8/img_woven_box_stylized_tv_2000-3_gray.png,foreground,same as foreground,n02883344_-1,n04256520_4,Stimuli/canonical view 2/img_n02883344_-1_gray.jpg,Stimuli/canonical view 2/img_n04256520_4_gray.jpg,random,right,Experiments/experiment_46/44.jpg,Experiments/experiment_46/45.jpg,Experiments/experiment_46/46.jpg,Experiments/experiment_46/47.jpg,,,right,,False,,0.0,0.0,11.0,11.0,11.0,1.0,,,,,,,
,,,,,,,,,,,,,,,,,,,,,,,,,,322,1,2023-04-03_19h12.44.597,Occlusion_Psychophysics,2022.1.4,Win32,60.0024001,,,0.025,,,,,,,,,,Stimuli/psy_flexible_rotation_30_objects_occ0.7_0.9s/images/train/n04256520_5/n04405907_5/img_meridiani_belmondo_bench_sofa_samsung_40_uhd_smart_tv_2011_2004_gray.jpg,n04256520_5,n04405907_5,flexible,0.788559,n02818832_0,Stimuli/psy_flexible_rotation_30_objects_occ0.7_0.9s/images/train/n04256520_9/n02818832_0/img_napoleon_iii_sofa_b03_the_sofa_and_chair_company_-_stanley_bed_2014_2006-3_gray.png,random,flexible,n04256520_5,n04405907_5,Stimuli/canonical view 2/img_n04256520_5_gray.jpg,Stimuli/canonical view 2/img_n04405907_5_gray.jpg,foreground,left,Experiments/experiment_46/48.jpg,Experiments/experiment_46/49.jpg,Experiments/experiment_46/50.jpg,Experiments/experiment_46/51.jpg,,,left,,False,,0.0,0.0,12.0,12.0,12.0,1.0,,,,,,,
,,,,,,,,,,,,,,,,,,,,,,,,,,322,1,2023-04-03_19h12.44.597,Occlusion_Psychophysics,2022.1.4,Win32,60.0024001,,,0.025,,,,,,,,,,Stimuli/psy_flexible_rotation_30_objects_occ0.7_0.9s/images/train/n02933112_4/n04256520_4/img_buffet_club_house_italia_nautilus_sofa_2010_gray.jpg,n02933112_4,n04256520_4,flexible,0.717934,n04256520_4,Stimuli/psy_flexible_rotation_30_objects_occ0.7_0.9s/images/train/n02933112_4/n04256520_4/img_buffet_club_house_italia_nautilus_sofa_2010-3_gray.png,foreground,same as foreground,n02933112_4,n04256520_4,Stimuli/canonical view 2/img_n02933112_4_gray.jpg,Stimuli/canonical view 2/img_n04256520_4_gray.jpg,foreground,right,Experiments/experiment_46/52.jpg,Experiments/experiment_46/53.jpg,Experiments/experiment_46/54.jpg,Experiments/experiment_46/55.jpg,,,right,,False,,0.0,0.0,13.0,13.0,13.0,1.0,,,,,,,
,,,,,,,,,,,,,,,,,,,,,,,,,,322,1,2023-04-03_19h12.44.597,Occlusion_Psychophysics,2022.1.4,Win32,60.0024001,,,0.05,,,,,,,,,,Stimuli/psy_fixed_rotation_30_objects_occ0.7_0.9s/images/train/n04379243_0/n02828884_3/img_17th_c._monastery_dining_table_2010_b04_wood_metal_park_bench_2010_gray.jpg,n04379243_0,n02828884_3,fixed,0.854685,n04256520_9,Stimuli/psy_flexible_rotation_30_objects_occ0.7_0.9s/images/train/n02828884_4/n04256520_9/img_b05_c-5_classic_series_bench-2012_napoleon_iii_sofa_2001-3_gray.png,random,flexible,n04379243_0,n02828884_3,Stimuli/canonical view 2/img_n04379243_0_gray.jpg,Stimuli/canonical view 2/img_n02828884_3_gray.jpg,foreground,right,Experiments/experiment_46/56.jpg,Experiments/experiment_46/57.jpg,Experiments/experiment_46/58.jpg,Experiments/experiment_46/59.jpg,,,right,,False,,0.0,0.0,14.0,14.0,14.0,1.0,,,,,,,
,,,,,,,,,,,,,,,,,,,,,,,,,,322,1,2023-04-03_19h12.44.597,Occlusion_Psychophysics,2022.1.4,Win32,60.0024001,,,0.025,,,,,,,,,,Stimuli/psy_fixed_rotation_30_objects_occ0.7_0.9s/images/train/n03928116_0/n04256520_5/img_b02_piano_meridiani_belmondo_bench_sofa_2002_gray.jpg,n03928116_0,n04256520_5,fixed,0.732362,n02818832_3,Stimuli/psy_flexible_rotation_30_objects_occ0.7_0.9s/images/train/n04070727_5/n02818832_3/img_b05_db_apps_tech_06_13_composite_b05_ccm_contemporary_bed_max2013_2013-3_gray.png,random,flexible,n03928116_0,n04256520_5,Stimuli/canonical view 2/img_n03928116_0_gray.jpg,Stimuli/canonical view 2/img_n04256520_5_gray.jpg,foreground,left,Experiments/experiment_46/60.jpg,Experiments/experiment_46/61.jpg,Experiments/experiment_46/62.jpg,Experiments/experiment_46/63.jpg,,,right,,False,,0.0,0.0,15.0,15.0,15.0,1.0,,,,,,,
,,,,,,,,,,,,,,,,,,,,,,,,,,322,1,2023-04-03_19h12.44.597,Occlusion_Psychophysics,2022.1.4,Win32,60.0024001,,,0.05,,,,,,,,,,Stimuli/psy_flexible_rotation_30_objects_occ0.7_0.9s/images/train/n04405907_5/n04405907_9/img_samsung_40_uhd_smart_tv_2011_vray_004_2013_gray.jpg,n04405907_5,n04405907_9,flexible,0.730196,n04405907_9,Stimuli/psy_flexible_rotation_30_objects_occ0.7_0.9s/images/train/n04405907_5/n04405907_9/img_samsung_40_uhd_smart_tv_2011_vray_004_2013-3_gray.png,foreground,same as foreground,n04405907_5,n04405907_9,Stimuli/canonical view 2/img_n04405907_5_gray.jpg,Stimuli/canonical view 2/img_n04405907_9_gray.jpg,foreground,right,Experiments/experiment_46/64.jpg,Experiments/experiment_46/65.jpg,Experiments/experiment_46/66.jpg,Experiments/experiment_46/67.jpg,,,right,,False,,0.0,0.0,16.0,16.0,16.0,1.0,,,,,,,
,,,,,,,,,,,,,,,,,,,,,,,,,,322,1,2023-04-03_19h12.44.597,Occlusion_Psychophysics,2022.1.4,Win32,60.0024001,,,0.025,,,,,,,,,,Stimuli/psy_flexible_rotation_30_objects_occ0.7_0.9s/images/train/n04256520_5/n04256520_4/img_meridiani_belmondo_bench_sofa_club_house_italia_nautilus_sofa_2008_gray.jpg,n04256520_5,n04256520_4,flexible,0.771612,n04256520_4,Stimuli/psy_flexible_rotation_30_objects_occ0.7_0.9s/images/train/n04256520_5/n04256520_4/img_meridiani_belmondo_bench_sofa_club_house_italia_nautilus_sofa_2008-3_gray.png,foreground,same as foreground,n04256520_5,n03928116_10,Stimuli/canonical view 2/img_n04256520_5_gray.jpg,Stimuli/canonical view 2/img_n03928116_10_gray.jpg,random,right,Experiments/experiment_46/68.jpg,Experiments/experiment_46/69.jpg,Experiments/experiment_46/70.jpg,Experiments/experiment_46/71.jpg,,,left,,False,,0.0,0.0,17.0,17.0,17.0,1.0,,,,,,,
,,,,,,,,,,,,,,,,,,,,,,,,,,322,1,2023-04-03_19h12.44.597,Occlusion_Psychophysics,2022.1.4,Win32,60.0024001,,,0.05,,,,,,,,,,Stimuli/psy_flexible_rotation_30_objects_occ0.7_0.9s/images/train/n03001627_9/n02883344_0/img_chair_eames_plastic_armchair_b03_box_2011_gray.jpg,n03001627_9,n02883344_0,flexible,0.734638,n02883344_15,Stimuli/psy_fixed_rotation_30_objects_occ0.7_0.9s/images/train/n02883344_-1/n02883344_15/img_woven_box_microwave_box_2005-3_gray.png,random,fixed,n03001627_9,n02883344_0,Stimuli/canonical view 2/img_n03001627_9_gray.jpg,Stimuli/canonical view 2/img_n02883344_0_gray.jpg,foreground,right,Experiments/experiment_46/72.jpg,Experiments/experiment_46/73.jpg,Experiments/experiment_46/74.jpg,Experiments/experiment_46/75.jpg,,,left,,False,,0.0,0.0,18.0,18.0,18.0,1.0,,,,,,,
,,,,,,,,,,,,,,,,,,,,,,,,,,322,1,2023-04-03_19h12.44.597,Occlusion_Psychophysics,2022.1.4,Win32,60.0024001,,,0.05,,,,,,,,,,Stimuli/psy_flexible_rotation_30_objects_occ0.7_0.9s/images/train/n04405907_9/n04405907_5/img_vray_004_samsung_40_uhd_smart_tv_2011_2000_gray.jpg,n04405907_9,n04405907_5,flexible,0.7053,n03928116_10,Stimuli/psy_fixed_rotation_30_objects_occ0.7_0.9s/images/train/n04379243_-7/n03928116_10/img_quatre_dining_table_ydp_103_r_2012__vray_2014-3_gray.png,random,fixed,n04405907_9,n04405907_5,Stimuli/canonical view 2/img_n04405907_9_gray.jpg,Stimuli/canonical view 2/img_n04405907_5_gray.jpg,foreground,left,Experiments/experiment_46/76.jpg,Experiments/experiment_46/77.jpg,Experiments/experiment_46/78.jpg,Experiments/experiment_46/79.jpg,,,right,,False,,0.0,0.0,19.0,19.0,19.0,1.0,,,,,,,
,,,,,,,,,,,,,,,,,,,,,,,,,,322,1,2023-04-03_19h12.44.597,Occlusion_Psychophysics,2022.1.4,Win32,60.0024001,,,0.025,,,,,,,,,,Stimuli/psy_flexible_rotation_30_objects_occ0.7_0.9s/images/train/n04256520_5/n04256520_9/img_meridiani_belmondo_bench_sofa_napoleon_iii_sofa_2006_gray.jpg,n04256520_5,n04256520_9,flexible,0.755763,n04256520_9,Stimuli/psy_flexible_rotation_30_objects_occ0.7_0.9s/images/train/n04256520_5/n04256520_9/img_meridiani_belmondo_bench_sofa_napoleon_iii_sofa_2006-3_gray.png,foreground,same as foreground,n04256520_5,n04405907_9,Stimuli/canonical view 2/img_n04256520_5_gray.jpg,Stimuli/canonical view 2/img_n04405907_9_gray.jpg,random,left,Experiments/experiment_46/80.jpg,Experiments/experiment_46/81.jpg,Experiments/experiment_46/82.jpg,Experiments/experiment_46/83.jpg,,,left,,False,,0.0,0.0,20.0,20.0,20.0,1.0,,,,,,,
,,,,,,,,,,,,,,,,,,,,,,,,,,322,1,2023-04-03_19h12.44.597,Occlusion_Psychophysics,2022.1.4,Win32,60.0024001,,,0.025,,,,,,,,,,Stimuli/psy_flexible_rotation_30_objects_occ0.7_0.9s/images/train/n04405907_8/n04256520_4/img_stylized_tv_club_house_italia_nautilus_sofa_2012_gray.jpg,n04405907_8,n04256520_4,flexible,0.708656,n04256520_4,Stimuli/psy_flexible_rotation_30_objects_occ0.7_0.9s/images/train/n04405907_8/n04256520_4/img_stylized_tv_club_house_italia_nautilus_sofa_2012-3_gray.png,foreground,same as foreground,n04405907_8,n04256520_4,Stimuli/canonical view 2/img_n04405907_8_gray.jpg,Stimuli/canonical view 2/img_n04256520_4_gray.jpg,foreground,left,Experiments/experiment_46/84.jpg,Experiments/experiment_46/85.jpg,Experiments/experiment_46/86.jpg,Experiments/experiment_46/87.jpg,,,right,,False,,0.0,0.0,21.0,21.0,21.0,1.0,,,,,,,
,,,,,,,,,,,,,,,,,,,,,,,,,,322,1,2023-04-03_19h12.44.597,Occlusion_Psychophysics,2022.1.4,Win32,60.0024001,,,0.05,,,,,,,,,,Stimuli/psy_fixed_rotation_30_objects_occ0.7_0.9s/images/train/n02828884_9/n03928116_0/img_cr-96_bench_b02_piano_2005_gray.jpg,n02828884_9,n03928116_0,fixed,0.752162,n03928116_0,Stimuli/psy_fixed_rotation_30_objects_occ0.7_0.9s/images/train/n02828884_9/n03928116_0/img_cr-96_bench_b02_piano_2005-3_gray.png,foreground,same as foreground,n02828884_9,n03928116_0,Stimuli/canonical view 2/img_n02828884_9_gray.jpg,Stimuli/canonical view 2/img_n03928116_0_gray.jpg,foreground,left,Experiments/experiment_46/88.jpg,Experiments/experiment_46/89.jpg,Experiments/experiment_46/90.jpg,Experiments/experiment_46/91.jpg,,,left,,True,,0.0,0.0,22.0,22.0,22.0,1.0,,,,,,,
,,,,,,,,,,,,,,,,,,,,,,,,,,322,1,2023-04-03_19h12.44.597,Occlusion_Psychophysics,2022.1.4,Win32,60.0024001,,,0.05,,,,,,,,,,Stimuli/psy_fixed_rotation_30_objects_occ0.7_0.9s/images/train/n04256520_5/n04405907_5/img_meridiani_belmondo_bench_sofa_samsung_40_uhd_smart_tv_2011_2009_gray.jpg,n04256520_5,n04405907_5,fixed,0.701066,n04405907_5,Stimuli/psy_fixed_rotation_30_objects_occ0.7_0.9s/images/train/n04256520_5/n04405907_5/img_meridiani_belmondo_bench_sofa_samsung_40_uhd_smart_tv_2011_2009-3_gray.png,foreground,same as foreground,n04256520_5,n04405907_5,Stimuli/canonical view 2/img_n04256520_5_gray.jpg,Stimuli/canonical view 2/img_n04405907_5_gray.jpg,foreground,left,Experiments/experiment_46/92.jpg,Experiments/experiment_46/93.jpg,Experiments/experiment_46/94.jpg,Experiments/experiment_46/95.jpg,,,right,,False,,0.0,0.0,23.0,23.0,23.0,1.0,,,,,,,
,,,,,,,,,,,,,,,,,,,,,,,,,,322,1,2023-04-03_19h12.44.597,Occlusion_Psychophysics,2022.1.4,Win32,60.0024001,,,0.025,,,,,,,,,,Stimuli/psy_flexible_rotation_30_objects_occ0.7_0.9s/images/train/n02883344_-1/n04405907_9/img_woven_box_vray_004_2007_gray.jpg,n02883344_-1,n04405907_9,flexible,0.744662,n04256520_5,Stimuli/psy_flexible_rotation_30_objects_occ0.7_0.9s/images/train/n02828884_4/n04256520_5/img_b05_c-5_classic_series_bench-2012_meridiani_belmondo_bench_sofa_2010-3_gray.png,random,flexible,n02883344_-1,n04405907_9,Stimuli/canonical view 2/img_n02883344_-1_gray.jpg,Stimuli/canonical view 2/img_n04405907_9_gray.jpg,foreground,left,Experiments/experiment_46/96.jpg,Experiments/experiment_46/97.jpg,Experiments/experiment_46/98.jpg,Experiments/experiment_46/99.jpg,,,left,,True,right,1.0,0.0,24.0,24.0,24.0,1.0,,0.7157,,,,,
,,,,,,,,,,,,,,,,,,,,,,,,,,322,1,2023-04-03_19h12.44.597,Occlusion_Psychophysics,2022.1.4,Win32,60.0024001,,,0.05,,,,,,,,,,Stimuli/psy_fixed_rotation_30_objects_occ0.7_0.9s/images/train/n04379243_0/n04405907_5/img_17th_c._monastery_dining_table_2010_samsung_40_uhd_smart_tv_2011_2013_gray.jpg,n04379243_0,n04405907_5,fixed,0.74843,n04405907_5,Stimuli/psy_fixed_rotation_30_objects_occ0.7_0.9s/images/train/n04379243_0/n04405907_5/img_17th_c._monastery_dining_table_2010_samsung_40_uhd_smart_tv_2011_2013-3_gray.png,foreground,same as foreground,n04379243_0,n04405907_5,Stimuli/canonical view 2/img_n04379243_0_gray.jpg,Stimuli/canonical view 2/img_n04405907_5_gray.jpg,foreground,right,Experiments/experiment_46/100.jpg,Experiments/experiment_46/101.jpg,Experiments/experiment_46/102.jpg,Experiments/experiment_46/103.jpg,,,left,"[""right""]",False,,0.0,0.0,25.0,25.0,25.0,1.0,[1.2203999999985626],,,,,,
,,,,,,,,,,,,,,,,,,,,,,,,,,322,1,2023-04-03_19h12.44.597,Occlusion_Psychophysics,2022.1.4,Win32,60.0024001,,,0.05,,,,,,,,,,Stimuli/psy_flexible_rotation_30_objects_occ0.7_0.9s/images/train/n03928116_0/n02818832_3/img_b02_piano_b05_ccm_contemporary_bed_max2013_2009_gray.jpg,n03928116_0,n02818832_3,flexible,0.740265,n04379243_8,Stimuli/psy_fixed_rotation_30_objects_occ0.7_0.9s/images/train/n04379243_-7/n04379243_8/img_quatre_dining_table_glass_table_2002-3_gray.png,random,fixed,n03928116_0,n02818832_3,Stimuli/canonical view 2/img_n03928116_0_gray.jpg,Stimuli/canonical view 2/img_n02818832_3_gray.jpg,foreground,right,Experiments/experiment_46/104.jpg,Experiments/experiment_46/105.jpg,Experiments/experiment_46/106.jpg,Experiments/experiment_46/107.jpg,,,right,"[""left""]",False,,0.0,0.0,26.0,26.0,26.0,1.0,[1.423699999995506],,,,,,
,,,,,,,,,,,,,,,,,,,,,,,,,,322,1,2023-04-03_19h12.44.597,Occlusion_Psychophysics,2022.1.4,Win32,60.0024001,,,0.025,,,,,,,,,,Stimuli/psy_fixed_rotation_30_objects_occ0.7_0.9s/images/train/n02818832_0/n02933112_4/img_b03_the_sofa_and_chair_company_-_stanley_bed_2014_buffet_2008_gray.jpg,n02818832_0,n02933112_4,fixed,0.707269,n02883344_15,Stimuli/psy_flexible_rotation_30_objects_occ0.7_0.9s/images/train/n02883344_15/n02883344_15/img_microwave_box_microwave_box_2015-3_gray.png,random,flexible,n02818832_0,n02933112_4,Stimuli/canonical view 2/img_n02818832_0_gray.jpg,Stimuli/canonical view 2/img_n02933112_4_gray.jpg,foreground,right,Experiments/experiment_46/108.jpg,Experiments/experiment_46/109.jpg,Experiments/experiment_46/110.jpg,Experiments/experiment_46/111.jpg,,,left,"[""left""]",False,,0.0,0.0,27.0,27.0,27.0,1.0,[2.0843000000044185],,,,,,
,,,,,,,,,,,,,,,,,,,,,,,,,,322,1,2023-04-03_19h12.44.597,Occlusion_Psychophysics,2022.1.4,Win32,60.0024001,,,0.025,,,,,,,,,,Stimuli/psy_fixed_rotation_30_objects_occ0.7_0.9s/images/train/n04379243_8/n04405907_5/img_glass_table_samsung_40_uhd_smart_tv_2011_2009_gray.jpg,n04379243_8,n04405907_5,fixed,0.744363,n02883344_0,Stimuli/psy_fixed_rotation_30_objects_occ0.7_0.9s/images/train/n04405907_9/n02883344_0/img_vray_004_b03_box_2004-3_gray.png,random,fixed,n04379243_8,n04256520_4,Stimuli/canonical view 2/img_n04379243_8_gray.jpg,Stimuli/canonical view 2/img_n04256520_4_gray.jpg,random,right,Experiments/experiment_46/112.jpg,Experiments/experiment_46/113.jpg,Experiments/experiment_46/114.jpg,Experiments/experiment_46/115.jpg,,,left,,False,,0.0,0.0,28.0,28.0,28.0,1.0,,,,,,,
,,,,,,,,,,,,,,,,,,,,,,,,,,322,1,2023-04-03_19h12.44.597,Occlusion_Psychophysics,2022.1.4,Win32,60.0024001,,,0.025,,,,,,,,,,Stimuli/psy_fixed_rotation_30_objects_occ0.7_0.9s/images/train/n02818832_0/n02818832_9/img_b03_the_sofa_and_chair_company_-_stanley_bed_2014_bed01_blue_2008_gray.jpg,n02818832_0,n02818832_9,fixed,0.893944,n02883344_-1,Stimuli/psy_flexible_rotation_30_objects_occ0.7_0.9s/images/train/n03001627_9/n02883344_-1/img_chair_eames_plastic_armchair_woven_box_2010-3_gray.png,random,flexible,n02818832_0,n02828884_9,Stimuli/canonical view 2/img_n02818832_0_gray.jpg,Stimuli/canonical view 2/img_n02828884_9_gray.jpg,random,left,Experiments/experiment_46/116.jpg,Experiments/experiment_46/117.jpg,Experiments/experiment_46/118.jpg,Experiments/experiment_46/119.jpg,,,left,"[""left""]",False,,0.0,0.0,29.0,29.0,29.0,1.0,[1.2397000000030403],,,,,,
,,,,,,,,,,,,,,,,,,,,,,,,,,322,1,2023-04-03_19h12.44.597,Occlusion_Psychophysics,2022.1.4,Win32,60.0024001,,,0.05,,,,,,,,,,Stimuli/psy_fixed_rotation_30_objects_occ0.7_0.9s/images/train/n03001627_8/n02818832_0/img_chair_billiani_doll_b03_the_sofa_and_chair_company_-_stanley_bed_2014_2000_gray.jpg,n03001627_8,n02818832_0,fixed,0.739773,n02818832_0,Stimuli/psy_fixed_rotation_30_objects_occ0.7_0.9s/images/train/n03001627_8/n02818832_0/img_chair_billiani_doll_b03_the_sofa_and_chair_company_-_stanley_bed_2014_2000-3_gray.png,foreground,same as foreground,n03001627_8,n02883344_-1,Stimuli/canonical view 2/img_n03001627_8_gray.jpg,Stimuli/canonical view 2/img_n02883344_-1_gray.jpg,random,left,Experiments/experiment_46/120.jpg,Experiments/experiment_46/121.jpg,Experiments/experiment_46/122.jpg,Experiments/experiment_46/123.jpg,,,right,"[""right""]",False,,0.0,0.0,30.0,30.0,30.0,1.0,[1.8569000000059077],,,,,,
,,,,,,,,,,,,,,,,,,,,,,,,,,322,1,2023-04-03_19h12.44.597,Occlusion_Psychophysics,2022.1.4,Win32,60.0024001,,,0.025,,,,,,,,,,Stimuli/psy_fixed_rotation_30_objects_occ0.7_0.9s/images/train/n02933112_4/n04256520_9/img_buffet_napoleon_iii_sofa_2007_gray.jpg,n02933112_4,n04256520_9,fixed,0.701414,n02883344_-1,Stimuli/psy_fixed_rotation_30_objects_occ0.7_0.9s/images/train/n04256520_4/n02883344_-1/img_club_house_italia_nautilus_sofa_woven_box_2007-3_gray.png,random,fixed,n02933112_4,n04256520_9,Stimuli/canonical view 2/img_n02933112_4_gray.jpg,Stimuli/canonical view 2/img_n04256520_9_gray.jpg,foreground,left,Experiments/experiment_46/124.jpg,Experiments/experiment_46/125.jpg,Experiments/experiment_46/126.jpg,Experiments/experiment_46/127.jpg,,,left,"[""right""]",False,,0.0,0.0,31.0,31.0,31.0,1.0,[1.2290999999939913],,,,,,
,,,,,,,,,,,,,,,,,,,,,,,,,,322,1,2023-04-03_19h12.44.597,Occlusion_Psychophysics,2022.1.4,Win32,60.0024001,,,0.025,,,,,,,,,,Stimuli/psy_fixed_rotation_30_objects_occ0.7_0.9s/images/train/n04256520_4/n02883344_0/img_club_house_italia_nautilus_sofa_b03_box_2004_gray.jpg,n04256520_4,n02883344_0,fixed,0.758861,n02818832_9,Stimuli/psy_flexible_rotation_30_objects_occ0.7_0.9s/images/train/n04070727_5/n02818832_9/img_b05_db_apps_tech_06_13_composite_bed01_blue_2010-3_gray.png,random,flexible,n04256520_4,n04405907_9,Stimuli/canonical view 2/img_n04256520_4_gray.jpg,Stimuli/canonical view 2/img_n04405907_9_gray.jpg,random,left,Experiments/experiment_46/128.jpg,Experiments/experiment_46/129.jpg,Experiments/experiment_46/130.jpg,Experiments/experiment_46/131.jpg,,,left,"[""right""]",False,,0.0,0.0,32.0,32.0,32.0,1.0,[1.8607999999969707],,,,,,
,,,,,,,,,,,,,,,,,,,,,,,,,,322,1,2023-04-03_19h12.44.597,Occlusion_Psychophysics,2022.1.4,Win32,60.0024001,,,0.025,,,,,,,,,,Stimuli/psy_fixed_rotation_30_objects_occ0.7_0.9s/images/train/n02883344_-1/n04379243_0/img_woven_box_17th_c._monastery_dining_table_2010_2010_gray.jpg,n02883344_-1,n04379243_0,fixed,0.725846,n04379243_0,Stimuli/psy_fixed_rotation_30_objects_occ0.7_0.9s/images/train/n02883344_-1/n04379243_0/img_woven_box_17th_c._monastery_dining_table_2010_2010-3_gray.png,foreground,same as foreground,n02883344_-1,n02933112_-18,Stimuli/canonical view 2/img_n02883344_-1_gray.jpg,Stimuli/canonical view 2/img_n02933112_-18_gray.jpg,random,left,Experiments/experiment_46/132.jpg,Experiments/experiment_46/133.jpg,Experiments/experiment_46/134.jpg,Experiments/experiment_46/135.jpg,,,right,"[""right""]",False,,0.0,0.0,33.0,33.0,33.0,1.0,[1.4162000000029593],,,,,,
,,,,,,,,,,,,,,,,,,,,,,,,,,322,1,2023-04-03_19h12.44.597,Occlusion_Psychophysics,2022.1.4,Win32,60.0024001,,,0.025,,,,,,,,,,Stimuli/psy_flexible_rotation_30_objects_occ0.7_0.9s/images/train/n02883344_15/n04256520_4/img_microwave_box_club_house_italia_nautilus_sofa_2003_gray.jpg,n02883344_15,n04256520_4,flexible,0.767738,n02828884_4,Stimuli/psy_fixed_rotation_30_objects_occ0.7_0.9s/images/train/n04379243_8/n02828884_4/img_glass_table_b05_c-5_classic_series_bench-2012_2013-3_gray.png,random,fixed,n02883344_15,n02818832_3,Stimuli/canonical view 2/img_n02883344_15_gray.jpg,Stimuli/canonical view 2/img_n02818832_3_gray.jpg,random,right,Experiments/experiment_46/136.jpg,Experiments/experiment_46/137.jpg,Experiments/experiment_46/138.jpg,Experiments/experiment_46/139.jpg,,,left,"[""left""]",False,,0.0,0.0,34.0,34.0,34.0,1.0,[1.6344000000059395],,,,,,
,,,,,,,,,,,,,,,,,,,,,,,,,,322,1,2023-04-03_19h12.44.597,Occlusion_Psychophysics,2022.1.4,Win32,60.0024001,,,0.025,,,,,,,,,,Stimuli/psy_flexible_rotation_30_objects_occ0.7_0.9s/images/train/n02933112_-2/n04405907_8/img_sink_base_white_wood_stylized_tv_2012_gray.jpg,n02933112_-2,n04405907_8,flexible,0.823656,n04256520_5,Stimuli/psy_fixed_rotation_30_objects_occ0.7_0.9s/images/train/n03928116_0/n04256520_5/img_b02_piano_meridiani_belmondo_bench_sofa_2008-3_gray.png,random,fixed,n02933112_-2,n04405907_5,Stimuli/canonical view 2/img_n02933112_-2_gray.jpg,Stimuli/canonical view 2/img_n04405907_5_gray.jpg,random,left,Experiments/experiment_46/140.jpg,Experiments/experiment_46/141.jpg,Experiments/experiment_46/142.jpg,Experiments/experiment_46/143.jpg,,,right,"[""right""]",False,,0.0,0.0,35.0,35.0,35.0,1.0,[1.8539999999999281],,,,,,
,,,,,,,,,,,,,,,,,,,,,,,,,,322,1,2023-04-03_19h12.44.597,Occlusion_Psychophysics,2022.1.4,Win32,60.0024001,,,0.025,,,,,,,,,,Stimuli/psy_fixed_rotation_30_objects_occ0.7_0.9s/images/train/n02818832_9/n04379243_-7/img_bed01_blue_quatre_dining_table_2014_gray.jpg,n02818832_9,n04379243_-7,fixed,0.715132,n04379243_8,Stimuli/psy_fixed_rotation_30_objects_occ0.7_0.9s/images/train/n04256520_5/n04379243_8/img_meridiani_belmondo_bench_sofa_glass_table_2005-3_gray.png,random,fixed,n02818832_9,n04405907_8,Stimuli/canonical view 2/img_n02818832_9_gray.jpg,Stimuli/canonical view 2/img_n04405907_8_gray.jpg,random,left,Experiments/experiment_46/144.jpg,Experiments/experiment_46/145.jpg,Experiments/experiment_46/146.jpg,Experiments/experiment_46/147.jpg,,,left,"[""left""]",False,,0.0,0.0,36.0,36.0,36.0,1.0,[1.452700000002892],,,,,,
,,,,,,,,,,,,,,,,,,,,,,,,,,322,1,2023-04-03_19h12.44.597,Occlusion_Psychophysics,2022.1.4,Win32,60.0024001,,,0.05,,,,,,,,,,Stimuli/psy_flexible_rotation_30_objects_occ0.7_0.9s/images/train/n04405907_8/n02933112_-2/img_stylized_tv_sink_base_white_wood_2008_gray.jpg,n04405907_8,n02933112_-2,flexible,0.841658,n02828884_3,Stimuli/psy_fixed_rotation_30_objects_occ0.7_0.9s/images/train/n02883344_0/n02828884_3/img_b03_box_b04_wood_metal_park_bench_2015-3_gray.png,random,fixed,n04405907_8,n02933112_-2,Stimuli/canonical view 2/img_n04405907_8_gray.jpg,Stimuli/canonical view 2/img_n02933112_-2_gray.jpg,foreground,right,Experiments/experiment_46/148.jpg,Experiments/experiment_46/149.jpg,Experiments/experiment_46/150.jpg,Experiments/experiment_46/151.jpg,,,left,"[""left""]",False,,0.0,0.0,37.0,37.0,37.0,1.0,[2.924600000001419],,,,,,
,,,,,,,,,,,,,,,,,,,,,,,,,,322,1,2023-04-03_19h12.44.597,Occlusion_Psychophysics,2022.1.4,Win32,60.0024001,,,0.05,,,,,,,,,,Stimuli/psy_flexible_rotation_30_objects_occ0.7_0.9s/images/train/n04405907_5/n04405907_9/img_samsung_40_uhd_smart_tv_2011_vray_004_2014_gray.jpg,n04405907_5,n04405907_9,flexible,0.780715,n04256520_5,Stimuli/psy_flexible_rotation_30_objects_occ0.7_0.9s/images/train/n03928116_0/n04256520_5/img_b02_piano_meridiani_belmondo_bench_sofa_2002-3_gray.png,random,flexible,n04405907_5,n04405907_9,Stimuli/canonical view 2/img_n04405907_5_gray.jpg,Stimuli/canonical view 2/img_n04405907_9_gray.jpg,foreground,right,Experiments/experiment_46/152.jpg,Experiments/experiment_46/153.jpg,Experiments/experiment_46/154.jpg,Experiments/experiment_46/155.jpg,,,left,"[""right""]",False,,0.0,0.0,38.0,38.0,38.0,1.0,[1.6370000000000573],,,,,,
,,,,,,,,,,,,,,,,,,,,,,,,,,322,1,2023-04-03_19h12.44.597,Occlusion_Psychophysics,2022.1.4,Win32,60.0024001,,,0.025,,,,,,,,,,Stimuli/psy_flexible_rotation_30_objects_occ0.7_0.9s/images/train/n02818832_0/n02818832_3/img_b03_the_sofa_and_chair_company_-_stanley_bed_2014_b05_ccm_contemporary_bed_max2013_2014_gray.jpg,n02818832_0,n02818832_3,flexible,0.706731,n04379243_-7,Stimuli/psy_fixed_rotation_30_objects_occ0.7_0.9s/images/train/n02828884_4/n04379243_-7/img_b05_c-5_classic_series_bench-2012_quatre_dining_table_2006-3_gray.png,random,fixed,n02818832_0,n02818832_3,Stimuli/canonical view 2/img_n02818832_0_gray.jpg,Stimuli/canonical view 2/img_n02818832_3_gray.jpg,foreground,right,Experiments/experiment_46/156.jpg,Experiments/experiment_46/157.jpg,Experiments/experiment_46/158.jpg,Experiments/experiment_46/159.jpg,,,right,"[""left""]",False,,0.0,0.0,39.0,39.0,39.0,1.0,[1.0547000000029811],,,,,,
,,,,,,,,,,,,,,,,,,,,,,,,,,322,1,2023-04-03_19h12.44.597,Occlusion_Psychophysics,2022.1.4,Win32,60.0024001,,,0.025,,,,,,,,,,Stimuli/psy_flexible_rotation_30_objects_occ0.7_0.9s/images/train/n04379243_0/n04379243_8/img_17th_c._monastery_dining_table_2010_glass_table_2013_gray.jpg,n04379243_0,n04379243_8,flexible,0.77191,n04405907_8,Stimuli/psy_flexible_rotation_30_objects_occ0.7_0.9s/images/train/n03001627_-2/n04405907_8/img_wood_chair_stylized_tv_2011-3_gray.png,random,flexible,n04379243_0,n03928116_0,Stimuli/canonical view 2/img_n04379243_0_gray.jpg,Stimuli/canonical view 2/img_n03928116_0_gray.jpg,random,right,Experiments/experiment_46/160.jpg,Experiments/experiment_46/161.jpg,Experiments/experiment_46/162.jpg,Experiments/experiment_46/163.jpg,,,left,"[""left""]",False,,0.0,0.0,40.0,40.0,40.0,1.0,[2.268899999998439],,,,,,
,,,,,,,,,,,,,,,,,,,,,,,,,,322,1,2023-04-03_19h12.44.597,Occlusion_Psychophysics,2022.1.4,Win32,60.0024001,,,0.025,,,,,,,,,,Stimuli/psy_fixed_rotation_30_objects_occ0.7_0.9s/images/train/n02933112_-18/n04405907_5/img_cgaxis_models_48_26_vray_composite_samsung_40_uhd_smart_tv_2011_2001_gray.jpg,n02933112_-18,n04405907_5,fixed,0.709334,n02933112_-2,Stimuli/psy_flexible_rotation_30_objects_occ0.7_0.9s/images/train/n04379243_8/n02933112_-2/img_glass_table_sink_base_white_wood_2004-3_gray.png,random,flexible,n02933112_-18,n04405907_8,Stimuli/canonical view 2/img_n02933112_-18_gray.jpg,Stimuli/canonical view 2/img_n04405907_8_gray.jpg,random,right,Experiments/experiment_46/164.jpg,Experiments/experiment_46/165.jpg,Experiments/experiment_46/166.jpg,Experiments/experiment_46/167.jpg,,,right,"[""right""]",True,left,1.0,0.0,41.0,41.0,41.0,1.0,[2.484200000002943],1.7706,,,,,
,,,,,,,,,,,,,,,,,,,,,,,,,,322,1,2023-04-03_19h12.44.597,Occlusion_Psychophysics,2022.1.4,Win32,60.0024001,,,0.05,,,,,,,,,,Stimuli/psy_flexible_rotation_30_objects_occ0.7_0.9s/images/train/n04379243_8/n04379243_-7/img_glass_table_quatre_dining_table_2001_gray.jpg,n04379243_8,n04379243_-7,flexible,0.814393,n04379243_-7,Stimuli/psy_flexible_rotation_30_objects_occ0.7_0.9s/images/train/n04379243_8/n04379243_-7/img_glass_table_quatre_dining_table_2001-3_gray.png,foreground,same as foreground,n04379243_8,n03928116_0,Stimuli/canonical view 2/img_n04379243_8_gray.jpg,Stimuli/canonical view 2/img_n03928116_0_gray.jpg,random,left,Experiments/experiment_46/168.jpg,Experiments/experiment_46/169.jpg,Experiments/experiment_46/170.jpg,Experiments/experiment_46/171.jpg,,,right,"[""right""]",False,,0.0,0.0,42.0,42.0,42.0,1.0,[1.7904999999999518],,,,,,
,,,,,,,,,,,,,,,,,,,,,,,,,,322,1,2023-04-03_19h12.44.597,Occlusion_Psychophysics,2022.1.4,Win32,60.0024001,,,0.025,,,,,,,,,,Stimuli/psy_flexible_rotation_30_objects_occ0.7_0.9s/images/train/n03001627_9/n03928116_0/img_chair_eames_plastic_armchair_b02_piano_2002_gray.jpg,n03001627_9,n03928116_0,flexible,0.773927,n03928116_0,Stimuli/psy_flexible_rotation_30_objects_occ0.7_0.9s/images/train/n03001627_9/n03928116_0/img_chair_eames_plastic_armchair_b02_piano_2002-3_gray.png,foreground,same as foreground,n03001627_9,n02818832_9,Stimuli/canonical view 2/img_n03001627_9_gray.jpg,Stimuli/canonical view 2/img_n02818832_9_gray.jpg,random,right,Experiments/experiment_46/172.jpg,Experiments/experiment_46/173.jpg,Experiments/experiment_46/174.jpg,Experiments/experiment_46/175.jpg,,,right,"[""left""]",False,,0.0,0.0,43.0,43.0,43.0,1.0,[2.5162999999970452],,,,,,
,,,,,,,,,,,,,,,,,,,,,,,,,,322,1,2023-04-03_19h12.44.597,Occlusion_Psychophysics,2022.1.4,Win32,60.0024001,,,0.05,,,,,,,,,,Stimuli/psy_fixed_rotation_30_objects_occ0.7_0.9s/images/train/n04405907_5/n04256520_4/img_samsung_40_uhd_smart_tv_2011_club_house_italia_nautilus_sofa_2009_gray.jpg,n04405907_5,n04256520_4,fixed,0.718263,n02828884_4,Stimuli/psy_flexible_rotation_30_objects_occ0.7_0.9s/images/train/n04379243_8/n02828884_4/img_glass_table_b05_c-5_classic_series_bench-2012_2004-3_gray.png,random,flexible,n04405907_5,n02828884_3,Stimuli/canonical view 2/img_n04405907_5_gray.jpg,Stimuli/canonical view 2/img_n02828884_3_gray.jpg,random,left,Experiments/experiment_46/176.jpg,Experiments/experiment_46/177.jpg,Experiments/experiment_46/178.jpg,Experiments/experiment_46/179.jpg,,,right,"[""right""]",False,,0.0,0.0,44.0,44.0,44.0,1.0,[1.5281000000014728],,,,,,
,,,,,,,,,,,,,,,,,,,,,,,,,,322,1,2023-04-03_19h12.44.597,Occlusion_Psychophysics,2022.1.4,Win32,60.0024001,,,0.025,,,,,,,,,,Stimuli/psy_flexible_rotation_30_objects_occ0.7_0.9s/images/train/n02883344_0/n04256520_9/img_b03_box_napoleon_iii_sofa_2002_gray.jpg,n02883344_0,n04256520_9,flexible,0.757404,n04256520_9,Stimuli/psy_flexible_rotation_30_objects_occ0.7_0.9s/images/train/n02883344_0/n04256520_9/img_b03_box_napoleon_iii_sofa_2002-3_gray.png,foreground,same as foreground,n02883344_0,n04256520_9,Stimuli/canonical view 2/img_n02883344_0_gray.jpg,Stimuli/canonical view 2/img_n04256520_9_gray.jpg,foreground,left,Experiments/experiment_46/180.jpg,Experiments/experiment_46/181.jpg,Experiments/experiment_46/182.jpg,Experiments/experiment_46/183.jpg,,,left,"[""right""]",False,,0.0,0.0,45.0,45.0,45.0,1.0,[1.0405000000000655],,,,,,
,,,,,,,,,,,,,,,,,,,,,,,,,,322,1,2023-04-03_19h12.44.597,Occlusion_Psychophysics,2022.1.4,Win32,60.0024001,,,0.05,,,,,,,,,,Stimuli/psy_flexible_rotation_30_objects_occ0.7_0.9s/images/train/n02828884_3/n03928116_0/img_b04_wood_metal_park_bench_b02_piano_2006_gray.jpg,n02828884_3,n03928116_0,flexible,0.742152,n02883344_0,Stimuli/psy_flexible_rotation_30_objects_occ0.7_0.9s/images/train/n02883344_-1/n02883344_0/img_woven_box_b03_box_2000-3_gray.png,random,flexible,n02828884_3,n03928116_0,Stimuli/canonical view 2/img_n02828884_3_gray.jpg,Stimuli/canonical view 2/img_n03928116_0_gray.jpg,foreground,left,Experiments/experiment_46/184.jpg,Experiments/experiment_46/185.jpg,Experiments/experiment_46/186.jpg,Experiments/experiment_46/187.jpg,,,right,"[""left""]",False,,0.0,0.0,46.0,46.0,46.0,1.0,[0.9132999999970934],,,,,,
,,,,,,,,,,,,,,,,,,,,,,,,,,322,1,2023-04-03_19h12.44.597,Occlusion_Psychophysics,2022.1.4,Win32,60.0024001,,,0.025,,,,,,,,,,Stimuli/psy_fixed_rotation_30_objects_occ0.7_0.9s/images/train/n02818832_0/n04405907_9/img_b03_the_sofa_and_chair_company_-_stanley_bed_2014_vray_004_2015_gray.jpg,n02818832_0,n04405907_9,fixed,0.794826,n04405907_9,Stimuli/psy_fixed_rotation_30_objects_occ0.7_0.9s/images/train/n02818832_0/n04405907_9/img_b03_the_sofa_and_chair_company_-_stanley_bed_2014_vray_004_2015-3_gray.png,foreground,same as foreground,n02818832_0,n04405907_9,Stimuli/canonical view 2/img_n02818832_0_gray.jpg,Stimuli/canonical view 2/img_n04405907_9_gray.jpg,foreground,left,Experiments/experiment_46/188.jpg,Experiments/experiment_46/189.jpg,Experiments/experiment_46/190.jpg,Experiments/experiment_46/191.jpg,,,left,"[""right""]",False,,0.0,0.0,47.0,47.0,47.0,1.0,[1.7611000000015338],,,,,,
,,,,,,,,,,,,,,,,,,,,,,,,,,322,1,2023-04-03_19h12.44.597,Occlusion_Psychophysics,2022.1.4,Win32,60.0024001,,,0.025,,,,,,,,,,Stimuli/psy_flexible_rotation_30_objects_occ0.7_0.9s/images/train/n02828884_4/n02818832_0/img_b05_c-5_classic_series_bench-2012_b03_the_sofa_and_chair_company_-_stanley_bed_2014_2012_gray.jpg,n02828884_4,n02818832_0,flexible,0.701139,n02818832_0,Stimuli/psy_flexible_rotation_30_objects_occ0.7_0.9s/images/train/n02828884_4/n02818832_0/img_b05_c-5_classic_series_bench-2012_b03_the_sofa_and_chair_company_-_stanley_bed_2014_2012-3_gray.png,foreground,same as foreground,n02828884_4,n02818832_0,Stimuli/canonical view 2/img_n02828884_4_gray.jpg,Stimuli/canonical view 2/img_n02818832_0_gray.jpg,foreground,left,Experiments/experiment_46/192.jpg,Experiments/experiment_46/193.jpg,Experiments/experiment_46/194.jpg,Experiments/experiment_46/195.jpg,,,left,"[""right""]",True,left,1.0,0.0,48.0,48.0,48.0,1.0,[1.166600000001381],1.9688,,,,,
,,,,,,,,,,,,,,,,,,,,,,,,,,322,1,2023-04-03_19h12.44.597,Occlusion_Psychophysics,2022.1.4,Win32,60.0024001,,,0.025,,,,,,,,,,Stimuli/psy_fixed_rotation_30_objects_occ0.7_0.9s/images/train/n03928116_0/n02933112_-2/img_b02_piano_sink_base_white_wood_2002_gray.jpg,n03928116_0,n02933112_-2,fixed,0.86631,n02933112_-2,Stimuli/psy_fixed_rotation_30_objects_occ0.7_0.9s/images/train/n03928116_0/n02933112_-2/img_b02_piano_sink_base_white_wood_2002-3_gray.png,foreground,same as foreground,n03928116_0,n02933112_4,Stimuli/canonical view 2/img_n03928116_0_gray.jpg,Stimuli/canonical view 2/img_n02933112_4_gray.jpg,random,right,Experiments/experiment_46/196.jpg,Experiments/experiment_46/197.jpg,Experiments/experiment_46/198.jpg,Experiments/experiment_46/199.jpg,,,right,"[""right""]",False,,0.0,0.0,49.0,49.0,49.0,1.0,[1.3391000000015083],,,,,,
,,,,,,,,,,,,,,,,,,,,,,,,,,322,1,2023-04-03_19h12.44.597,Occlusion_Psychophysics,2022.1.4,Win32,60.0024001,,,0.025,,,,,,,,,,Stimuli/psy_fixed_rotation_30_objects_occ0.7_0.9s/images/train/n02883344_15/n03928116_4/img_microwave_box_dp_33_b_2013__vray_2007_gray.jpg,n02883344_15,n03928116_4,fixed,0.720907,n02933112_4,Stimuli/psy_flexible_rotation_30_objects_occ0.7_0.9s/images/train/n02933112_-18/n02933112_4/img_cgaxis_models_48_26_vray_composite_buffet_2014-3_gray.png,random,flexible,n02883344_15,n03928116_10,Stimuli/canonical view 2/img_n02883344_15_gray.jpg,Stimuli/canonical view 2/img_n03928116_10_gray.jpg,random,left,Experiments/experiment_46/200.jpg,Experiments/experiment_46/201.jpg,Experiments/experiment_46/202.jpg,Experiments/experiment_46/203.jpg,,,right,"[""left""]",False,,0.0,0.0,50.0,50.0,50.0,1.0,[1.0121999999955733],,,,,,
,,,,,,,,,,,,,,,,,,,,,,,,,,322,1,2023-04-03_19h12.44.597,Occlusion_Psychophysics,2022.1.4,Win32,60.0024001,,,0.025,,,,,,,,,,Stimuli/psy_fixed_rotation_30_objects_occ0.7_0.9s/images/train/n02933112_-18/n03001627_8/img_cgaxis_models_48_26_vray_composite_chair_billiani_doll_2005_gray.jpg,n02933112_-18,n03001627_8,fixed,0.704143,n04256520_5,Stimuli/psy_flexible_rotation_30_objects_occ0.7_0.9s/images/train/n04379243_0/n04256520_5/img_17th_c._monastery_dining_table_2010_meridiani_belmondo_bench_sofa_2003-3_gray.png,random,flexible,n02933112_-18,n04256520_5,Stimuli/canonical view 2/img_n02933112_-18_gray.jpg,Stimuli/canonical view 2/img_n04256520_5_gray.jpg,random,right,Experiments/experiment_46/204.jpg,Experiments/experiment_46/205.jpg,Experiments/experiment_46/206.jpg,Experiments/experiment_46/207.jpg,,,left,"[""right""]",False,,0.0,0.0,51.0,51.0,51.0,1.0,[1.4007000000029848],,,,,,
,,,,,,,,,,,,,,,,,,,,,,,,,,322,1,2023-04-03_19h12.44.597,Occlusion_Psychophysics,2022.1.4,Win32,60.0024001,,,0.05,,,,,,,,,,Stimuli/psy_fixed_rotation_30_objects_occ0.7_0.9s/images/train/n04256520_5/n03928116_0/img_meridiani_belmondo_bench_sofa_b02_piano_2010_gray.jpg,n04256520_5,n03928116_0,fixed,0.827123,n03928116_0,Stimuli/psy_fixed_rotation_30_objects_occ0.7_0.9s/images/train/n04256520_5/n03928116_0/img_meridiani_belmondo_bench_sofa_b02_piano_2010-3_gray.png,foreground,same as foreground,n04256520_5,n02818832_3,Stimuli/canonical view 2/img_n04256520_5_gray.jpg,Stimuli/canonical view 2/img_n02818832_3_gray.jpg,random,right,Experiments/experiment_46/208.jpg,Experiments/experiment_46/209.jpg,Experiments/experiment_46/210.jpg,Experiments/experiment_46/211.jpg,,,left,"[""left""]",False,,0.0,0.0,52.0,52.0,52.0,1.0,[1.9633000000044376],,,,,,
,,,,,,,,,,,,,,,,,,,,,,,,,,322,1,2023-04-03_19h12.44.597,Occlusion_Psychophysics,2022.1.4,Win32,60.0024001,,,0.025,,,,,,,,,,Stimuli/psy_flexible_rotation_30_objects_occ0.7_0.9s/images/train/n02828884_4/n02883344_-1/img_b05_c-5_classic_series_bench-2012_woven_box_2010_gray.jpg,n02828884_4,n02883344_-1,flexible,0.800805,n04256520_4,Stimuli/psy_flexible_rotation_30_objects_occ0.7_0.9s/images/train/n04405907_5/n04256520_4/img_samsung_40_uhd_smart_tv_2011_club_house_italia_nautilus_sofa_2001-3_gray.png,random,flexible,n02828884_4,n04405907_8,Stimuli/canonical view 2/img_n02828884_4_gray.jpg,Stimuli/canonical view 2/img_n04405907_8_gray.jpg,random,right,Experiments/experiment_46/212.jpg,Experiments/experiment_46/213.jpg,Experiments/experiment_46/214.jpg,Experiments/experiment_46/215.jpg,,,right,"[""right""]",False,,0.0,0.0,53.0,53.0,53.0,1.0,[1.5613000000045076],,,,,,
,,,,,,,,,,,,,,,,,,,,,,,,,,322,1,2023-04-03_19h12.44.597,Occlusion_Psychophysics,2022.1.4,Win32,60.0024001,,,0.025,,,,,,,,,,Stimuli/psy_flexible_rotation_30_objects_occ0.7_0.9s/images/train/n02818832_0/n02883344_-1/img_b03_the_sofa_and_chair_company_-_stanley_bed_2014_woven_box_2014_gray.jpg,n02818832_0,n02883344_-1,flexible,0.721893,n04256520_4,Stimuli/psy_fixed_rotation_30_objects_occ0.7_0.9s/images/train/n02933112_-2/n04256520_4/img_sink_base_white_wood_club_house_italia_nautilus_sofa_2006-3_gray.png,random,fixed,n02818832_0,n02933112_4,Stimuli/canonical view 2/img_n02818832_0_gray.jpg,Stimuli/canonical view 2/img_n02933112_4_gray.jpg,random,right,Experiments/experiment_46/216.jpg,Experiments/experiment_46/217.jpg,Experiments/experiment_46/218.jpg,Experiments/experiment_46/219.jpg,,,right,"[""left""]",False,,0.0,0.0,54.0,54.0,54.0,1.0,[1.4889000000058559],,,,,,
,,,,,,,,,,,,,,,,,,,,,,,,,,322,1,2023-04-03_19h12.44.597,Occlusion_Psychophysics,2022.1.4,Win32,60.0024001,,,0.025,,,,,,,,,,Stimuli/psy_flexible_rotation_30_objects_occ0.7_0.9s/images/train/n04379243_8/n02883344_0/img_glass_table_b03_box_2013_gray.jpg,n04379243_8,n02883344_0,flexible,0.735141,n02933112_-18,Stimuli/psy_fixed_rotation_30_objects_occ0.7_0.9s/images/train/n04405907_9/n02933112_-18/img_vray_004_cgaxis_models_48_26_vray_composite_2009-3_gray.png,random,fixed,n04379243_8,n04405907_5,Stimuli/canonical view 2/img_n04379243_8_gray.jpg,Stimuli/canonical view 2/img_n04405907_5_gray.jpg,random,right,Experiments/experiment_46/220.jpg,Experiments/experiment_46/221.jpg,Experiments/experiment_46/222.jpg,Experiments/experiment_46/223.jpg,,,left,"[""left""]",False,,0.0,0.0,55.0,55.0,55.0,1.0,[1.226299999996968],,,,,,
,,,,,,,,,,,,,,,,,,,,,,,,,,322,1,2023-04-03_19h12.44.597,Occlusion_Psychophysics,2022.1.4,Win32,60.0024001,,,0.025,,,,,,,,,,Stimuli/psy_flexible_rotation_30_objects_occ0.7_0.9s/images/train/n04256520_9/n02818832_9/img_napoleon_iii_sofa_bed01_blue_2008_gray.jpg,n04256520_9,n02818832_9,flexible,0.750301,n02818832_9,Stimuli/psy_flexible_rotation_30_objects_occ0.7_0.9s/images/train/n04256520_9/n02818832_9/img_napoleon_iii_sofa_bed01_blue_2008-3_gray.png,foreground,same as foreground,n04256520_9,n03001627_-2,Stimuli/canonical view 2/img_n04256520_9_gray.jpg,Stimuli/canonical view 2/img_n03001627_-2_gray.jpg,random,left,Experiments/experiment_46/224.jpg,Experiments/experiment_46/225.jpg,Experiments/experiment_46/226.jpg,Experiments/experiment_46/227.jpg,,,left,"[""left""]",False,,0.0,0.0,56.0,56.0,56.0,1.0,[1.2379999999999427],,,,,,
,,,,,,,,,,,,,,,,,,,,,,,,,,322,1,2023-04-03_19h12.44.597,Occlusion_Psychophysics,2022.1.4,Win32,60.0024001,,,0.05,,,,,,,,,,Stimuli/psy_flexible_rotation_30_objects_occ0.7_0.9s/images/train/n02933112_-18/n04405907_5/img_cgaxis_models_48_26_vray_composite_samsung_40_uhd_smart_tv_2011_2001_gray.jpg,n02933112_-18,n04405907_5,flexible,0.710039,n04379243_-7,Stimuli/psy_fixed_rotation_30_objects_occ0.7_0.9s/images/train/n02818832_9/n04379243_-7/img_bed01_blue_quatre_dining_table_2009-3_gray.png,random,fixed,n02933112_-18,n03928116_0,Stimuli/canonical view 2/img_n02933112_-18_gray.jpg,Stimuli/canonical view 2/img_n03928116_0_gray.jpg,random,left,Experiments/experiment_46/228.jpg,Experiments/experiment_46/229.jpg,Experiments/experiment_46/230.jpg,Experiments/experiment_46/231.jpg,,,right,"[""left""]",False,,0.0,0.0,57.0,57.0,57.0,1.0,[1.41889999999853],,,,,,
,,,,,,,,,,,,,,,,,,,,,,,,,,322,1,2023-04-03_19h12.44.597,Occlusion_Psychophysics,2022.1.4,Win32,60.0024001,,,0.025,,,,,,,,,,Stimuli/psy_flexible_rotation_30_objects_occ0.7_0.9s/images/train/n03001627_8/n02883344_15/img_chair_billiani_doll_microwave_box_2002_gray.jpg,n03001627_8,n02883344_15,flexible,0.803559,n04405907_9,Stimuli/psy_flexible_rotation_30_objects_occ0.7_0.9s/images/train/n04405907_5/n04405907_9/img_samsung_40_uhd_smart_tv_2011_vray_004_2009-3_gray.png,random,flexible,n03001627_8,n04405907_9,Stimuli/canonical view 2/img_n03001627_8_gray.jpg,Stimuli/canonical view 2/img_n04405907_9_gray.jpg,random,left,Experiments/experiment_46/232.jpg,Experiments/experiment_46/233.jpg,Experiments/experiment_46/234.jpg,Experiments/experiment_46/235.jpg,,,right,"[""left""]",False,,0.0,0.0,58.0,58.0,58.0,1.0,[0.9716000000015583],,,,,,
,,,,,,,,,,,,,,,,,,,,,,,,,,322,1,2023-04-03_19h12.44.597,Occlusion_Psychophysics,2022.1.4,Win32,60.0024001,,,0.025,,,,,,,,,,Stimuli/psy_fixed_rotation_30_objects_occ0.7_0.9s/images/train/n02883344_0/n02828884_3/img_b03_box_b04_wood_metal_park_bench_2004_gray.jpg,n02883344_0,n02828884_3,fixed,0.792278,n04379243_0,Stimuli/psy_fixed_rotation_30_objects_occ0.7_0.9s/images/train/n02933112_-2/n04379243_0/img_sink_base_white_wood_17th_c._monastery_dining_table_2010_2003-3_gray.png,random,fixed,n02883344_0,n02828884_3,Stimuli/canonical view 2/img_n02883344_0_gray.jpg,Stimuli/canonical view 2/img_n02828884_3_gray.jpg,foreground,right,Experiments/experiment_46/236.jpg,Experiments/experiment_46/237.jpg,Experiments/experiment_46/238.jpg,Experiments/experiment_46/239.jpg,,,right,"[""left""]",False,,0.0,0.0,59.0,59.0,59.0,1.0,[0.9808999999985417],,,,,,
,,,,,,,,,,,,,,,,,,,,,,,,,,322,1,2023-04-03_19h12.44.597,Occlusion_Psychophysics,2022.1.4,Win32,60.0024001,,,0.025,,,,,,,,,,Stimuli/psy_fixed_rotation_30_objects_occ0.7_0.9s/images/train/n02933112_-2/n02818832_0/img_sink_base_white_wood_b03_the_sofa_and_chair_company_-_stanley_bed_2014_2006_gray.jpg,n02933112_-2,n02818832_0,fixed,0.706147,n02818832_0,Stimuli/psy_fixed_rotation_30_objects_occ0.7_0.9s/images/train/n02933112_-2/n02818832_0/img_sink_base_white_wood_b03_the_sofa_and_chair_company_-_stanley_bed_2014_2006-3_gray.png,foreground,same as foreground,n02933112_-2,n02818832_0,Stimuli/canonical view 2/img_n02933112_-2_gray.jpg,Stimuli/canonical view 2/img_n02818832_0_gray.jpg,foreground,right,Experiments/experiment_46/240.jpg,Experiments/experiment_46/241.jpg,Experiments/experiment_46/242.jpg,Experiments/experiment_46/243.jpg,,,right,"[""left""]",False,,0.0,0.0,60.0,60.0,60.0,1.0,[0.9786000000015065],,,,,,
,,,,,,,,,,,,,,,,,,,,,,,,,,322,1,2023-04-03_19h12.44.597,Occlusion_Psychophysics,2022.1.4,Win32,60.0024001,,,0.05,,,,,,,,,,Stimuli/psy_fixed_rotation_30_objects_occ0.7_0.9s/images/train/n02828884_4/n04256520_5/img_b05_c-5_classic_series_bench-2012_meridiani_belmondo_bench_sofa_2004_gray.jpg,n02828884_4,n04256520_5,fixed,0.719739,n02818832_3,Stimuli/psy_fixed_rotation_30_objects_occ0.7_0.9s/images/train/n04379243_8/n02818832_3/img_glass_table_b05_ccm_contemporary_bed_max2013_2004-3_gray.png,random,fixed,n02828884_4,n04256520_9,Stimuli/canonical view 2/img_n02828884_4_gray.jpg,Stimuli/canonical view 2/img_n04256520_9_gray.jpg,random,right,Experiments/experiment_46/244.jpg,Experiments/experiment_46/245.jpg,Experiments/experiment_46/246.jpg,Experiments/experiment_46/247.jpg,,,left,"[""right""]",False,,0.0,0.0,61.0,61.0,61.0,1.0,[1.066000000000031],,,,,,
,,,,,,,,,,,,,,,,,,,,,,,,,,322,1,2023-04-03_19h12.44.597,Occlusion_Psychophysics,2022.1.4,Win32,60.0024001,,,0.05,,,,,,,,,,Stimuli/psy_fixed_rotation_30_objects_occ0.7_0.9s/images/train/n04256520_4/n03928116_0/img_club_house_italia_nautilus_sofa_b02_piano_2006_gray.jpg,n04256520_4,n03928116_0,fixed,0.819119,n04256520_9,Stimuli/psy_flexible_rotation_30_objects_occ0.7_0.9s/images/train/n02933112_4/n04256520_9/img_buffet_napoleon_iii_sofa_2013-3_gray.png,random,flexible,n04256520_4,n03928116_4,Stimuli/canonical view 2/img_n04256520_4_gray.jpg,Stimuli/canonical view 2/img_n03928116_4_gray.jpg,random,left,Experiments/experiment_46/248.jpg,Experiments/experiment_46/249.jpg,Experiments/experiment_46/250.jpg,Experiments/experiment_46/251.jpg,,,left,"[""right""]",False,,0.0,0.0,62.0,62.0,62.0,1.0,[1.4708000000044876],,,,,,
,,,,,,,,,,,,,,,,,,,,,,,,,,322,1,2023-04-03_19h12.44.597,Occlusion_Psychophysics,2022.1.4,Win32,60.0024001,,,0.025,,,,,,,,,,Stimuli/psy_fixed_rotation_30_objects_occ0.7_0.9s/images/train/n02933112_-2/n04256520_5/img_sink_base_white_wood_meridiani_belmondo_bench_sofa_2012_gray.jpg,n02933112_-2,n04256520_5,fixed,0.764096,n04405907_8,Stimuli/psy_flexible_rotation_30_objects_occ0.7_0.9s/images/train/n04070727_0/n04405907_8/img_b03_ka90ivi20r_2013__vray_stylized_tv_2005-3_gray.png,random,flexible,n02933112_-2,n04256520_5,Stimuli/canonical view 2/img_n02933112_-2_gray.jpg,Stimuli/canonical view 2/img_n04256520_5_gray.jpg,foreground,right,Experiments/experiment_46/252.jpg,Experiments/experiment_46/253.jpg,Experiments/experiment_46/254.jpg,Experiments/experiment_46/255.jpg,,,right,"[""left""]",False,,0.0,0.0,63.0,63.0,63.0,1.0,[1.2626000000014983],,,,,,
,,,,,,,,,,,,,,,,,,,,,,,,,,322,1,2023-04-03_19h12.44.597,Occlusion_Psychophysics,2022.1.4,Win32,60.0024001,,,0.05,,,,,,,,,,Stimuli/psy_fixed_rotation_30_objects_occ0.7_0.9s/images/train/n04405907_8/n04256520_4/img_stylized_tv_club_house_italia_nautilus_sofa_2013_gray.jpg,n04405907_8,n04256520_4,fixed,0.714303,n04256520_4,Stimuli/psy_fixed_rotation_30_objects_occ0.7_0.9s/images/train/n04405907_8/n04256520_4/img_stylized_tv_club_house_italia_nautilus_sofa_2013-3_gray.png,foreground,same as foreground,n04405907_8,n04256520_5,Stimuli/canonical view 2/img_n04405907_8_gray.jpg,Stimuli/canonical view 2/img_n04256520_5_gray.jpg,random,left,Experiments/experiment_46/256.jpg,Experiments/experiment_46/257.jpg,Experiments/experiment_46/258.jpg,Experiments/experiment_46/259.jpg,,,left,"[""right""]",False,,0.0,0.0,64.0,64.0,64.0,1.0,[1.060100000001512],,,,,,
,,,,,,,,,,,,,,,,,,,,,,,,,,322,1,2023-04-03_19h12.44.597,Occlusion_Psychophysics,2022.1.4,Win32,60.0024001,,,0.05,,,,,,,,,,Stimuli/psy_fixed_rotation_30_objects_occ0.7_0.9s/images/train/n02933112_-2/n02883344_0/img_sink_base_white_wood_b03_box_2012_gray.jpg,n02933112_-2,n02883344_0,fixed,0.749121,n02883344_15,Stimuli/psy_flexible_rotation_30_objects_occ0.7_0.9s/images/train/n04256520_9/n02883344_15/img_napoleon_iii_sofa_microwave_box_2014-3_gray.png,random,flexible,n02933112_-2,n02883344_0,Stimuli/canonical view 2/img_n02933112_-2_gray.jpg,Stimuli/canonical view 2/img_n02883344_0_gray.jpg,foreground,right,Experiments/experiment_46/260.jpg,Experiments/experiment_46/261.jpg,Experiments/experiment_46/262.jpg,Experiments/experiment_46/263.jpg,,,right,"[""left""]",False,,0.0,0.0,65.0,65.0,65.0,1.0,[1.145300000004454],,,,,,
,,,,,,,,,,,,,,,,,,,,,,,,,,322,1,2023-04-03_19h12.44.597,Occlusion_Psychophysics,2022.1.4,Win32,60.0024001,,,0.025,,,,,,,,,,Stimuli/psy_flexible_rotation_30_objects_occ0.7_0.9s/images/train/n03001627_-2/n04405907_8/img_wood_chair_stylized_tv_2011_gray.jpg,n03001627_-2,n04405907_8,flexible,0.70985,n02883344_-1,Stimuli/psy_flexible_rotation_30_objects_occ0.7_0.9s/images/train/n04256520_4/n02883344_-1/img_club_house_italia_nautilus_sofa_woven_box_2005-3_gray.png,random,flexible,n03001627_-2,n02883344_15,Stimuli/canonical view 2/img_n03001627_-2_gray.jpg,Stimuli/canonical view 2/img_n02883344_15_gray.jpg,random,left,Experiments/experiment_46/264.jpg,Experiments/experiment_46/265.jpg,Experiments/experiment_46/266.jpg,Experiments/experiment_46/267.jpg,,,left,"[""right""]",False,,0.0,0.0,66.0,66.0,66.0,1.0,[2.1301000000014483],,,,,,
,,,,,,,,,,,,,,,,,,,,,,,,,,322,1,2023-04-03_19h12.44.597,Occlusion_Psychophysics,2022.1.4,Win32,60.0024001,,,0.025,,,,,,,,,,Stimuli/psy_flexible_rotation_30_objects_occ0.7_0.9s/images/train/n03001627_9/n04256520_4/img_chair_eames_plastic_armchair_club_house_italia_nautilus_sofa_2012_gray.jpg,n03001627_9,n04256520_4,flexible,0.768886,n04256520_4,Stimuli/psy_flexible_rotation_30_objects_occ0.7_0.9s/images/train/n03001627_9/n04256520_4/img_chair_eames_plastic_armchair_club_house_italia_nautilus_sofa_2012-3_gray.png,foreground,same as foreground,n03001627_9,n02818832_3,Stimuli/canonical view 2/img_n03001627_9_gray.jpg,Stimuli/canonical view 2/img_n02818832_3_gray.jpg,random,right,Experiments/experiment_46/268.jpg,Experiments/experiment_46/269.jpg,Experiments/experiment_46/270.jpg,Experiments/experiment_46/271.jpg,,,right,"[""right""]",False,,0.0,0.0,67.0,67.0,67.0,1.0,[1.4673999999985199],,,,,,
,,,,,,,,,,,,,,,,,,,,,,,,,,322,1,2023-04-03_19h12.44.597,Occlusion_Psychophysics,2022.1.4,Win32,60.0024001,,,0.05,,,,,,,,,,Stimuli/psy_fixed_rotation_30_objects_occ0.7_0.9s/images/train/n02828884_3/n02933112_-2/img_b04_wood_metal_park_bench_sink_base_white_wood_2013_gray.jpg,n02828884_3,n02933112_-2,fixed,0.771084,n02933112_-2,Stimuli/psy_fixed_rotation_30_objects_occ0.7_0.9s/images/train/n02828884_3/n02933112_-2/img_b04_wood_metal_park_bench_sink_base_white_wood_2013-3_gray.png,foreground,same as foreground,n02828884_3,n04256520_5,Stimuli/canonical view 2/img_n02828884_3_gray.jpg,Stimuli/canonical view 2/img_n04256520_5_gray.jpg,random,right,Experiments/experiment_46/272.jpg,Experiments/experiment_46/273.jpg,Experiments/experiment_46/274.jpg,Experiments/experiment_46/275.jpg,,,left,"[""right""]",False,,0.0,0.0,68.0,68.0,68.0,1.0,[1.487600000001521],,,,,,
,,,,,,,,,,,,,,,,,,,,,,,,,,322,1,2023-04-03_19h12.44.597,Occlusion_Psychophysics,2022.1.4,Win32,60.0024001,,,0.05,,,,,,,,,,Stimuli/psy_flexible_rotation_30_objects_occ0.7_0.9s/images/train/n02883344_0/n03928116_10/img_b03_box_ydp_103_r_2012__vray_2000_gray.jpg,n02883344_0,n03928116_10,flexible,0.783329,n02883344_0,Stimuli/psy_fixed_rotation_30_objects_occ0.7_0.9s/images/train/n02933112_-2/n02883344_0/img_sink_base_white_wood_b03_box_2002-3_gray.png,random,fixed,n02883344_0,n04256520_4,Stimuli/canonical view 2/img_n02883344_0_gray.jpg,Stimuli/canonical view 2/img_n04256520_4_gray.jpg,random,left,Experiments/experiment_46/276.jpg,Experiments/experiment_46/277.jpg,Experiments/experiment_46/278.jpg,Experiments/experiment_46/279.jpg,,,right,"[""right""]",False,,0.0,0.0,69.0,69.0,69.0,1.0,[1.9840000000000373],,,,,,
,,,,,,,,,,,,,,,,,,,,,,,,,,322,1,2023-04-03_19h12.44.597,Occlusion_Psychophysics,2022.1.4,Win32,60.0024001,,,0.05,,,,,,,,,,Stimuli/psy_flexible_rotation_30_objects_occ0.7_0.9s/images/train/n03928116_0/n04405907_8/img_b02_piano_stylized_tv_2000_gray.jpg,n03928116_0,n04405907_8,flexible,0.873284,n04379243_8,Stimuli/psy_fixed_rotation_30_objects_occ0.7_0.9s/images/train/n04256520_5/n04379243_8/img_meridiani_belmondo_bench_sofa_glass_table_2014-3_gray.png,random,fixed,n03928116_0,n04405907_8,Stimuli/canonical view 2/img_n03928116_0_gray.jpg,Stimuli/canonical view 2/img_n04405907_8_gray.jpg,foreground,left,Experiments/experiment_46/280.jpg,Experiments/experiment_46/281.jpg,Experiments/experiment_46/282.jpg,Experiments/experiment_46/283.jpg,,,left,"[""right""]",False,,0.0,0.0,70.0,70.0,70.0,1.0,[1.4838000000045213],,,,,,
,,,,,,,,,,,,,,,,,,,,,,,,,,322,1,2023-04-03_19h12.44.597,Occlusion_Psychophysics,2022.1.4,Win32,60.0024001,,,0.025,,,,,,,,,,Stimuli/psy_flexible_rotation_30_objects_occ0.7_0.9s/images/train/n02933112_4/n04256520_9/img_buffet_napoleon_iii_sofa_2011_gray.jpg,n02933112_4,n04256520_9,flexible,0.727975,n04256520_9,Stimuli/psy_flexible_rotation_30_objects_occ0.7_0.9s/images/train/n02933112_4/n04256520_9/img_buffet_napoleon_iii_sofa_2011-3_gray.png,foreground,same as foreground,n02933112_4,n02828884_3,Stimuli/canonical view 2/img_n02933112_4_gray.jpg,Stimuli/canonical view 2/img_n02828884_3_gray.jpg,random,right,Experiments/experiment_46/284.jpg,Experiments/experiment_46/285.jpg,Experiments/experiment_46/286.jpg,Experiments/experiment_46/287.jpg,,,left,"[""right""]",False,,0.0,0.0,71.0,71.0,71.0,1.0,[1.2848000000044522],,,,,,
,,,,,,,,,,,,,,,,,,,,,,,,,,322,1,2023-04-03_19h12.44.597,Occlusion_Psychophysics,2022.1.4,Win32,60.0024001,,,0.025,,,,,,,,,,Stimuli/psy_fixed_rotation_30_objects_occ0.7_0.9s/images/train/n02883344_0/n02828884_3/img_b03_box_b04_wood_metal_park_bench_2009_gray.jpg,n02883344_0,n02828884_3,fixed,0.776084,n02828884_3,Stimuli/psy_fixed_rotation_30_objects_occ0.7_0.9s/images/train/n02883344_0/n02828884_3/img_b03_box_b04_wood_metal_park_bench_2009-3_gray.png,foreground,same as foreground,n02883344_0,n02933112_4,Stimuli/canonical view 2/img_n02883344_0_gray.jpg,Stimuli/canonical view 2/img_n02933112_4_gray.jpg,random,right,Experiments/experiment_46/288.jpg,Experiments/experiment_46/289.jpg,Experiments/experiment_46/290.jpg,Experiments/experiment_46/291.jpg,,,left,"[""left""]",False,,0.0,0.0,72.0,72.0,72.0,1.0,[2.9594999999999345],,,,,,
,,,,,,,,,,,,,,,,,,,,,,,,,,322,1,2023-04-03_19h12.44.597,Occlusion_Psychophysics,2022.1.4,Win32,60.0024001,,,0.05,,,,,,,,,,Stimuli/psy_flexible_rotation_30_objects_occ0.7_0.9s/images/train/n02883344_-1/n03928116_0/img_woven_box_b02_piano_2005_gray.jpg,n02883344_-1,n03928116_0,flexible,0.714999,n03928116_0,Stimuli/psy_flexible_rotation_30_objects_occ0.7_0.9s/images/train/n02883344_-1/n03928116_0/img_woven_box_b02_piano_2005-3_gray.png,foreground,same as foreground,n02883344_-1,n02818832_0,Stimuli/canonical view 2/img_n02883344_-1_gray.jpg,Stimuli/canonical view 2/img_n02818832_0_gray.jpg,random,right,Experiments/experiment_46/292.jpg,Experiments/experiment_46/293.jpg,Experiments/experiment_46/294.jpg,Experiments/experiment_46/295.jpg,,,left,"[""right""]",False,,0.0,0.0,73.0,73.0,73.0,1.0,[1.2019000000060487],,,,,,
,,,,,,,,,,,,,,,,,,,,,,,,,,322,1,2023-04-03_19h12.44.597,Occlusion_Psychophysics,2022.1.4,Win32,60.0024001,,,0.025,,,,,,,,,,Stimuli/psy_flexible_rotation_30_objects_occ0.7_0.9s/images/train/n03928116_10/n02883344_0/img_ydp_103_r_2012__vray_b03_box_2003_gray.jpg,n03928116_10,n02883344_0,flexible,0.752192,n02828884_4,Stimuli/psy_flexible_rotation_30_objects_occ0.7_0.9s/images/train/n04256520_4/n02828884_4/img_club_house_italia_nautilus_sofa_b05_c-5_classic_series_bench-2012_2008-3_gray.png,random,flexible,n03928116_10,n02933112_-18,Stimuli/canonical view 2/img_n03928116_10_gray.jpg,Stimuli/canonical view 2/img_n02933112_-18_gray.jpg,random,right,Experiments/experiment_46/296.jpg,Experiments/experiment_46/297.jpg,Experiments/experiment_46/298.jpg,Experiments/experiment_46/299.jpg,,,right,"[""right""]",False,,0.0,0.0,74.0,74.0,74.0,1.0,[1.232499999999959],,,,,,
,,,,,,,,,,,,,,,,,,,,,,,,,,322,1,2023-04-03_19h12.44.597,Occlusion_Psychophysics,2022.1.4,Win32,60.0024001,,,0.05,,,,,,,,,,Stimuli/psy_flexible_rotation_30_objects_occ0.7_0.9s/images/train/n02883344_-1/n02933112_-18/img_woven_box_cgaxis_models_48_26_vray_composite_2011_gray.jpg,n02883344_-1,n02933112_-18,flexible,0.884535,n02933112_-18,Stimuli/psy_flexible_rotation_30_objects_occ0.7_0.9s/images/train/n02883344_-1/n02933112_-18/img_woven_box_cgaxis_models_48_26_vray_composite_2011-3_gray.png,foreground,same as foreground,n02883344_-1,n04379243_8,Stimuli/canonical view 2/img_n02883344_-1_gray.jpg,Stimuli/canonical view 2/img_n04379243_8_gray.jpg,random,right,Experiments/experiment_46/300.jpg,Experiments/experiment_46/301.jpg,Experiments/experiment_46/302.jpg,Experiments/experiment_46/303.jpg,,,left,"[""left""]",False,,0.0,0.0,75.0,75.0,75.0,1.0,[1.519899999998529],,,,,,
,,,,,,,,,,,,,,,,,,,,,,,,,,322,1,2023-04-03_19h12.44.597,Occlusion_Psychophysics,2022.1.4,Win32,60.0024001,,,0.025,,,,,,,,,,Stimuli/psy_fixed_rotation_30_objects_occ0.7_0.9s/images/train/n02933112_4/n04405907_8/img_buffet_stylized_tv_2013_gray.jpg,n02933112_4,n04405907_8,fixed,0.765821,n02818832_0,Stimuli/psy_flexible_rotation_30_objects_occ0.7_0.9s/images/train/n02828884_3/n02818832_0/img_b04_wood_metal_park_bench_b03_the_sofa_and_chair_company_-_stanley_bed_2014_2002-3_gray.png,random,flexible,n02933112_4,n04405907_8,Stimuli/canonical view 2/img_n02933112_4_gray.jpg,Stimuli/canonical view 2/img_n04405907_8_gray.jpg,foreground,left,Experiments/experiment_46/304.jpg,Experiments/experiment_46/305.jpg,Experiments/experiment_46/306.jpg,Experiments/experiment_46/307.jpg,,,left,"[""right""]",False,,0.0,0.0,76.0,76.0,76.0,1.0,[0.9447000000029675],,,,,,
,,,,,,,,,,,,,,,,,,,,,,,,,,322,1,2023-04-03_19h12.44.597,Occlusion_Psychophysics,2022.1.4,Win32,60.0024001,,,0.05,,,,,,,,,,Stimuli/psy_flexible_rotation_30_objects_occ0.7_0.9s/images/train/n02818832_9/n04256520_4/img_bed01_blue_club_house_italia_nautilus_sofa_2013_gray.jpg,n02818832_9,n04256520_4,flexible,0.787792,n04256520_4,Stimuli/psy_flexible_rotation_30_objects_occ0.7_0.9s/images/train/n02818832_9/n04256520_4/img_bed01_blue_club_house_italia_nautilus_sofa_2013-3_gray.png,foreground,same as foreground,n02818832_9,n04256520_4,Stimuli/canonical view 2/img_n02818832_9_gray.jpg,Stimuli/canonical view 2/img_n04256520_4_gray.jpg,foreground,left,Experiments/experiment_46/308.jpg,Experiments/experiment_46/309.jpg,Experiments/experiment_46/310.jpg,Experiments/experiment_46/311.jpg,,,left,"[""right""]",False,,0.0,0.0,77.0,77.0,77.0,1.0,[1.2593999999984362],,,,,,
,,,,,,,,,,,,,,,,,,,,,,,,,,322,1,2023-04-03_19h12.44.597,Occlusion_Psychophysics,2022.1.4,Win32,60.0024001,,,0.05,,,,,,,,,,Stimuli/psy_flexible_rotation_30_objects_occ0.7_0.9s/images/train/n02818832_0/n04256520_9/img_b03_the_sofa_and_chair_company_-_stanley_bed_2014_napoleon_iii_sofa_2007_gray.jpg,n02818832_0,n04256520_9,flexible,0.811299,n04256520_9,Stimuli/psy_flexible_rotation_30_objects_occ0.7_0.9s/images/train/n02818832_0/n04256520_9/img_b03_the_sofa_and_chair_company_-_stanley_bed_2014_napoleon_iii_sofa_2007-3_gray.png,foreground,same as foreground,n02818832_0,n04256520_9,Stimuli/canonical view 2/img_n02818832_0_gray.jpg,Stimuli/canonical view 2/img_n04256520_9_gray.jpg,foreground,right,Experiments/experiment_46/312.jpg,Experiments/experiment_46/313.jpg,Experiments/experiment_46/314.jpg,Experiments/experiment_46/315.jpg,,,left,"[""right""]",False,,0.0,0.0,78.0,78.0,78.0,1.0,[1.3889000000059468],,,,,,
,,,,,,,,,,,,,,,,,,,,,,,,,,322,1,2023-04-03_19h12.44.597,Occlusion_Psychophysics,2022.1.4,Win32,60.0024001,,,0.025,,,,,,,,,,Stimuli/psy_fixed_rotation_30_objects_occ0.7_0.9s/images/train/n02818832_3/n02828884_3/img_b05_ccm_contemporary_bed_max2013_b04_wood_metal_park_bench_2010_gray.jpg,n02818832_3,n02828884_3,fixed,0.729924,n04256520_9,Stimuli/psy_fixed_rotation_30_objects_occ0.7_0.9s/images/train/n04256520_9/n04256520_9/img_napoleon_iii_sofa_napoleon_iii_sofa_2005-3_gray.png,random,fixed,n02818832_3,n02828884_3,Stimuli/canonical view 2/img_n02818832_3_gray.jpg,Stimuli/canonical view 2/img_n02828884_3_gray.jpg,foreground,right,Experiments/experiment_46/316.jpg,Experiments/experiment_46/317.jpg,Experiments/experiment_46/318.jpg,Experiments/experiment_46/319.jpg,,,right,"[""left""]",False,,0.0,0.0,79.0,79.0,79.0,1.0,[0.9657000000029257],,,,,,
,,,,,,,,,,,,,,,,,,,,,,,,,,322,1,2023-04-03_19h12.44.597,Occlusion_Psychophysics,2022.1.4,Win32,60.0024001,,,0.05,,,,,,,,,,Stimuli/psy_flexible_rotation_30_objects_occ0.7_0.9s/images/train/n04379243_8/n02818832_3/img_glass_table_b05_ccm_contemporary_bed_max2013_2012_gray.jpg,n04379243_8,n02818832_3,flexible,0.701436,n02818832_3,Stimuli/psy_flexible_rotation_30_objects_occ0.7_0.9s/images/train/n04379243_8/n02818832_3/img_glass_table_b05_ccm_contemporary_bed_max2013_2012-3_gray.png,foreground,same as foreground,n04379243_8,n02883344_-1,Stimuli/canonical view 2/img_n04379243_8_gray.jpg,Stimuli/canonical view 2/img_n02883344_-1_gray.jpg,random,right,Experiments/experiment_46/320.jpg,Experiments/experiment_46/321.jpg,Experiments/experiment_46/322.jpg,Experiments/experiment_46/323.jpg,,,left,"[""left""]",False,,0.0,0.0,80.0,80.0,80.0,1.0,[1.799699999995596],,,,,,
,,,,,,,,,,,,,,,,,,,,,,,,,,322,1,2023-04-03_19h12.44.597,Occlusion_Psychophysics,2022.1.4,Win32,60.0024001,,,0.05,,,,,,,,,,Stimuli/psy_flexible_rotation_30_objects_occ0.7_0.9s/images/train/n02828884_3/n04379243_-7/img_b04_wood_metal_park_bench_quatre_dining_table_2015_gray.jpg,n02828884_3,n04379243_-7,flexible,0.758108,n02828884_3,Stimuli/psy_flexible_rotation_30_objects_occ0.7_0.9s/images/train/n04256520_5/n02828884_3/img_meridiani_belmondo_bench_sofa_b04_wood_metal_park_bench_2008-3_gray.png,random,flexible,n02828884_3,n02818832_3,Stimuli/canonical view 2/img_n02828884_3_gray.jpg,Stimuli/canonical view 2/img_n02818832_3_gray.jpg,random,left,Experiments/experiment_46/324.jpg,Experiments/experiment_46/325.jpg,Experiments/experiment_46/326.jpg,Experiments/experiment_46/327.jpg,,,left,"[""left""]",False,,0.0,0.0,81.0,81.0,81.0,1.0,[0.9555000000000291],,,,,,
,,,,,,,,,,,,,,,,,,,,,,,,,,322,1,2023-04-03_19h12.44.597,Occlusion_Psychophysics,2022.1.4,Win32,60.0024001,,,0.05,,,,,,,,,,Stimuli/psy_flexible_rotation_30_objects_occ0.7_0.9s/images/train/n02818832_0/n02828884_4/img_b03_the_sofa_and_chair_company_-_stanley_bed_2014_b05_c-5_classic_series_bench-2012_2003_gray.jpg,n02818832_0,n02828884_4,flexible,0.72012,n04379243_0,Stimuli/psy_fixed_rotation_30_objects_occ0.7_0.9s/images/train/n02818832_9/n04379243_0/img_bed01_blue_17th_c._monastery_dining_table_2010_2004-3_gray.png,random,fixed,n02818832_0,n02933112_-18,Stimuli/canonical view 2/img_n02818832_0_gray.jpg,Stimuli/canonical view 2/img_n02933112_-18_gray.jpg,random,left,Experiments/experiment_46/328.jpg,Experiments/experiment_46/329.jpg,Experiments/experiment_46/330.jpg,Experiments/experiment_46/331.jpg,,,left,"[""right""]",False,,0.0,0.0,82.0,82.0,82.0,1.0,[2.785600000001523],,,,,,
,,,,,,,,,,,,,,,,,,,,,,,,,,322,1,2023-04-03_19h12.44.597,Occlusion_Psychophysics,2022.1.4,Win32,60.0024001,,,0.05,,,,,,,,,,Stimuli/psy_flexible_rotation_30_objects_occ0.7_0.9s/images/train/n02828884_3/n02818832_0/img_b04_wood_metal_park_bench_b03_the_sofa_and_chair_company_-_stanley_bed_2014_2001_gray.jpg,n02828884_3,n02818832_0,flexible,0.747366,n02818832_0,Stimuli/psy_flexible_rotation_30_objects_occ0.7_0.9s/images/train/n02828884_3/n02818832_0/img_b04_wood_metal_park_bench_b03_the_sofa_and_chair_company_-_stanley_bed_2014_2001-3_gray.png,foreground,same as foreground,n02828884_3,n02828884_4,Stimuli/canonical view 2/img_n02828884_3_gray.jpg,Stimuli/canonical view 2/img_n02828884_4_gray.jpg,random,left,Experiments/experiment_46/332.jpg,Experiments/experiment_46/333.jpg,Experiments/experiment_46/334.jpg,Experiments/experiment_46/335.jpg,,,right,"[""left""]",False,,0.0,0.0,83.0,83.0,83.0,1.0,[2.0988000000045304],,,,,,
,,,,,,,,,,,,,,,,,,,,,,,,,,322,1,2023-04-03_19h12.44.597,Occlusion_Psychophysics,2022.1.4,Win32,60.0024001,,,0.025,,,,,,,,,,Stimuli/psy_fixed_rotation_30_objects_occ0.7_0.9s/images/train/n02933112_-2/n02883344_15/img_sink_base_white_wood_microwave_box_2010_gray.jpg,n02933112_-2,n02883344_15,fixed,0.768768,n02883344_15,Stimuli/psy_fixed_rotation_30_objects_occ0.7_0.9s/images/train/n02933112_-2/n02883344_15/img_sink_base_white_wood_microwave_box_2010-3_gray.png,foreground,same as foreground,n02933112_-2,n02883344_15,Stimuli/canonical view 2/img_n02933112_-2_gray.jpg,Stimuli/canonical view 2/img_n02883344_15_gray.jpg,foreground,right,Experiments/experiment_46/336.jpg,Experiments/experiment_46/337.jpg,Experiments/experiment_46/338.jpg,Experiments/experiment_46/339.jpg,,,right,"[""left""]",False,,0.0,0.0,84.0,84.0,84.0,1.0,[1.3629999999999427],,,,,,
,,,,,,,,,,,,,,,,,,,,,,,,,,322,1,2023-04-03_19h12.44.597,Occlusion_Psychophysics,2022.1.4,Win32,60.0024001,,,0.025,,,,,,,,,,Stimuli/psy_fixed_rotation_30_objects_occ0.7_0.9s/images/train/n04256520_5/n03928116_0/img_meridiani_belmondo_bench_sofa_b02_piano_2011_gray.jpg,n04256520_5,n03928116_0,fixed,0.715044,n04379243_0,Stimuli/psy_fixed_rotation_30_objects_occ0.7_0.9s/images/train/n02933112_-2/n04379243_0/img_sink_base_white_wood_17th_c._monastery_dining_table_2010_2013-3_gray.png,random,fixed,n04256520_5,n02933112_-18,Stimuli/canonical view 2/img_n04256520_5_gray.jpg,Stimuli/canonical view 2/img_n02933112_-18_gray.jpg,random,right,Experiments/experiment_46/340.jpg,Experiments/experiment_46/341.jpg,Experiments/experiment_46/342.jpg,Experiments/experiment_46/343.jpg,,,right,"[""right""]",False,,0.0,0.0,85.0,85.0,85.0,1.0,[1.808499999999981],,,,,,
,,,,,,,,,,,,,,,,,,,,,,,,,,322,1,2023-04-03_19h12.44.597,Occlusion_Psychophysics,2022.1.4,Win32,60.0024001,,,0.025,,,,,,,,,,Stimuli/psy_fixed_rotation_30_objects_occ0.7_0.9s/images/train/n02883344_0/n02818832_9/img_b03_box_bed01_blue_2008_gray.jpg,n02883344_0,n02818832_9,fixed,0.873629,n02818832_9,Stimuli/psy_fixed_rotation_30_objects_occ0.7_0.9s/images/train/n02883344_0/n02818832_9/img_b03_box_bed01_blue_2008-3_gray.png,foreground,same as foreground,n02883344_0,n02818832_9,Stimuli/canonical view 2/img_n02883344_0_gray.jpg,Stimuli/canonical view 2/img_n02818832_9_gray.jpg,foreground,left,Experiments/experiment_46/344.jpg,Experiments/experiment_46/345.jpg,Experiments/experiment_46/346.jpg,Experiments/experiment_46/347.jpg,,,left,"[""right""]",False,,0.0,0.0,86.0,86.0,86.0,1.0,[0.8637999999970134],,,,,,
,,,,,,,,,,,,,,,,,,,,,,,,,,322,1,2023-04-03_19h12.44.597,Occlusion_Psychophysics,2022.1.4,Win32,60.0024001,,,0.05,,,,,,,,,,Stimuli/psy_flexible_rotation_30_objects_occ0.7_0.9s/images/train/n04405907_8/n03928116_0/img_stylized_tv_b02_piano_2013_gray.jpg,n04405907_8,n03928116_0,flexible,0.752745,n03928116_0,Stimuli/psy_flexible_rotation_30_objects_occ0.7_0.9s/images/train/n04405907_8/n03928116_0/img_stylized_tv_b02_piano_2013-3_gray.png,foreground,same as foreground,n04405907_8,n03928116_0,Stimuli/canonical view 2/img_n04405907_8_gray.jpg,Stimuli/canonical view 2/img_n03928116_0_gray.jpg,foreground,right,Experiments/experiment_46/348.jpg,Experiments/experiment_46/349.jpg,Experiments/experiment_46/350.jpg,Experiments/experiment_46/351.jpg,,,left,"[""right""]",False,,0.0,0.0,87.0,87.0,87.0,1.0,[0.8269999999999982],,,,,,
,,,,,,,,,,,,,,,,,,,,,,,,,,322,1,2023-04-03_19h12.44.597,Occlusion_Psychophysics,2022.1.4,Win32,60.0024001,,,0.05,,,,,,,,,,Stimuli/psy_flexible_rotation_30_objects_occ0.7_0.9s/images/train/n02933112_-2/n04256520_5/img_sink_base_white_wood_meridiani_belmondo_bench_sofa_2014_gray.jpg,n02933112_-2,n04256520_5,flexible,0.707551,n03928116_0,Stimuli/psy_fixed_rotation_30_objects_occ0.7_0.9s/images/train/n04379243_-7/n03928116_0/img_quatre_dining_table_b02_piano_2002-3_gray.png,random,fixed,n02933112_-2,n04405907_5,Stimuli/canonical view 2/img_n02933112_-2_gray.jpg,Stimuli/canonical view 2/img_n04405907_5_gray.jpg,random,left,Experiments/experiment_46/352.jpg,Experiments/experiment_46/353.jpg,Experiments/experiment_46/354.jpg,Experiments/experiment_46/355.jpg,,,left,"[""right""]",False,,0.0,0.0,88.0,88.0,88.0,1.0,[1.6245000000000118],,,,,,
,,,,,,,,,,,,,,,,,,,,,,,,,,322,1,2023-04-03_19h12.44.597,Occlusion_Psychophysics,2022.1.4,Win32,60.0024001,,,0.025,,,,,,,,,,Stimuli/psy_flexible_rotation_30_objects_occ0.7_0.9s/images/train/n04405907_8/n04256520_9/img_stylized_tv_napoleon_iii_sofa_2002_gray.jpg,n04405907_8,n04256520_9,flexible,0.730522,n04405907_5,Stimuli/psy_fixed_rotation_30_objects_occ0.7_0.9s/images/train/n03001627_8/n04405907_5/img_chair_billiani_doll_samsung_40_uhd_smart_tv_2011_2008-3_gray.png,random,fixed,n04405907_8,n04256520_9,Stimuli/canonical view 2/img_n04405907_8_gray.jpg,Stimuli/canonical view 2/img_n04256520_9_gray.jpg,foreground,right,Experiments/experiment_46/356.jpg,Experiments/experiment_46/357.jpg,Experiments/experiment_46/358.jpg,Experiments/experiment_46/359.jpg,,,right,"[""left""]",False,,0.0,0.0,89.0,89.0,89.0,1.0,[1.0539999999999736],,,,,,
,,,,,,,,,,,,,,,,,,,,,,,,,,322,1,2023-04-03_19h12.44.597,Occlusion_Psychophysics,2022.1.4,Win32,60.0024001,,,0.025,,,,,,,,,,Stimuli/psy_flexible_rotation_30_objects_occ0.7_0.9s/images/train/n04379243_8/n02818832_9/img_glass_table_bed01_blue_2015_gray.jpg,n04379243_8,n02818832_9,flexible,0.730069,n04405907_9,Stimuli/psy_fixed_rotation_30_objects_occ0.7_0.9s/images/train/n04256520_5/n04405907_9/img_meridiani_belmondo_bench_sofa_vray_004_2010-3_gray.png,random,fixed,n04379243_8,n02818832_9,Stimuli/canonical view 2/img_n04379243_8_gray.jpg,Stimuli/canonical view 2/img_n02818832_9_gray.jpg,foreground,left,Experiments/experiment_46/360.jpg,Experiments/experiment_46/361.jpg,Experiments/experiment_46/362.jpg,Experiments/experiment_46/363.jpg,,,right,"[""left""]",False,,0.0,0.0,90.0,90.0,90.0,1.0,[0.9131000000014637],,,,,,
,,,,,,,,,,,,,,,,,,,,,,,,,,322,1,2023-04-03_19h12.44.597,Occlusion_Psychophysics,2022.1.4,Win32,60.0024001,,,0.05,,,,,,,,,,Stimuli/psy_flexible_rotation_30_objects_occ0.7_0.9s/images/train/n04379243_0/n02883344_-1/img_17th_c._monastery_dining_table_2010_woven_box_2013_gray.jpg,n04379243_0,n02883344_-1,flexible,0.750612,n04256520_4,Stimuli/psy_flexible_rotation_30_objects_occ0.7_0.9s/images/train/n04405907_9/n04256520_4/img_vray_004_club_house_italia_nautilus_sofa_2000-3_gray.png,random,flexible,n04379243_0,n02883344_-1,Stimuli/canonical view 2/img_n04379243_0_gray.jpg,Stimuli/canonical view 2/img_n02883344_-1_gray.jpg,foreground,right,Experiments/experiment_46/364.jpg,Experiments/experiment_46/365.jpg,Experiments/experiment_46/366.jpg,Experiments/experiment_46/367.jpg,,,right,"[""left""]",False,,0.0,0.0,91.0,91.0,91.0,1.0,[1.1319999999999482],,,,,,
,,,,,,,,,,,,,,,,,,,,,,,,,,322,1,2023-04-03_19h12.44.597,Occlusion_Psychophysics,2022.1.4,Win32,60.0024001,,,0.05,,,,,,,,,,Stimuli/psy_fixed_rotation_30_objects_occ0.7_0.9s/images/train/n04379243_8/n04256520_5/img_glass_table_meridiani_belmondo_bench_sofa_2013_gray.jpg,n04379243_8,n04256520_5,fixed,0.753057,n03928116_0,Stimuli/psy_flexible_rotation_30_objects_occ0.7_0.9s/images/train/n04256520_4/n03928116_0/img_club_house_italia_nautilus_sofa_b02_piano_2014-3_gray.png,random,flexible,n04379243_8,n02883344_15,Stimuli/canonical view 2/img_n04379243_8_gray.jpg,Stimuli/canonical view 2/img_n02883344_15_gray.jpg,random,right,Experiments/experiment_46/368.jpg,Experiments/experiment_46/369.jpg,Experiments/experiment_46/370.jpg,Experiments/experiment_46/371.jpg,,,right,"[""right""]",False,,0.0,0.0,92.0,92.0,92.0,1.0,[2.0029000000059796],,,,,,
,,,,,,,,,,,,,,,,,,,,,,,,,,322,1,2023-04-03_19h12.44.597,Occlusion_Psychophysics,2022.1.4,Win32,60.0024001,,,0.025,,,,,,,,,,Stimuli/psy_flexible_rotation_30_objects_occ0.7_0.9s/images/train/n03928116_0/n02933112_-2/img_b02_piano_sink_base_white_wood_2010_gray.jpg,n03928116_0,n02933112_-2,flexible,0.720226,n02933112_-2,Stimuli/psy_flexible_rotation_30_objects_occ0.7_0.9s/images/train/n03928116_0/n02933112_-2/img_b02_piano_sink_base_white_wood_2010-3_gray.png,foreground,same as foreground,n03928116_0,n02818832_3,Stimuli/canonical view 2/img_n03928116_0_gray.jpg,Stimuli/canonical view 2/img_n02818832_3_gray.jpg,random,left,Experiments/experiment_46/372.jpg,Experiments/experiment_46/373.jpg,Experiments/experiment_46/374.jpg,Experiments/experiment_46/375.jpg,,,left,"[""right""]",False,,0.0,0.0,93.0,93.0,93.0,1.0,[2.273099999993974],,,,,,
,,,,,,,,,,,,,,,,,,,,,,,,,,322,1,2023-04-03_19h12.44.597,Occlusion_Psychophysics,2022.1.4,Win32,60.0024001,,,0.025,,,,,,,,,,Stimuli/psy_fixed_rotation_30_objects_occ0.7_0.9s/images/train/n04379243_-7/n03928116_0/img_quatre_dining_table_b02_piano_2000_gray.jpg,n04379243_-7,n03928116_0,fixed,0.771184,n03928116_0,Stimuli/psy_fixed_rotation_30_objects_occ0.7_0.9s/images/train/n04379243_-7/n03928116_0/img_quatre_dining_table_b02_piano_2000-3_gray.png,foreground,same as foreground,n04379243_-7,n03928116_0,Stimuli/canonical view 2/img_n04379243_-7_gray.jpg,Stimuli/canonical view 2/img_n03928116_0_gray.jpg,foreground,left,Experiments/experiment_46/376.jpg,Experiments/experiment_46/377.jpg,Experiments/experiment_46/378.jpg,Experiments/experiment_46/379.jpg,,,left,"[""left""]",False,,0.0,0.0,94.0,94.0,94.0,1.0,[1.63900000000001],,,,,,
,,,,,,,,,,,,,,,,,,,,,,,,,,322,1,2023-04-03_19h12.44.597,Occlusion_Psychophysics,2022.1.4,Win32,60.0024001,,,0.05,,,,,,,,,,Stimuli/psy_flexible_rotation_30_objects_occ0.7_0.9s/images/train/n03001627_8/n04256520_5/img_chair_billiani_doll_meridiani_belmondo_bench_sofa_2008_gray.jpg,n03001627_8,n04256520_5,flexible,0.713493,n04256520_5,Stimuli/psy_flexible_rotation_30_objects_occ0.7_0.9s/images/train/n03001627_8/n04256520_5/img_chair_billiani_doll_meridiani_belmondo_bench_sofa_2008-3_gray.png,foreground,same as foreground,n03001627_8,n04256520_5,Stimuli/canonical view 2/img_n03001627_8_gray.jpg,Stimuli/canonical view 2/img_n04256520_5_gray.jpg,foreground,left,Experiments/experiment_46/380.jpg,Experiments/experiment_46/381.jpg,Experiments/experiment_46/382.jpg,Experiments/experiment_46/383.jpg,,,right,"[""left""]",False,,0.0,0.0,95.0,95.0,95.0,1.0,[1.1398000000044703],,,,,,
,,,,,,,,,,,,,,,,,,,,,,,,,,322,1,2023-04-03_19h12.44.597,Occlusion_Psychophysics,2022.1.4,Win32,60.0024001,,,0.025,,,,,,,,,,Stimuli/psy_fixed_rotation_30_objects_occ0.7_0.9s/images/train/n03001627_9/n04405907_5/img_chair_eames_plastic_armchair_samsung_40_uhd_smart_tv_2011_2012_gray.jpg,n03001627_9,n04405907_5,fixed,0.856733,n04405907_5,Stimuli/psy_fixed_rotation_30_objects_occ0.7_0.9s/images/train/n03001627_9/n04405907_5/img_chair_eames_plastic_armchair_samsung_40_uhd_smart_tv_2011_2012-3_gray.png,foreground,same as foreground,n03001627_9,n02883344_15,Stimuli/canonical view 2/img_n03001627_9_gray.jpg,Stimuli/canonical view 2/img_n02883344_15_gray.jpg,random,right,Experiments/experiment_46/384.jpg,Experiments/experiment_46/385.jpg,Experiments/experiment_46/386.jpg,Experiments/experiment_46/387.jpg,,,right,,False,,0.0,0.0,96.0,96.0,96.0,1.0,,,,,,,
,,,,,,,,,,,,,,,,,,,,,,,,,,322,1,2023-04-03_19h12.44.597,Occlusion_Psychophysics,2022.1.4,Win32,60.0024001,,,0.025,,,,,,,,,,Stimuli/psy_fixed_rotation_30_objects_occ0.7_0.9s/images/train/n04379243_0/n04405907_5/img_17th_c._monastery_dining_table_2010_samsung_40_uhd_smart_tv_2011_2012_gray.jpg,n04379243_0,n04405907_5,fixed,0.707823,n03928116_0,Stimuli/psy_flexible_rotation_30_objects_occ0.7_0.9s/images/train/n03928116_4/n03928116_0/img_dp_33_b_2013__vray_b02_piano_2013-3_gray.png,random,flexible,n04379243_0,n04405907_5,Stimuli/canonical view 2/img_n04379243_0_gray.jpg,Stimuli/canonical view 2/img_n04405907_5_gray.jpg,foreground,right,Experiments/experiment_46/388.jpg,Experiments/experiment_46/389.jpg,Experiments/experiment_46/390.jpg,Experiments/experiment_46/391.jpg,,,left,"[""left""]",False,,0.0,0.0,97.0,97.0,97.0,1.0,[1.1223999999984926],,,,,,
,,,,,,,,,,,,,,,,,,,,,,,,,,322,1,2023-04-03_19h12.44.597,Occlusion_Psychophysics,2022.1.4,Win32,60.0024001,,,0.025,,,,,,,,,,Stimuli/psy_flexible_rotation_30_objects_occ0.7_0.9s/images/train/n04405907_8/n04405907_9/img_stylized_tv_vray_004_2014_gray.jpg,n04405907_8,n04405907_9,flexible,0.718754,n04405907_9,Stimuli/psy_flexible_rotation_30_objects_occ0.7_0.9s/images/train/n04405907_8/n04405907_9/img_stylized_tv_vray_004_2014-3_gray.png,foreground,same as foreground,n04405907_8,n04405907_5,Stimuli/canonical view 2/img_n04405907_8_gray.jpg,Stimuli/canonical view 2/img_n04405907_5_gray.jpg,random,left,Experiments/experiment_46/392.jpg,Experiments/experiment_46/393.jpg,Experiments/experiment_46/394.jpg,Experiments/experiment_46/395.jpg,,,right,"[""left""]",False,,0.0,0.0,98.0,98.0,98.0,1.0,[1.308499999999981],,,,,,
,,,,,,,,,,,,,,,,,,,,,,,,,,322,1,2023-04-03_19h12.44.597,Occlusion_Psychophysics,2022.1.4,Win32,60.0024001,,,0.05,,,,,,,,,,Stimuli/psy_fixed_rotation_30_objects_occ0.7_0.9s/images/train/n02933112_-2/n04405907_8/img_sink_base_white_wood_stylized_tv_2012_gray.jpg,n02933112_-2,n04405907_8,fixed,0.729043,n02933112_4,Stimuli/psy_flexible_rotation_30_objects_occ0.7_0.9s/images/train/n03001627_8/n02933112_4/img_chair_billiani_doll_buffet_2004-3_gray.png,random,flexible,n02933112_-2,n04405907_8,Stimuli/canonical view 2/img_n02933112_-2_gray.jpg,Stimuli/canonical view 2/img_n04405907_8_gray.jpg,foreground,left,Experiments/experiment_46/396.jpg,Experiments/experiment_46/397.jpg,Experiments/experiment_46/398.jpg,Experiments/experiment_46/399.jpg,,,left,"[""right""]",False,,0.0,0.0,99.0,99.0,99.0,1.0,[1.1649999999999636],,,,,,
,,,,,,,,,,,,,,,,,,,,,,,,,,322,1,2023-04-03_19h12.44.597,Occlusion_Psychophysics,2022.1.4,Win32,60.0024001,,,,,,,,,,,,,,,,,,,,,,,,,,,,,,,,,,,,,,,,,,,,,,0.0,0.0,0.0,0.0,1.0
,,,,,,,,,,,,,,,,,,,,,,,,,,322,1,2023-04-03_19h12.44.597,Occlusion_Psychophysics,2022.1.4,Win32,60.0024001,,,0.025,,,,,,,,,,Stimuli/psy_flexible_rotation_30_objects_occ0.7_0.9s/images/train/n03001627_8/n04405907_5/img_chair_billiani_doll_samsung_40_uhd_smart_tv_2011_2008_gray.jpg,n03001627_8,n04405907_5,flexible,0.758261,n04405907_5,Stimuli/psy_flexible_rotation_30_objects_occ0.7_0.9s/images/train/n03001627_8/n04405907_5/img_chair_billiani_doll_samsung_40_uhd_smart_tv_2011_2008-3_gray.png,foreground,same as foreground,n03001627_8,n02818832_0,Stimuli/canonical view 2/img_n03001627_8_gray.jpg,Stimuli/canonical view 2/img_n02818832_0_gray.jpg,random,left,Experiments/experiment_46/400.jpg,Experiments/experiment_46/401.jpg,Experiments/experiment_46/402.jpg,Experiments/experiment_46/403.jpg,,,right,"[""left""]",False,,0.0,0.0,0.0,0.0,0.0,1.0,[1.6967000000029202],,,,,,
,,,,,,,,,,,,,,,,,,,,,,,,,,322,1,2023-04-03_19h12.44.597,Occlusion_Psychophysics,2022.1.4,Win32,60.0024001,,,0.05,,,,,,,,,,Stimuli/psy_fixed_rotation_30_objects_occ0.7_0.9s/images/train/n04379243_8/n02828884_4/img_glass_table_b05_c-5_classic_series_bench-2012_2010_gray.jpg,n04379243_8,n02828884_4,fixed,0.725175,n02828884_4,Stimuli/psy_fixed_rotation_30_objects_occ0.7_0.9s/images/train/n04379243_8/n02828884_4/img_glass_table_b05_c-5_classic_series_bench-2012_2010-3_gray.png,foreground,same as foreground,n04379243_8,n04256520_5,Stimuli/canonical view 2/img_n04379243_8_gray.jpg,Stimuli/canonical view 2/img_n04256520_5_gray.jpg,random,left,Experiments/experiment_46/404.jpg,Experiments/experiment_46/405.jpg,Experiments/experiment_46/406.jpg,Experiments/experiment_46/407.jpg,,,right,"[""right""]",False,,0.0,0.0,1.0,1.0,1.0,1.0,[1.863999999999919],,,,,,
,,,,,,,,,,,,,,,,,,,,,,,,,,322,1,2023-04-03_19h12.44.597,Occlusion_Psychophysics,2022.1.4,Win32,60.0024001,,,0.05,,,,,,,,,,Stimuli/psy_flexible_rotation_30_objects_occ0.7_0.9s/images/train/n02818832_0/n04256520_5/img_b03_the_sofa_and_chair_company_-_stanley_bed_2014_meridiani_belmondo_bench_sofa_2003_gray.jpg,n02818832_0,n04256520_5,flexible,0.716628,n04256520_5,Stimuli/psy_flexible_rotation_30_objects_occ0.7_0.9s/images/train/n02818832_0/n04256520_5/img_b03_the_sofa_and_chair_company_-_stanley_bed_2014_meridiani_belmondo_bench_sofa_2003-3_gray.png,foreground,same as foreground,n02818832_0,n04256520_5,Stimuli/canonical view 2/img_n02818832_0_gray.jpg,Stimuli/canonical view 2/img_n04256520_5_gray.jpg,foreground,left,Experiments/experiment_46/408.jpg,Experiments/experiment_46/409.jpg,Experiments/experiment_46/410.jpg,Experiments/experiment_46/411.jpg,,,left,"[""left""]",False,,0.0,0.0,2.0,2.0,2.0,1.0,[1.0018000000044367],,,,,,
,,,,,,,,,,,,,,,,,,,,,,,,,,322,1,2023-04-03_19h12.44.597,Occlusion_Psychophysics,2022.1.4,Win32,60.0024001,,,0.05,,,,,,,,,,Stimuli/psy_flexible_rotation_30_objects_occ0.7_0.9s/images/train/n02883344_-1/n02933112_-18/img_woven_box_cgaxis_models_48_26_vray_composite_2004_gray.jpg,n02883344_-1,n02933112_-18,flexible,0.709128,n04405907_8,Stimuli/psy_fixed_rotation_30_objects_occ0.7_0.9s/images/train/n03001627_-2/n04405907_8/img_wood_chair_stylized_tv_2011-3_gray.png,random,fixed,n02883344_-1,n02818832_0,Stimuli/canonical view 2/img_n02883344_-1_gray.jpg,Stimuli/canonical view 2/img_n02818832_0_gray.jpg,random,left,Experiments/experiment_46/412.jpg,Experiments/experiment_46/413.jpg,Experiments/experiment_46/414.jpg,Experiments/experiment_46/415.jpg,,,left,"[""left""]",False,,0.0,0.0,3.0,3.0,3.0,1.0,[1.5077000000029557],,,,,,
,,,,,,,,,,,,,,,,,,,,,,,,,,322,1,2023-04-03_19h12.44.597,Occlusion_Psychophysics,2022.1.4,Win32,60.0024001,,,0.05,,,,,,,,,,Stimuli/psy_fixed_rotation_30_objects_occ0.7_0.9s/images/train/n02933112_-2/n04256520_5/img_sink_base_white_wood_meridiani_belmondo_bench_sofa_2003_gray.jpg,n02933112_-2,n04256520_5,fixed,0.721815,n02883344_-1,Stimuli/psy_fixed_rotation_30_objects_occ0.7_0.9s/images/train/n03928116_10/n02883344_-1/img_ydp_103_r_2012__vray_woven_box_2001-3_gray.png,random,fixed,n02933112_-2,n04256520_5,Stimuli/canonical view 2/img_n02933112_-2_gray.jpg,Stimuli/canonical view 2/img_n04256520_5_gray.jpg,foreground,left,Experiments/experiment_46/416.jpg,Experiments/experiment_46/417.jpg,Experiments/experiment_46/418.jpg,Experiments/experiment_46/419.jpg,,,left,"[""left""]",False,,0.0,0.0,4.0,4.0,4.0,1.0,[1.101700000002893],,,,,,
,,,,,,,,,,,,,,,,,,,,,,,,,,322,1,2023-04-03_19h12.44.597,Occlusion_Psychophysics,2022.1.4,Win32,60.0024001,,,0.025,,,,,,,,,,Stimuli/psy_flexible_rotation_30_objects_occ0.7_0.9s/images/train/n03928116_4/n03928116_0/img_dp_33_b_2013__vray_b02_piano_2015_gray.jpg,n03928116_4,n03928116_0,flexible,0.801676,n03928116_4,Stimuli/psy_flexible_rotation_30_objects_occ0.7_0.9s/images/train/n03928116_10/n03928116_4/img_ydp_103_r_2012__vray_dp_33_b_2013__vray_2001-3_gray.png,random,flexible,n03928116_4,n03928116_0,Stimuli/canonical view 2/img_n03928116_4_gray.jpg,Stimuli/canonical view 2/img_n03928116_0_gray.jpg,foreground,right,Experiments/experiment_46/420.jpg,Experiments/experiment_46/421.jpg,Experiments/experiment_46/422.jpg,Experiments/experiment_46/423.jpg,,,left,"[""left""]",False,,0.0,0.0,5.0,5.0,5.0,1.0,[1.1186000000014928],,,,,,
,,,,,,,,,,,,,,,,,,,,,,,,,,322,1,2023-04-03_19h12.44.597,Occlusion_Psychophysics,2022.1.4,Win32,60.0024001,,,0.05,,,,,,,,,,Stimuli/psy_fixed_rotation_30_objects_occ0.7_0.9s/images/train/n04405907_8/n02818832_9/img_stylized_tv_bed01_blue_2004_gray.jpg,n04405907_8,n02818832_9,fixed,0.745239,n02818832_9,Stimuli/psy_fixed_rotation_30_objects_occ0.7_0.9s/images/train/n04405907_8/n02818832_9/img_stylized_tv_bed01_blue_2004-3_gray.png,foreground,same as foreground,n04405907_8,n03001627_-2,Stimuli/canonical view 2/img_n04405907_8_gray.jpg,Stimuli/canonical view 2/img_n03001627_-2_gray.jpg,random,right,Experiments/experiment_46/424.jpg,Experiments/experiment_46/425.jpg,Experiments/experiment_46/426.jpg,Experiments/experiment_46/427.jpg,,,left,"[""left""]",False,,0.0,0.0,6.0,6.0,6.0,1.0,[1.4356999999955633],,,,,,
,,,,,,,,,,,,,,,,,,,,,,,,,,322,1,2023-04-03_19h12.44.597,Occlusion_Psychophysics,2022.1.4,Win32,60.0024001,,,0.05,,,,,,,,,,Stimuli/psy_fixed_rotation_30_objects_occ0.7_0.9s/images/train/n02933112_4/n03928116_0/img_buffet_b02_piano_2008_gray.jpg,n02933112_4,n03928116_0,fixed,0.83044,n04405907_8,Stimuli/psy_fixed_rotation_30_objects_occ0.7_0.9s/images/train/n04256520_4/n04405907_8/img_club_house_italia_nautilus_sofa_stylized_tv_2006-3_gray.png,random,fixed,n02933112_4,n04379243_-7,Stimuli/canonical view 2/img_n02933112_4_gray.jpg,Stimuli/canonical view 2/img_n04379243_-7_gray.jpg,random,left,Experiments/experiment_46/428.jpg,Experiments/experiment_46/429.jpg,Experiments/experiment_46/430.jpg,Experiments/experiment_46/431.jpg,,,right,"[""right""]",False,,0.0,0.0,7.0,7.0,7.0,1.0,[1.8100000000000591],,,,,,
,,,,,,,,,,,,,,,,,,,,,,,,,,322,1,2023-04-03_19h12.44.597,Occlusion_Psychophysics,2022.1.4,Win32,60.0024001,,,0.025,,,,,,,,,,Stimuli/psy_fixed_rotation_30_objects_occ0.7_0.9s/images/train/n02933112_-18/n02933112_-2/img_cgaxis_models_48_26_vray_composite_sink_base_white_wood_2008_gray.jpg,n02933112_-18,n02933112_-2,fixed,0.762482,n04379243_8,Stimuli/psy_fixed_rotation_30_objects_occ0.7_0.9s/images/train/n02828884_3/n04379243_8/img_b04_wood_metal_park_bench_glass_table_2003-3_gray.png,random,fixed,n02933112_-18,n02933112_-2,Stimuli/canonical view 2/img_n02933112_-18_gray.jpg,Stimuli/canonical view 2/img_n02933112_-2_gray.jpg,foreground,left,Experiments/experiment_46/432.jpg,Experiments/experiment_46/433.jpg,Experiments/experiment_46/434.jpg,Experiments/experiment_46/435.jpg,,,right,"[""left""]",False,,0.0,0.0,8.0,8.0,8.0,1.0,[1.3717000000029884],,,,,,
,,,,,,,,,,,,,,,,,,,,,,,,,,322,1,2023-04-03_19h12.44.597,Occlusion_Psychophysics,2022.1.4,Win32,60.0024001,,,0.025,,,,,,,,,,Stimuli/psy_fixed_rotation_30_objects_occ0.7_0.9s/images/train/n04379243_0/n03928116_10/img_17th_c._monastery_dining_table_2010_ydp_103_r_2012__vray_2009_gray.jpg,n04379243_0,n03928116_10,fixed,0.778742,n03928116_10,Stimuli/psy_fixed_rotation_30_objects_occ0.7_0.9s/images/train/n04379243_0/n03928116_10/img_17th_c._monastery_dining_table_2010_ydp_103_r_2012__vray_2009-3_gray.png,foreground,same as foreground,n04379243_0,n03928116_10,Stimuli/canonical view 2/img_n04379243_0_gray.jpg,Stimuli/canonical view 2/img_n03928116_10_gray.jpg,foreground,right,Experiments/experiment_46/436.jpg,Experiments/experiment_46/437.jpg,Experiments/experiment_46/438.jpg,Experiments/experiment_46/439.jpg,,,right,"[""right""]",False,,0.0,0.0,9.0,9.0,9.0,1.0,[1.1823999999985517],,,,,,
,,,,,,,,,,,,,,,,,,,,,,,,,,322,1,2023-04-03_19h12.44.597,Occlusion_Psychophysics,2022.1.4,Win32,60.0024001,,,0.025,,,,,,,,,,Stimuli/psy_fixed_rotation_30_objects_occ0.7_0.9s/images/train/n02883344_15/n04379243_0/img_microwave_box_17th_c._monastery_dining_table_2010_2011_gray.jpg,n02883344_15,n04379243_0,fixed,0.708907,n04379243_0,Stimuli/psy_fixed_rotation_30_objects_occ0.7_0.9s/images/train/n02883344_15/n04379243_0/img_microwave_box_17th_c._monastery_dining_table_2010_2011-3_gray.png,foreground,same as foreground,n02883344_15,n04379243_0,Stimuli/canonical view 2/img_n02883344_15_gray.jpg,Stimuli/canonical view 2/img_n04379243_0_gray.jpg,foreground,left,Experiments/experiment_46/440.jpg,Experiments/experiment_46/441.jpg,Experiments/experiment_46/442.jpg,Experiments/experiment_46/443.jpg,,,left,"[""left""]",False,,0.0,0.0,10.0,10.0,10.0,1.0,[1.6547000000028902],,,,,,
,,,,,,,,,,,,,,,,,,,,,,,,,,322,1,2023-04-03_19h12.44.597,Occlusion_Psychophysics,2022.1.4,Win32,60.0024001,,,0.05,,,,,,,,,,Stimuli/psy_flexible_rotation_30_objects_occ0.7_0.9s/images/train/n02818832_9/n02818832_0/img_bed01_blue_b03_the_sofa_and_chair_company_-_stanley_bed_2014_2014_gray.jpg,n02818832_9,n02818832_0,flexible,0.783554,n04256520_4,Stimuli/psy_flexible_rotation_30_objects_occ0.7_0.9s/images/train/n02883344_-1/n04256520_4/img_woven_box_club_house_italia_nautilus_sofa_2006-3_gray.png,random,flexible,n02818832_9,n02828884_3,Stimuli/canonical view 2/img_n02818832_9_gray.jpg,Stimuli/canonical view 2/img_n02828884_3_gray.jpg,random,left,Experiments/experiment_46/444.jpg,Experiments/experiment_46/445.jpg,Experiments/experiment_46/446.jpg,Experiments/experiment_46/447.jpg,,,right,"[""right""]",False,,0.0,0.0,11.0,11.0,11.0,1.0,[1.982799999996928],,,,,,
,,,,,,,,,,,,,,,,,,,,,,,,,,322,1,2023-04-03_19h12.44.597,Occlusion_Psychophysics,2022.1.4,Win32,60.0024001,,,0.025,,,,,,,,,,Stimuli/psy_fixed_rotation_30_objects_occ0.7_0.9s/images/train/n02818832_9/n03928116_0/img_bed01_blue_b02_piano_2004_gray.jpg,n02818832_9,n03928116_0,fixed,0.735619,n03928116_0,Stimuli/psy_fixed_rotation_30_objects_occ0.7_0.9s/images/train/n02818832_9/n03928116_0/img_bed01_blue_b02_piano_2004-3_gray.png,foreground,same as foreground,n02818832_9,n03001627_8,Stimuli/canonical view 2/img_n02818832_9_gray.jpg,Stimuli/canonical view 2/img_n03001627_8_gray.jpg,random,left,Experiments/experiment_46/448.jpg,Experiments/experiment_46/449.jpg,Experiments/experiment_46/450.jpg,Experiments/experiment_46/451.jpg,,,right,"[""right""]",False,,0.0,0.0,12.0,12.0,12.0,1.0,[1.1210000000000946],,,,,,
,,,,,,,,,,,,,,,,,,,,,,,,,,322,1,2023-04-03_19h12.44.597,Occlusion_Psychophysics,2022.1.4,Win32,60.0024001,,,0.05,,,,,,,,,,Stimuli/psy_flexible_rotation_30_objects_occ0.7_0.9s/images/train/n03001627_-2/n02883344_-1/img_wood_chair_woven_box_2001_gray.jpg,n03001627_-2,n02883344_-1,flexible,0.715387,n02883344_0,Stimuli/psy_flexible_rotation_30_objects_occ0.7_0.9s/images/train/n02883344_0/n02883344_0/img_b03_box_b03_box_2010-3_gray.png,random,flexible,n03001627_-2,n02883344_-1,Stimuli/canonical view 2/img_n03001627_-2_gray.jpg,Stimuli/canonical view 2/img_n02883344_-1_gray.jpg,foreground,left,Experiments/experiment_46/452.jpg,Experiments/experiment_46/453.jpg,Experiments/experiment_46/454.jpg,Experiments/experiment_46/455.jpg,,,left,"[""left""]",False,,0.0,0.0,13.0,13.0,13.0,1.0,[1.0867000000029066],,,,,,
