in_color,Instructions_key.keys,Instructions_key.rt,Tutorial_instruction_key.keys,Tutorial_instruction_key.rt,Tutorial_fixation_ley.keys,Tutorial_fixation_ley.rt,Tutorial_single_img_key.keys,Tutorial_single_img_key.rt,Tutorial_intra_trial_fixation_key.keys,Tutorial_intra_trial_fixation_key.rt,Tutorial_stimulus_key.keys,Tutorial_stimulus_key.rt,Tutorial_response_key.keys,Tutorial_response_key.rt,Tutorial_attention_check_key.keys,Tutorial_attention_check_key.rt,advance_or_repeat.keys,advance_or_repeat.rt,Practice_instructions_key.keys,Practice_instructions_key.rt,intra_trial_duration,Practice_key_response.keys,Practice_key_response.rt,Practice_react_key.keys,Practice_react_key.rt,Practice_loop.thisRepN,Practice_loop.thisTrialN,Practice_loop.thisN,Practice_loop.thisIndex,Practice_loop.ran,multi_object_filepath,background_id,foreground_id,multi_object_rotation,occlusion_level,single_object_id,single_object_filepath,single_is_foreground_or_random,single_object_rotation,background_choice_id,alt_choice_id,background_option_filepath,alternative_option_filepath,alternative_is_foreground_or_random,location_of_correct_answer,multi_object_exp_filename,single_object_exp_filename,background_option_exp_filename,alternative_option_exp_filename,participant,session,date,expName,psychopyVersion,OS,frameRate,Practice_end_key.keys,Practice_end_key.rt,correct_answer,Input_selection.keys,Input_selection.rt,Was_attention_check,Attention_check.keys,Attention_check.corr,Each_session_loop.thisRepN,Each_session_loop.thisTrialN,Each_session_loop.thisN,Each_session_loop.thisIndex,Each_session_loop.ran,Attention_check.rt,Num_sessions.thisRepN,Num_sessions.thisTrialN,Num_sessions.thisN,Num_sessions.thisIndex,Num_sessions.ran
False,space,73.1462,space,6.8359,space,9.8609,space,6.8117,space,7.8471,space,16.8176,right,14.0152,right,7.8117,a,7.9768,space,9.4571,0.025,left,1.0872,a,6.559,0.0,0.0,0.0,0.0,1.0,Stimuli/psy_fixed_rotation_30_objects_occ0.7_0.9s/images/train/n02828884_3/n02933112_-2/img_b04_wood_metal_park_bench_sink_base_white_wood_2011_gray.jpg,n02828884_3,n02933112_-2,fixed,0.702374,n02818832_3,Stimuli/psy_flexible_rotation_30_objects_occ0.7_0.9s/images/train/n04070727_5/n02818832_3/img_b05_db_apps_tech_06_13_composite_b05_ccm_contemporary_bed_max2013_2015-3_gray.png,random,flexible,n02828884_3,n02818832_9,Stimuli/canonical view 2/img_n02828884_3_gray.jpg,Stimuli/canonical view 2/img_n02818832_9_gray.jpg,random,right,Experiments/experiment_22/1000.jpg,Experiments/experiment_22/1001.jpg,Experiments/experiment_22/1002.jpg,Experiments/experiment_22/1003.jpg,346,1,2023-09-17_09h08.23.815,Occlusion_Psychophysics,2022.1.4,Win32,60.0240096,,,,,,,,,,,,,,,,,,,
,,,,,,,,,,,,,,,,,,,,,0.025,,,,,,,,,,Stimuli/psy_fixed_rotation_30_objects_occ0.7_0.9s/images/train/n04379243_-7/n04405907_9/img_quatre_dining_table_vray_004_2007_gray.jpg,n04379243_-7,n04405907_9,fixed,0.758126,n04405907_5,Stimuli/psy_flexible_rotation_30_objects_occ0.7_0.9s/images/train/n03928116_4/n04405907_5/img_dp_33_b_2013__vray_samsung_40_uhd_smart_tv_2011_2011-3_gray.png,random,flexible,n04379243_-7,n04405907_9,Stimuli/canonical view 2/img_n04379243_-7_gray.jpg,Stimuli/canonical view 2/img_n04405907_9_gray.jpg,foreground,left,Experiments/experiment_22/0.jpg,Experiments/experiment_22/1.jpg,Experiments/experiment_22/2.jpg,Experiments/experiment_22/3.jpg,346,1,2023-09-17_09h08.23.815,Occlusion_Psychophysics,2022.1.4,Win32,60.0240096,space,3.5585,right,"[""right""]",[1.0283000000118818],False,,0.0,0.0,0.0,0.0,0.0,1.0,,,,,,
,,,,,,,,,,,,,,,,,,,,,0.05,,,,,,,,,,Stimuli/psy_fixed_rotation_30_objects_occ0.7_0.9s/images/train/n03001627_-2/n04405907_8/img_wood_chair_stylized_tv_2015_gray.jpg,n03001627_-2,n04405907_8,fixed,0.828113,n04379243_-7,Stimuli/psy_flexible_rotation_30_objects_occ0.7_0.9s/images/train/n03928116_0/n04379243_-7/img_b02_piano_quatre_dining_table_2009-3_gray.png,random,flexible,n03001627_-2,n04405907_8,Stimuli/canonical view 2/img_n03001627_-2_gray.jpg,Stimuli/canonical view 2/img_n04405907_8_gray.jpg,foreground,left,Experiments/experiment_22/4.jpg,Experiments/experiment_22/5.jpg,Experiments/experiment_22/6.jpg,Experiments/experiment_22/7.jpg,346,1,2023-09-17_09h08.23.815,Occlusion_Psychophysics,2022.1.4,Win32,60.0240096,,,right,"[""left""]",[1.0059999999999718],False,,0.0,0.0,1.0,1.0,1.0,1.0,,,,,,
,,,,,,,,,,,,,,,,,,,,,0.025,,,,,,,,,,Stimuli/psy_flexible_rotation_30_objects_occ0.7_0.9s/images/train/n02818832_9/n04405907_5/img_bed01_blue_samsung_40_uhd_smart_tv_2011_2013_gray.jpg,n02818832_9,n04405907_5,flexible,0.765029,n04405907_5,Stimuli/psy_flexible_rotation_30_objects_occ0.7_0.9s/images/train/n02818832_9/n04405907_5/img_bed01_blue_samsung_40_uhd_smart_tv_2011_2013-3_gray.png,foreground,same as foreground,n02818832_9,n04405907_5,Stimuli/canonical view 2/img_n02818832_9_gray.jpg,Stimuli/canonical view 2/img_n04405907_5_gray.jpg,foreground,left,Experiments/experiment_22/8.jpg,Experiments/experiment_22/9.jpg,Experiments/experiment_22/10.jpg,Experiments/experiment_22/11.jpg,346,1,2023-09-17_09h08.23.815,Occlusion_Psychophysics,2022.1.4,Win32,60.0240096,,,left,"[""left""]",[1.217999999999961],False,,0.0,0.0,2.0,2.0,2.0,1.0,,,,,,
,,,,,,,,,,,,,,,,,,,,,0.025,,,,,,,,,,Stimuli/psy_fixed_rotation_30_objects_occ0.7_0.9s/images/train/n04379243_0/n02818832_9/img_17th_c._monastery_dining_table_2010_bed01_blue_2002_gray.jpg,n04379243_0,n02818832_9,fixed,0.749823,n02818832_9,Stimuli/psy_fixed_rotation_30_objects_occ0.7_0.9s/images/train/n04379243_0/n02818832_9/img_17th_c._monastery_dining_table_2010_bed01_blue_2002-3_gray.png,foreground,same as foreground,n04379243_0,n02828884_9,Stimuli/canonical view 2/img_n04379243_0_gray.jpg,Stimuli/canonical view 2/img_n02828884_9_gray.jpg,random,right,Experiments/experiment_22/12.jpg,Experiments/experiment_22/13.jpg,Experiments/experiment_22/14.jpg,Experiments/experiment_22/15.jpg,346,1,2023-09-17_09h08.23.815,Occlusion_Psychophysics,2022.1.4,Win32,60.0240096,,,left,"[""left""]",[1.461999999999989],False,,0.0,0.0,3.0,3.0,3.0,1.0,,,,,,
,,,,,,,,,,,,,,,,,,,,,0.025,,,,,,,,,,Stimuli/psy_flexible_rotation_30_objects_occ0.7_0.9s/images/train/n02828884_4/n04379243_8/img_b05_c-5_classic_series_bench-2012_glass_table_2012_gray.jpg,n02828884_4,n04379243_8,flexible,0.752904,n02828884_3,Stimuli/psy_flexible_rotation_30_objects_occ0.7_0.9s/images/train/n04379243_-7/n02828884_3/img_quatre_dining_table_b04_wood_metal_park_bench_2001-3_gray.png,random,flexible,n02828884_4,n02828884_9,Stimuli/canonical view 2/img_n02828884_4_gray.jpg,Stimuli/canonical view 2/img_n02828884_9_gray.jpg,random,left,Experiments/experiment_22/16.jpg,Experiments/experiment_22/17.jpg,Experiments/experiment_22/18.jpg,Experiments/experiment_22/19.jpg,346,1,2023-09-17_09h08.23.815,Occlusion_Psychophysics,2022.1.4,Win32,60.0240096,,,right,"[""right""]",[1.7548000000119828],False,,0.0,0.0,4.0,4.0,4.0,1.0,,,,,,
,,,,,,,,,,,,,,,,,,,,,0.05,,,,,,,,,,Stimuli/psy_flexible_rotation_30_objects_occ0.7_0.9s/images/train/n04405907_9/n02883344_0/img_vray_004_b03_box_2002_gray.jpg,n04405907_9,n02883344_0,flexible,0.716681,n04405907_9,Stimuli/psy_flexible_rotation_30_objects_occ0.7_0.9s/images/train/n03928116_0/n04405907_9/img_b02_piano_vray_004_2001-3_gray.png,random,flexible,n04405907_9,n02828884_3,Stimuli/canonical view 2/img_n04405907_9_gray.jpg,Stimuli/canonical view 2/img_n02828884_3_gray.jpg,random,right,Experiments/experiment_22/20.jpg,Experiments/experiment_22/21.jpg,Experiments/experiment_22/22.jpg,Experiments/experiment_22/23.jpg,346,1,2023-09-17_09h08.23.815,Occlusion_Psychophysics,2022.1.4,Win32,60.0240096,,,left,"[""right""]",[2.007000000000062],False,,0.0,0.0,5.0,5.0,5.0,1.0,,,,,,
,,,,,,,,,,,,,,,,,,,,,0.05,,,,,,,,,,Stimuli/psy_fixed_rotation_30_objects_occ0.7_0.9s/images/train/n04256520_9/n04405907_5/img_napoleon_iii_sofa_samsung_40_uhd_smart_tv_2011_2011_gray.jpg,n04256520_9,n04405907_5,fixed,0.754528,n02818832_0,Stimuli/psy_fixed_rotation_30_objects_occ0.7_0.9s/images/train/n02933112_-2/n02818832_0/img_sink_base_white_wood_b03_the_sofa_and_chair_company_-_stanley_bed_2014_2006-3_gray.png,random,fixed,n04256520_9,n03928116_10,Stimuli/canonical view 2/img_n04256520_9_gray.jpg,Stimuli/canonical view 2/img_n03928116_10_gray.jpg,random,right,Experiments/experiment_22/24.jpg,Experiments/experiment_22/25.jpg,Experiments/experiment_22/26.jpg,Experiments/experiment_22/27.jpg,346,1,2023-09-17_09h08.23.815,Occlusion_Psychophysics,2022.1.4,Win32,60.0240096,,,right,"[""right""]",[1.0860000000000127],False,,0.0,0.0,6.0,6.0,6.0,1.0,,,,,,
,,,,,,,,,,,,,,,,,,,,,0.05,,,,,,,,,,Stimuli/psy_flexible_rotation_30_objects_occ0.7_0.9s/images/train/n02818832_9/n04379243_0/img_bed01_blue_17th_c._monastery_dining_table_2010_2005_gray.jpg,n02818832_9,n04379243_0,flexible,0.769999,n04379243_0,Stimuli/psy_flexible_rotation_30_objects_occ0.7_0.9s/images/train/n02818832_9/n04379243_0/img_bed01_blue_17th_c._monastery_dining_table_2010_2005-3_gray.png,foreground,same as foreground,n02818832_9,n04256520_5,Stimuli/canonical view 2/img_n02818832_9_gray.jpg,Stimuli/canonical view 2/img_n04256520_5_gray.jpg,random,left,Experiments/experiment_22/28.jpg,Experiments/experiment_22/29.jpg,Experiments/experiment_22/30.jpg,Experiments/experiment_22/31.jpg,346,1,2023-09-17_09h08.23.815,Occlusion_Psychophysics,2022.1.4,Win32,60.0240096,,,left,"[""right""]",[1.540600000023801],False,,0.0,0.0,7.0,7.0,7.0,1.0,,,,,,
,,,,,,,,,,,,,,,,,,,,,0.025,,,,,,,,,,Stimuli/psy_flexible_rotation_30_objects_occ0.7_0.9s/images/train/n04379243_-7/n04256520_5/img_quatre_dining_table_meridiani_belmondo_bench_sofa_2003_gray.jpg,n04379243_-7,n04256520_5,flexible,0.837352,n04256520_5,Stimuli/psy_flexible_rotation_30_objects_occ0.7_0.9s/images/train/n04379243_-7/n04256520_5/img_quatre_dining_table_meridiani_belmondo_bench_sofa_2003-3_gray.png,foreground,same as foreground,n04379243_-7,n04256520_4,Stimuli/canonical view 2/img_n04379243_-7_gray.jpg,Stimuli/canonical view 2/img_n04256520_4_gray.jpg,random,left,Experiments/experiment_22/32.jpg,Experiments/experiment_22/33.jpg,Experiments/experiment_22/34.jpg,Experiments/experiment_22/35.jpg,346,1,2023-09-17_09h08.23.815,Occlusion_Psychophysics,2022.1.4,Win32,60.0240096,,,right,"[""right""]",[2.214199999988068],False,,0.0,0.0,8.0,8.0,8.0,1.0,,,,,,
,,,,,,,,,,,,,,,,,,,,,0.025,,,,,,,,,,Stimuli/psy_fixed_rotation_30_objects_occ0.7_0.9s/images/train/n03928116_10/n04405907_9/img_ydp_103_r_2012__vray_vray_004_2000_gray.jpg,n03928116_10,n04405907_9,fixed,0.727873,n02828884_3,Stimuli/psy_fixed_rotation_30_objects_occ0.7_0.9s/images/train/n04070727_0/n02828884_3/img_b03_ka90ivi20r_2013__vray_b04_wood_metal_park_bench_2006-3_gray.png,random,fixed,n03928116_10,n02818832_0,Stimuli/canonical view 2/img_n03928116_10_gray.jpg,Stimuli/canonical view 2/img_n02818832_0_gray.jpg,random,right,Experiments/experiment_22/36.jpg,Experiments/experiment_22/37.jpg,Experiments/experiment_22/38.jpg,Experiments/experiment_22/39.jpg,346,1,2023-09-17_09h08.23.815,Occlusion_Psychophysics,2022.1.4,Win32,60.0240096,,,right,"[""left""]",[1.8179000000357064],False,,0.0,0.0,9.0,9.0,9.0,1.0,,,,,,
,,,,,,,,,,,,,,,,,,,,,0.025,,,,,,,,,,Stimuli/psy_fixed_rotation_30_objects_occ0.7_0.9s/images/train/n04405907_9/n04405907_5/img_vray_004_samsung_40_uhd_smart_tv_2011_2004_gray.jpg,n04405907_9,n04405907_5,fixed,0.752792,n04405907_8,Stimuli/psy_flexible_rotation_30_objects_occ0.7_0.9s/images/train/n04256520_5/n04405907_8/img_meridiani_belmondo_bench_sofa_stylized_tv_2000-3_gray.png,random,flexible,n04405907_9,n04405907_5,Stimuli/canonical view 2/img_n04405907_9_gray.jpg,Stimuli/canonical view 2/img_n04405907_5_gray.jpg,foreground,right,Experiments/experiment_22/40.jpg,Experiments/experiment_22/41.jpg,Experiments/experiment_22/42.jpg,Experiments/experiment_22/43.jpg,346,1,2023-09-17_09h08.23.815,Occlusion_Psychophysics,2022.1.4,Win32,60.0240096,,,left,"[""right""]",[1.6273000000119282],False,,0.0,0.0,10.0,10.0,10.0,1.0,,,,,,
,,,,,,,,,,,,,,,,,,,,,0.05,,,,,,,,,,Stimuli/psy_flexible_rotation_30_objects_occ0.7_0.9s/images/train/n02883344_-1/n04405907_8/img_woven_box_stylized_tv_2014_gray.jpg,n02883344_-1,n04405907_8,flexible,0.781586,n02828884_3,Stimuli/psy_fixed_rotation_30_objects_occ0.7_0.9s/images/train/n02828884_4/n02828884_3/img_b05_c-5_classic_series_bench-2012_b04_wood_metal_park_bench_2009-3_gray.png,random,fixed,n02883344_-1,n04405907_8,Stimuli/canonical view 2/img_n02883344_-1_gray.jpg,Stimuli/canonical view 2/img_n04405907_8_gray.jpg,foreground,left,Experiments/experiment_22/44.jpg,Experiments/experiment_22/45.jpg,Experiments/experiment_22/46.jpg,Experiments/experiment_22/47.jpg,346,1,2023-09-17_09h08.23.815,Occlusion_Psychophysics,2022.1.4,Win32,60.0240096,,,left,"[""left""]",[1.5116999999880818],False,,0.0,0.0,11.0,11.0,11.0,1.0,,,,,,
,,,,,,,,,,,,,,,,,,,,,0.05,,,,,,,,,,Stimuli/psy_flexible_rotation_30_objects_occ0.7_0.9s/images/train/n02883344_0/n04256520_4/img_b03_box_club_house_italia_nautilus_sofa_2002_gray.jpg,n02883344_0,n04256520_4,flexible,0.758552,n04405907_9,Stimuli/psy_flexible_rotation_30_objects_occ0.7_0.9s/images/train/n02818832_3/n04405907_9/img_b05_ccm_contemporary_bed_max2013_vray_004_2006-3_gray.png,random,flexible,n02883344_0,n04256520_4,Stimuli/canonical view 2/img_n02883344_0_gray.jpg,Stimuli/canonical view 2/img_n04256520_4_gray.jpg,foreground,left,Experiments/experiment_22/48.jpg,Experiments/experiment_22/49.jpg,Experiments/experiment_22/50.jpg,Experiments/experiment_22/51.jpg,346,1,2023-09-17_09h08.23.815,Occlusion_Psychophysics,2022.1.4,Win32,60.0240096,,,right,"[""left""]",[0.954700000047751],False,,0.0,0.0,12.0,12.0,12.0,1.0,,,,,,
,,,,,,,,,,,,,,,,,,,,,0.025,,,,,,,,,,Stimuli/psy_flexible_rotation_30_objects_occ0.7_0.9s/images/train/n04379243_8/n03928116_10/img_glass_table_ydp_103_r_2012__vray_2015_gray.jpg,n04379243_8,n03928116_10,flexible,0.836022,n02883344_-1,Stimuli/psy_fixed_rotation_30_objects_occ0.7_0.9s/images/train/n02933112_4/n02883344_-1/img_buffet_woven_box_2007-3_gray.png,random,fixed,n04379243_8,n02933112_-18,Stimuli/canonical view 2/img_n04379243_8_gray.jpg,Stimuli/canonical view 2/img_n02933112_-18_gray.jpg,random,right,Experiments/experiment_22/52.jpg,Experiments/experiment_22/53.jpg,Experiments/experiment_22/54.jpg,Experiments/experiment_22/55.jpg,346,1,2023-09-17_09h08.23.815,Occlusion_Psychophysics,2022.1.4,Win32,60.0240096,,,left,"[""left""]",[0.8144999999999527],True,left,1.0,0.0,13.0,13.0,13.0,1.0,0.9008,,,,,
,,,,,,,,,,,,,,,,,,,,,0.05,,,,,,,,,,Stimuli/psy_fixed_rotation_30_objects_occ0.7_0.9s/images/train/n02883344_0/n02828884_9/img_b03_box_cr-96_bench_2000_gray.jpg,n02883344_0,n02828884_9,fixed,0.726518,n04405907_8,Stimuli/psy_fixed_rotation_30_objects_occ0.7_0.9s/images/train/n02883344_15/n04405907_8/img_microwave_box_stylized_tv_2002-3_gray.png,random,fixed,n02883344_0,n04405907_8,Stimuli/canonical view 2/img_n02883344_0_gray.jpg,Stimuli/canonical view 2/img_n04405907_8_gray.jpg,random,right,Experiments/experiment_22/56.jpg,Experiments/experiment_22/57.jpg,Experiments/experiment_22/58.jpg,Experiments/experiment_22/59.jpg,346,1,2023-09-17_09h08.23.815,Occlusion_Psychophysics,2022.1.4,Win32,60.0240096,,,left,"[""left""]",[2.0630999999642654],False,,0.0,0.0,14.0,14.0,14.0,1.0,,,,,,
,,,,,,,,,,,,,,,,,,,,,0.025,,,,,,,,,,Stimuli/psy_flexible_rotation_30_objects_occ0.7_0.9s/images/train/n03928116_4/n02818832_0/img_dp_33_b_2013__vray_b03_the_sofa_and_chair_company_-_stanley_bed_2014_2003_gray.jpg,n03928116_4,n02818832_0,flexible,0.781194,n02818832_0,Stimuli/psy_flexible_rotation_30_objects_occ0.7_0.9s/images/train/n03928116_4/n02818832_0/img_dp_33_b_2013__vray_b03_the_sofa_and_chair_company_-_stanley_bed_2014_2003-3_gray.png,foreground,same as foreground,n03928116_4,n04256520_5,Stimuli/canonical view 2/img_n03928116_4_gray.jpg,Stimuli/canonical view 2/img_n04256520_5_gray.jpg,random,left,Experiments/experiment_22/60.jpg,Experiments/experiment_22/61.jpg,Experiments/experiment_22/62.jpg,Experiments/experiment_22/63.jpg,346,1,2023-09-17_09h08.23.815,Occlusion_Psychophysics,2022.1.4,Win32,60.0240096,,,left,"[""left""]",[0.83480000001191],True,right,1.0,0.0,15.0,15.0,15.0,1.0,0.9181,,,,,
,,,,,,,,,,,,,,,,,,,,,0.025,,,,,,,,,,Stimuli/psy_flexible_rotation_30_objects_occ0.7_0.9s/images/train/n03001627_-2/n02818832_0/img_wood_chair_b03_the_sofa_and_chair_company_-_stanley_bed_2014_2008_gray.jpg,n03001627_-2,n02818832_0,flexible,0.755763,n04379243_8,Stimuli/psy_fixed_rotation_30_objects_occ0.7_0.9s/images/train/n02828884_3/n04379243_8/img_b04_wood_metal_park_bench_glass_table_2001-3_gray.png,random,fixed,n03001627_-2,n02818832_9,Stimuli/canonical view 2/img_n03001627_-2_gray.jpg,Stimuli/canonical view 2/img_n02818832_9_gray.jpg,random,left,Experiments/experiment_22/64.jpg,Experiments/experiment_22/65.jpg,Experiments/experiment_22/66.jpg,Experiments/experiment_22/67.jpg,346,1,2023-09-17_09h08.23.815,Occlusion_Psychophysics,2022.1.4,Win32,60.0240096,,,right,"[""left""]",[1.7221999999881064],False,,0.0,0.0,16.0,16.0,16.0,1.0,,,,,,
,,,,,,,,,,,,,,,,,,,,,0.025,,,,,,,,,,Stimuli/psy_fixed_rotation_30_objects_occ0.7_0.9s/images/train/n04405907_8/n02883344_0/img_stylized_tv_b03_box_2003_gray.jpg,n04405907_8,n02883344_0,fixed,0.760633,n02818832_9,Stimuli/psy_fixed_rotation_30_objects_occ0.7_0.9s/images/train/n04070727_5/n02818832_9/img_b05_db_apps_tech_06_13_composite_bed01_blue_2013-3_gray.png,random,fixed,n04405907_8,n03001627_8,Stimuli/canonical view 2/img_n04405907_8_gray.jpg,Stimuli/canonical view 2/img_n03001627_8_gray.jpg,random,left,Experiments/experiment_22/68.jpg,Experiments/experiment_22/69.jpg,Experiments/experiment_22/70.jpg,Experiments/experiment_22/71.jpg,346,1,2023-09-17_09h08.23.815,Occlusion_Psychophysics,2022.1.4,Win32,60.0240096,,,right,"[""left""]",[1.7116999999881273],False,,0.0,0.0,17.0,17.0,17.0,1.0,,,,,,
,,,,,,,,,,,,,,,,,,,,,0.05,,,,,,,,,,Stimuli/psy_fixed_rotation_30_objects_occ0.7_0.9s/images/train/n02883344_-1/n02883344_15/img_woven_box_microwave_box_2011_gray.jpg,n02883344_-1,n02883344_15,fixed,0.782427,n02883344_15,Stimuli/psy_fixed_rotation_30_objects_occ0.7_0.9s/images/train/n02883344_-1/n02883344_15/img_woven_box_microwave_box_2011-3_gray.png,foreground,same as foreground,n02883344_-1,n02883344_15,Stimuli/canonical view 2/img_n02883344_-1_gray.jpg,Stimuli/canonical view 2/img_n02883344_15_gray.jpg,foreground,left,Experiments/experiment_22/72.jpg,Experiments/experiment_22/73.jpg,Experiments/experiment_22/74.jpg,Experiments/experiment_22/75.jpg,346,1,2023-09-17_09h08.23.815,Occlusion_Psychophysics,2022.1.4,Win32,60.0240096,,,right,"[""right""]",[1.12010000002374],False,,0.0,0.0,18.0,18.0,18.0,1.0,,,,,,
,,,,,,,,,,,,,,,,,,,,,0.05,,,,,,,,,,Stimuli/psy_fixed_rotation_30_objects_occ0.7_0.9s/images/train/n04405907_5/n04379243_0/img_samsung_40_uhd_smart_tv_2011_17th_c._monastery_dining_table_2010_2007_gray.jpg,n04405907_5,n04379243_0,fixed,0.70261,n04379243_0,Stimuli/psy_fixed_rotation_30_objects_occ0.7_0.9s/images/train/n04405907_5/n04379243_0/img_samsung_40_uhd_smart_tv_2011_17th_c._monastery_dining_table_2010_2007-3_gray.png,foreground,same as foreground,n04405907_5,n04379243_-7,Stimuli/canonical view 2/img_n04405907_5_gray.jpg,Stimuli/canonical view 2/img_n04379243_-7_gray.jpg,random,right,Experiments/experiment_22/76.jpg,Experiments/experiment_22/77.jpg,Experiments/experiment_22/78.jpg,Experiments/experiment_22/79.jpg,346,1,2023-09-17_09h08.23.815,Occlusion_Psychophysics,2022.1.4,Win32,60.0240096,,,left,"[""left""]",[0.8956999999880964],False,,0.0,0.0,19.0,19.0,19.0,1.0,,,,,,
,,,,,,,,,,,,,,,,,,,,,0.05,,,,,,,,,,Stimuli/psy_flexible_rotation_30_objects_occ0.7_0.9s/images/train/n02883344_0/n03928116_4/img_b03_box_dp_33_b_2013__vray_2004_gray.jpg,n02883344_0,n03928116_4,flexible,0.715939,n02818832_3,Stimuli/psy_flexible_rotation_30_objects_occ0.7_0.9s/images/train/n04405907_9/n02818832_3/img_vray_004_b05_ccm_contemporary_bed_max2013_2000-3_gray.png,random,flexible,n02883344_0,n03928116_4,Stimuli/canonical view 2/img_n02883344_0_gray.jpg,Stimuli/canonical view 2/img_n03928116_4_gray.jpg,foreground,left,Experiments/experiment_22/80.jpg,Experiments/experiment_22/81.jpg,Experiments/experiment_22/82.jpg,Experiments/experiment_22/83.jpg,346,1,2023-09-17_09h08.23.815,Occlusion_Psychophysics,2022.1.4,Win32,60.0240096,,,left,"[""left""]",[1.260499999999979],False,,0.0,0.0,20.0,20.0,20.0,1.0,,,,,,
,,,,,,,,,,,,,,,,,,,,,0.05,,,,,,,,,,Stimuli/psy_fixed_rotation_30_objects_occ0.7_0.9s/images/train/n03001627_8/n03928116_0/img_chair_billiani_doll_b02_piano_2004_gray.jpg,n03001627_8,n03928116_0,fixed,0.716972,n03928116_0,Stimuli/psy_fixed_rotation_30_objects_occ0.7_0.9s/images/train/n03001627_8/n03928116_0/img_chair_billiani_doll_b02_piano_2004-3_gray.png,foreground,same as foreground,n03001627_8,n03928116_4,Stimuli/canonical view 2/img_n03001627_8_gray.jpg,Stimuli/canonical view 2/img_n03928116_4_gray.jpg,random,left,Experiments/experiment_22/84.jpg,Experiments/experiment_22/85.jpg,Experiments/experiment_22/86.jpg,Experiments/experiment_22/87.jpg,346,1,2023-09-17_09h08.23.815,Occlusion_Psychophysics,2022.1.4,Win32,60.0240096,,,right,"[""right""]",[0.8434999999999491],False,,0.0,0.0,21.0,21.0,21.0,1.0,,,,,,
,,,,,,,,,,,,,,,,,,,,,0.05,,,,,,,,,,Stimuli/psy_fixed_rotation_30_objects_occ0.7_0.9s/images/train/n04379243_0/n04379243_8/img_17th_c._monastery_dining_table_2010_glass_table_2014_gray.jpg,n04379243_0,n04379243_8,fixed,0.739396,n02933112_-2,Stimuli/psy_fixed_rotation_30_objects_occ0.7_0.9s/images/train/n04256520_9/n02933112_-2/img_napoleon_iii_sofa_sink_base_white_wood_2006-3_gray.png,random,fixed,n04379243_0,n04379243_8,Stimuli/canonical view 2/img_n04379243_0_gray.jpg,Stimuli/canonical view 2/img_n04379243_8_gray.jpg,foreground,left,Experiments/experiment_22/88.jpg,Experiments/experiment_22/89.jpg,Experiments/experiment_22/90.jpg,Experiments/experiment_22/91.jpg,346,1,2023-09-17_09h08.23.815,Occlusion_Psychophysics,2022.1.4,Win32,60.0240096,,,left,"[""left""]",[0.6463999999760972],False,,0.0,0.0,22.0,22.0,22.0,1.0,,,,,,
,,,,,,,,,,,,,,,,,,,,,0.05,,,,,,,,,,Stimuli/psy_fixed_rotation_30_objects_occ0.7_0.9s/images/train/n02818832_0/n04379243_0/img_b03_the_sofa_and_chair_company_-_stanley_bed_2014_17th_c._monastery_dining_table_2010_2013_gray.jpg,n02818832_0,n04379243_0,fixed,0.740627,n04379243_0,Stimuli/psy_fixed_rotation_30_objects_occ0.7_0.9s/images/train/n02818832_0/n04379243_0/img_b03_the_sofa_and_chair_company_-_stanley_bed_2014_17th_c._monastery_dining_table_2010_2013-3_gray.png,foreground,same as foreground,n02818832_0,n04379243_0,Stimuli/canonical view 2/img_n02818832_0_gray.jpg,Stimuli/canonical view 2/img_n04379243_0_gray.jpg,foreground,left,Experiments/experiment_22/92.jpg,Experiments/experiment_22/93.jpg,Experiments/experiment_22/94.jpg,Experiments/experiment_22/95.jpg,346,1,2023-09-17_09h08.23.815,Occlusion_Psychophysics,2022.1.4,Win32,60.0240096,,,right,"[""left""]",[1.2347999999523154],False,,0.0,0.0,23.0,23.0,23.0,1.0,,,,,,
,,,,,,,,,,,,,,,,,,,,,0.05,,,,,,,,,,Stimuli/psy_fixed_rotation_30_objects_occ0.7_0.9s/images/train/n03001627_-2/n04256520_9/img_wood_chair_napoleon_iii_sofa_2004_gray.jpg,n03001627_-2,n04256520_9,fixed,0.730769,n02883344_0,Stimuli/psy_fixed_rotation_30_objects_occ0.7_0.9s/images/train/n02883344_0/n02883344_0/img_b03_box_b03_box_2014-3_gray.png,random,fixed,n03001627_-2,n04256520_9,Stimuli/canonical view 2/img_n03001627_-2_gray.jpg,Stimuli/canonical view 2/img_n04256520_9_gray.jpg,foreground,right,Experiments/experiment_22/96.jpg,Experiments/experiment_22/97.jpg,Experiments/experiment_22/98.jpg,Experiments/experiment_22/99.jpg,346,1,2023-09-17_09h08.23.815,Occlusion_Psychophysics,2022.1.4,Win32,60.0240096,,,left,"[""right""]",[1.16519999998809],False,,0.0,0.0,24.0,24.0,24.0,1.0,,,,,,
,,,,,,,,,,,,,,,,,,,,,0.05,,,,,,,,,,Stimuli/psy_flexible_rotation_30_objects_occ0.7_0.9s/images/train/n02933112_-18/n02883344_-1/img_cgaxis_models_48_26_vray_composite_woven_box_2001_gray.jpg,n02933112_-18,n02883344_-1,flexible,0.781794,n04379243_8,Stimuli/psy_flexible_rotation_30_objects_occ0.7_0.9s/images/train/n04379243_8/n04379243_8/img_glass_table_glass_table_2004-3_gray.png,random,flexible,n02933112_-18,n02883344_-1,Stimuli/canonical view 2/img_n02933112_-18_gray.jpg,Stimuli/canonical view 2/img_n02883344_-1_gray.jpg,foreground,left,Experiments/experiment_22/100.jpg,Experiments/experiment_22/101.jpg,Experiments/experiment_22/102.jpg,Experiments/experiment_22/103.jpg,346,1,2023-09-17_09h08.23.815,Occlusion_Psychophysics,2022.1.4,Win32,60.0240096,,,left,"[""right""]",[2.0715000000000146],False,,0.0,0.0,25.0,25.0,25.0,1.0,,,,,,
,,,,,,,,,,,,,,,,,,,,,0.05,,,,,,,,,,Stimuli/psy_flexible_rotation_30_objects_occ0.7_0.9s/images/train/n04405907_9/n04405907_5/img_vray_004_samsung_40_uhd_smart_tv_2011_2006_gray.jpg,n04405907_9,n04405907_5,flexible,0.820665,n04405907_5,Stimuli/psy_flexible_rotation_30_objects_occ0.7_0.9s/images/train/n04405907_9/n04405907_5/img_vray_004_samsung_40_uhd_smart_tv_2011_2006-3_gray.png,foreground,same as foreground,n04405907_9,n04405907_5,Stimuli/canonical view 2/img_n04405907_9_gray.jpg,Stimuli/canonical view 2/img_n04405907_5_gray.jpg,foreground,right,Experiments/experiment_22/104.jpg,Experiments/experiment_22/105.jpg,Experiments/experiment_22/106.jpg,Experiments/experiment_22/107.jpg,346,1,2023-09-17_09h08.23.815,Occlusion_Psychophysics,2022.1.4,Win32,60.0240096,,,right,"[""right""]",[1.2136000000239164],False,,0.0,0.0,26.0,26.0,26.0,1.0,,,,,,
,,,,,,,,,,,,,,,,,,,,,0.025,,,,,,,,,,Stimuli/psy_fixed_rotation_30_objects_occ0.7_0.9s/images/train/n02933112_4/n04405907_5/img_buffet_samsung_40_uhd_smart_tv_2011_2005_gray.jpg,n02933112_4,n04405907_5,fixed,0.787416,n04405907_5,Stimuli/psy_fixed_rotation_30_objects_occ0.7_0.9s/images/train/n02933112_4/n04405907_5/img_buffet_samsung_40_uhd_smart_tv_2011_2005-3_gray.png,foreground,same as foreground,n02933112_4,n03001627_9,Stimuli/canonical view 2/img_n02933112_4_gray.jpg,Stimuli/canonical view 2/img_n03001627_9_gray.jpg,random,right,Experiments/experiment_22/108.jpg,Experiments/experiment_22/109.jpg,Experiments/experiment_22/110.jpg,Experiments/experiment_22/111.jpg,346,1,2023-09-17_09h08.23.815,Occlusion_Psychophysics,2022.1.4,Win32,60.0240096,,,right,"[""right""]",[2.513899999976161],False,,0.0,0.0,27.0,27.0,27.0,1.0,,,,,,
,,,,,,,,,,,,,,,,,,,,,0.025,,,,,,,,,,Stimuli/psy_flexible_rotation_30_objects_occ0.7_0.9s/images/train/n03928116_0/n04256520_5/img_b02_piano_meridiani_belmondo_bench_sofa_2007_gray.jpg,n03928116_0,n04256520_5,flexible,0.718459,n03928116_10,Stimuli/psy_flexible_rotation_30_objects_occ0.7_0.9s/images/train/n04256520_4/n03928116_10/img_club_house_italia_nautilus_sofa_ydp_103_r_2012__vray_2000-3_gray.png,random,flexible,n03928116_0,n04256520_5,Stimuli/canonical view 2/img_n03928116_0_gray.jpg,Stimuli/canonical view 2/img_n04256520_5_gray.jpg,foreground,left,Experiments/experiment_22/112.jpg,Experiments/experiment_22/113.jpg,Experiments/experiment_22/114.jpg,Experiments/experiment_22/115.jpg,346,1,2023-09-17_09h08.23.815,Occlusion_Psychophysics,2022.1.4,Win32,60.0240096,,,left,"[""left""]",[0.7385000000000446],True,right,1.0,0.0,28.0,28.0,28.0,1.0,0.8194,,,,,
,,,,,,,,,,,,,,,,,,,,,0.05,,,,,,,,,,Stimuli/psy_flexible_rotation_30_objects_occ0.7_0.9s/images/train/n03928116_0/n04256520_5/img_b02_piano_meridiani_belmondo_bench_sofa_2014_gray.jpg,n03928116_0,n04256520_5,flexible,0.767616,n04256520_5,Stimuli/psy_flexible_rotation_30_objects_occ0.7_0.9s/images/train/n03928116_0/n04256520_5/img_b02_piano_meridiani_belmondo_bench_sofa_2014-3_gray.png,foreground,same as foreground,n03928116_0,n02828884_4,Stimuli/canonical view 2/img_n03928116_0_gray.jpg,Stimuli/canonical view 2/img_n02828884_4_gray.jpg,random,right,Experiments/experiment_22/116.jpg,Experiments/experiment_22/117.jpg,Experiments/experiment_22/118.jpg,Experiments/experiment_22/119.jpg,346,1,2023-09-17_09h08.23.815,Occlusion_Psychophysics,2022.1.4,Win32,60.0240096,,,left,"[""right""]",[1.4274000000357319],False,,0.0,0.0,29.0,29.0,29.0,1.0,,,,,,
,,,,,,,,,,,,,,,,,,,,,0.05,,,,,,,,,,Stimuli/psy_flexible_rotation_30_objects_occ0.7_0.9s/images/train/n02883344_0/n02828884_9/img_b03_box_cr-96_bench_2010_gray.jpg,n02883344_0,n02828884_9,flexible,0.708462,n02818832_9,Stimuli/psy_fixed_rotation_30_objects_occ0.7_0.9s/images/train/n02933112_-18/n02818832_9/img_cgaxis_models_48_26_vray_composite_bed01_blue_2005-3_gray.png,random,fixed,n02883344_0,n02828884_9,Stimuli/canonical view 2/img_n02883344_0_gray.jpg,Stimuli/canonical view 2/img_n02828884_9_gray.jpg,foreground,left,Experiments/experiment_22/120.jpg,Experiments/experiment_22/121.jpg,Experiments/experiment_22/122.jpg,Experiments/experiment_22/123.jpg,346,1,2023-09-17_09h08.23.815,Occlusion_Psychophysics,2022.1.4,Win32,60.0240096,,,right,"[""right""]",[1.3567999999522726],False,,0.0,0.0,30.0,30.0,30.0,1.0,,,,,,
,,,,,,,,,,,,,,,,,,,,,0.05,,,,,,,,,,Stimuli/psy_flexible_rotation_30_objects_occ0.7_0.9s/images/train/n02818832_0/n04405907_9/img_b03_the_sofa_and_chair_company_-_stanley_bed_2014_vray_004_2006_gray.jpg,n02818832_0,n04405907_9,flexible,0.727535,n02818832_3,Stimuli/psy_flexible_rotation_30_objects_occ0.7_0.9s/images/train/n03928116_0/n02818832_3/img_b02_piano_b05_ccm_contemporary_bed_max2013_2003-3_gray.png,random,flexible,n02818832_0,n02818832_9,Stimuli/canonical view 2/img_n02818832_0_gray.jpg,Stimuli/canonical view 2/img_n02818832_9_gray.jpg,random,right,Experiments/experiment_22/124.jpg,Experiments/experiment_22/125.jpg,Experiments/experiment_22/126.jpg,Experiments/experiment_22/127.jpg,346,1,2023-09-17_09h08.23.815,Occlusion_Psychophysics,2022.1.4,Win32,60.0240096,,,left,"[""right""]",[1.4433000000119591],False,,0.0,0.0,31.0,31.0,31.0,1.0,,,,,,
,,,,,,,,,,,,,,,,,,,,,0.05,,,,,,,,,,Stimuli/psy_fixed_rotation_30_objects_occ0.7_0.9s/images/train/n04256520_4/n02818832_0/img_club_house_italia_nautilus_sofa_b03_the_sofa_and_chair_company_-_stanley_bed_2014_2012_gray.jpg,n04256520_4,n02818832_0,fixed,0.818476,n02933112_4,Stimuli/psy_fixed_rotation_30_objects_occ0.7_0.9s/images/train/n04256520_9/n02933112_4/img_napoleon_iii_sofa_buffet_2001-3_gray.png,random,fixed,n04256520_4,n02828884_9,Stimuli/canonical view 2/img_n04256520_4_gray.jpg,Stimuli/canonical view 2/img_n02828884_9_gray.jpg,random,left,Experiments/experiment_22/128.jpg,Experiments/experiment_22/129.jpg,Experiments/experiment_22/130.jpg,Experiments/experiment_22/131.jpg,346,1,2023-09-17_09h08.23.815,Occlusion_Psychophysics,2022.1.4,Win32,60.0240096,,,right,"[""right""]",[1.4225000000000136],False,,0.0,0.0,32.0,32.0,32.0,1.0,,,,,,
,,,,,,,,,,,,,,,,,,,,,0.025,,,,,,,,,,Stimuli/psy_flexible_rotation_30_objects_occ0.7_0.9s/images/train/n04405907_5/n04379243_-7/img_samsung_40_uhd_smart_tv_2011_quatre_dining_table_2004_gray.jpg,n04405907_5,n04379243_-7,flexible,0.753259,n04379243_8,Stimuli/psy_flexible_rotation_30_objects_occ0.7_0.9s/images/train/n04379243_0/n04379243_8/img_17th_c._monastery_dining_table_2010_glass_table_2010-3_gray.png,random,flexible,n04405907_5,n02818832_9,Stimuli/canonical view 2/img_n04405907_5_gray.jpg,Stimuli/canonical view 2/img_n02818832_9_gray.jpg,random,right,Experiments/experiment_22/132.jpg,Experiments/experiment_22/133.jpg,Experiments/experiment_22/134.jpg,Experiments/experiment_22/135.jpg,346,1,2023-09-17_09h08.23.815,Occlusion_Psychophysics,2022.1.4,Win32,60.0240096,,,right,"[""right""]",[1.3405999999641836],False,,0.0,0.0,33.0,33.0,33.0,1.0,,,,,,
,,,,,,,,,,,,,,,,,,,,,0.05,,,,,,,,,,Stimuli/psy_flexible_rotation_30_objects_occ0.7_0.9s/images/train/n03001627_9/n04256520_4/img_chair_eames_plastic_armchair_club_house_italia_nautilus_sofa_2012_gray.jpg,n03001627_9,n04256520_4,flexible,0.768886,n02883344_0,Stimuli/psy_flexible_rotation_30_objects_occ0.7_0.9s/images/train/n04256520_5/n02883344_0/img_meridiani_belmondo_bench_sofa_b03_box_2002-3_gray.png,random,flexible,n03001627_9,n02883344_0,Stimuli/canonical view 2/img_n03001627_9_gray.jpg,Stimuli/canonical view 2/img_n02883344_0_gray.jpg,random,right,Experiments/experiment_22/136.jpg,Experiments/experiment_22/137.jpg,Experiments/experiment_22/138.jpg,Experiments/experiment_22/139.jpg,346,1,2023-09-17_09h08.23.815,Occlusion_Psychophysics,2022.1.4,Win32,60.0240096,,,left,"[""right""]",[2.2088000000119337],False,,0.0,0.0,34.0,34.0,34.0,1.0,,,,,,
,,,,,,,,,,,,,,,,,,,,,0.05,,,,,,,,,,Stimuli/psy_fixed_rotation_30_objects_occ0.7_0.9s/images/train/n03001627_9/n02828884_3/img_chair_eames_plastic_armchair_b04_wood_metal_park_bench_2014_gray.jpg,n03001627_9,n02828884_3,fixed,0.718115,n02828884_3,Stimuli/psy_fixed_rotation_30_objects_occ0.7_0.9s/images/train/n03001627_9/n02828884_3/img_chair_eames_plastic_armchair_b04_wood_metal_park_bench_2014-3_gray.png,foreground,same as foreground,n03001627_9,n02818832_3,Stimuli/canonical view 2/img_n03001627_9_gray.jpg,Stimuli/canonical view 2/img_n02818832_3_gray.jpg,random,right,Experiments/experiment_22/140.jpg,Experiments/experiment_22/141.jpg,Experiments/experiment_22/142.jpg,Experiments/experiment_22/143.jpg,346,1,2023-09-17_09h08.23.815,Occlusion_Psychophysics,2022.1.4,Win32,60.0240096,,,right,"[""right""]",[0.8533000000119273],False,,0.0,0.0,35.0,35.0,35.0,1.0,,,,,,
,,,,,,,,,,,,,,,,,,,,,0.05,,,,,,,,,,Stimuli/psy_fixed_rotation_30_objects_occ0.7_0.9s/images/train/n02883344_0/n04379243_0/img_b03_box_17th_c._monastery_dining_table_2010_2003_gray.jpg,n02883344_0,n04379243_0,fixed,0.754645,n02933112_-18,Stimuli/psy_fixed_rotation_30_objects_occ0.7_0.9s/images/train/n02883344_-1/n02933112_-18/img_woven_box_cgaxis_models_48_26_vray_composite_2004-3_gray.png,random,fixed,n02883344_0,n04256520_9,Stimuli/canonical view 2/img_n02883344_0_gray.jpg,Stimuli/canonical view 2/img_n04256520_9_gray.jpg,random,right,Experiments/experiment_22/144.jpg,Experiments/experiment_22/145.jpg,Experiments/experiment_22/146.jpg,Experiments/experiment_22/147.jpg,346,1,2023-09-17_09h08.23.815,Occlusion_Psychophysics,2022.1.4,Win32,60.0240096,,,left,"[""left""]",[0.89549999999997],False,,0.0,0.0,36.0,36.0,36.0,1.0,,,,,,
,,,,,,,,,,,,,,,,,,,,,0.05,,,,,,,,,,Stimuli/psy_flexible_rotation_30_objects_occ0.7_0.9s/images/train/n04405907_8/n04379243_-7/img_stylized_tv_quatre_dining_table_2013_gray.jpg,n04405907_8,n04379243_-7,flexible,0.756193,n02818832_0,Stimuli/psy_fixed_rotation_30_objects_occ0.7_0.9s/images/train/n02818832_9/n02818832_0/img_bed01_blue_b03_the_sofa_and_chair_company_-_stanley_bed_2014_2012-3_gray.png,random,fixed,n04405907_8,n04379243_-7,Stimuli/canonical view 2/img_n04405907_8_gray.jpg,Stimuli/canonical view 2/img_n04379243_-7_gray.jpg,foreground,left,Experiments/experiment_22/148.jpg,Experiments/experiment_22/149.jpg,Experiments/experiment_22/150.jpg,Experiments/experiment_22/151.jpg,346,1,2023-09-17_09h08.23.815,Occlusion_Psychophysics,2022.1.4,Win32,60.0240096,,,left,"[""left""]",[1.3799999999999955],False,,0.0,0.0,37.0,37.0,37.0,1.0,,,,,,
,,,,,,,,,,,,,,,,,,,,,0.025,,,,,,,,,,Stimuli/psy_flexible_rotation_30_objects_occ0.7_0.9s/images/train/n04405907_5/n04405907_9/img_samsung_40_uhd_smart_tv_2011_vray_004_2008_gray.jpg,n04405907_5,n04405907_9,flexible,0.751111,n02818832_0,Stimuli/psy_fixed_rotation_30_objects_occ0.7_0.9s/images/train/n04379243_-7/n02818832_0/img_quatre_dining_table_b03_the_sofa_and_chair_company_-_stanley_bed_2014_2012-3_gray.png,random,fixed,n04405907_5,n04405907_9,Stimuli/canonical view 2/img_n04405907_5_gray.jpg,Stimuli/canonical view 2/img_n04405907_9_gray.jpg,foreground,right,Experiments/experiment_22/152.jpg,Experiments/experiment_22/153.jpg,Experiments/experiment_22/154.jpg,Experiments/experiment_22/155.jpg,346,1,2023-09-17_09h08.23.815,Occlusion_Psychophysics,2022.1.4,Win32,60.0240096,,,right,"[""left""]",[1.8949999999999818],False,,0.0,0.0,38.0,38.0,38.0,1.0,,,,,,
,,,,,,,,,,,,,,,,,,,,,0.05,,,,,,,,,,Stimuli/psy_fixed_rotation_30_objects_occ0.7_0.9s/images/train/n03001627_9/n04405907_8/img_chair_eames_plastic_armchair_stylized_tv_2010_gray.jpg,n03001627_9,n04405907_8,fixed,0.776626,n04256520_5,Stimuli/psy_flexible_rotation_30_objects_occ0.7_0.9s/images/train/n04405907_9/n04256520_5/img_vray_004_meridiani_belmondo_bench_sofa_2007-3_gray.png,random,flexible,n03001627_9,n03001627_8,Stimuli/canonical view 2/img_n03001627_9_gray.jpg,Stimuli/canonical view 2/img_n03001627_8_gray.jpg,random,left,Experiments/experiment_22/156.jpg,Experiments/experiment_22/157.jpg,Experiments/experiment_22/158.jpg,Experiments/experiment_22/159.jpg,346,1,2023-09-17_09h08.23.815,Occlusion_Psychophysics,2022.1.4,Win32,60.0240096,,,right,"[""right""]",[1.35160000002395],False,,0.0,0.0,39.0,39.0,39.0,1.0,,,,,,
,,,,,,,,,,,,,,,,,,,,,0.025,,,,,,,,,,Stimuli/psy_flexible_rotation_30_objects_occ0.7_0.9s/images/train/n04405907_9/n02828884_3/img_vray_004_b04_wood_metal_park_bench_2007_gray.jpg,n04405907_9,n02828884_3,flexible,0.729452,n02828884_3,Stimuli/psy_flexible_rotation_30_objects_occ0.7_0.9s/images/train/n04405907_9/n02828884_3/img_vray_004_b04_wood_metal_park_bench_2007-3_gray.png,foreground,same as foreground,n04405907_9,n02828884_3,Stimuli/canonical view 2/img_n04405907_9_gray.jpg,Stimuli/canonical view 2/img_n02828884_3_gray.jpg,foreground,left,Experiments/experiment_22/160.jpg,Experiments/experiment_22/161.jpg,Experiments/experiment_22/162.jpg,Experiments/experiment_22/163.jpg,346,1,2023-09-17_09h08.23.815,Occlusion_Psychophysics,2022.1.4,Win32,60.0240096,,,left,"[""right""]",[1.3828000000119118],False,,0.0,0.0,40.0,40.0,40.0,1.0,,,,,,
,,,,,,,,,,,,,,,,,,,,,0.05,,,,,,,,,,Stimuli/psy_flexible_rotation_30_objects_occ0.7_0.9s/images/train/n03928116_10/n03928116_4/img_ydp_103_r_2012__vray_dp_33_b_2013__vray_2006_gray.jpg,n03928116_10,n03928116_4,flexible,0.738315,n04405907_5,Stimuli/psy_fixed_rotation_30_objects_occ0.7_0.9s/images/train/n02818832_9/n04405907_5/img_bed01_blue_samsung_40_uhd_smart_tv_2011_2008-3_gray.png,random,fixed,n03928116_10,n03928116_4,Stimuli/canonical view 2/img_n03928116_10_gray.jpg,Stimuli/canonical view 2/img_n03928116_4_gray.jpg,foreground,left,Experiments/experiment_22/164.jpg,Experiments/experiment_22/165.jpg,Experiments/experiment_22/166.jpg,Experiments/experiment_22/167.jpg,346,1,2023-09-17_09h08.23.815,Occlusion_Psychophysics,2022.1.4,Win32,60.0240096,,,left,"[""left""]",[2.2232000000476546],False,,0.0,0.0,41.0,41.0,41.0,1.0,,,,,,
,,,,,,,,,,,,,,,,,,,,,0.025,,,,,,,,,,Stimuli/psy_fixed_rotation_30_objects_occ0.7_0.9s/images/train/n04405907_8/n03001627_8/img_stylized_tv_chair_billiani_doll_2001_gray.jpg,n04405907_8,n03001627_8,fixed,0.8129,n04256520_5,Stimuli/psy_flexible_rotation_30_objects_occ0.7_0.9s/images/train/n03928116_10/n04256520_5/img_ydp_103_r_2012__vray_meridiani_belmondo_bench_sofa_2001-3_gray.png,random,flexible,n04405907_8,n02818832_3,Stimuli/canonical view 2/img_n04405907_8_gray.jpg,Stimuli/canonical view 2/img_n02818832_3_gray.jpg,random,right,Experiments/experiment_22/168.jpg,Experiments/experiment_22/169.jpg,Experiments/experiment_22/170.jpg,Experiments/experiment_22/171.jpg,346,1,2023-09-17_09h08.23.815,Occlusion_Psychophysics,2022.1.4,Win32,60.0240096,,,left,"[""left""]",[1.86460000002387],False,,0.0,0.0,42.0,42.0,42.0,1.0,,,,,,
,,,,,,,,,,,,,,,,,,,,,0.025,,,,,,,,,,Stimuli/psy_fixed_rotation_30_objects_occ0.7_0.9s/images/train/n04379243_8/n02818832_0/img_glass_table_b03_the_sofa_and_chair_company_-_stanley_bed_2014_2010_gray.jpg,n04379243_8,n02818832_0,fixed,0.82268,n04405907_9,Stimuli/psy_flexible_rotation_30_objects_occ0.7_0.9s/images/train/n04256520_9/n04405907_9/img_napoleon_iii_sofa_vray_004_2003-3_gray.png,random,flexible,n04379243_8,n02818832_3,Stimuli/canonical view 2/img_n04379243_8_gray.jpg,Stimuli/canonical view 2/img_n02818832_3_gray.jpg,random,right,Experiments/experiment_22/172.jpg,Experiments/experiment_22/173.jpg,Experiments/experiment_22/174.jpg,Experiments/experiment_22/175.jpg,346,1,2023-09-17_09h08.23.815,Occlusion_Psychophysics,2022.1.4,Win32,60.0240096,,,right,"[""right""]",[0.9542000000476492],False,,0.0,0.0,43.0,43.0,43.0,1.0,,,,,,
,,,,,,,,,,,,,,,,,,,,,0.025,,,,,,,,,,Stimuli/psy_fixed_rotation_30_objects_occ0.7_0.9s/images/train/n02818832_0/n02828884_3/img_b03_the_sofa_and_chair_company_-_stanley_bed_2014_b04_wood_metal_park_bench_2010_gray.jpg,n02818832_0,n02828884_3,fixed,0.722809,n04256520_5,Stimuli/psy_flexible_rotation_30_objects_occ0.7_0.9s/images/train/n04405907_9/n04256520_5/img_vray_004_meridiani_belmondo_bench_sofa_2015-3_gray.png,random,flexible,n02818832_0,n02883344_15,Stimuli/canonical view 2/img_n02818832_0_gray.jpg,Stimuli/canonical view 2/img_n02883344_15_gray.jpg,random,right,Experiments/experiment_22/176.jpg,Experiments/experiment_22/177.jpg,Experiments/experiment_22/178.jpg,Experiments/experiment_22/179.jpg,346,1,2023-09-17_09h08.23.815,Occlusion_Psychophysics,2022.1.4,Win32,60.0240096,,,right,"[""right""]",[1.85739999997611],False,,0.0,0.0,44.0,44.0,44.0,1.0,,,,,,
,,,,,,,,,,,,,,,,,,,,,0.025,,,,,,,,,,Stimuli/psy_flexible_rotation_30_objects_occ0.7_0.9s/images/train/n02818832_9/n02883344_0/img_bed01_blue_b03_box_2005_gray.jpg,n02818832_9,n02883344_0,flexible,0.812216,n02883344_15,Stimuli/psy_flexible_rotation_30_objects_occ0.7_0.9s/images/train/n03001627_8/n02883344_15/img_chair_billiani_doll_microwave_box_2004-3_gray.png,random,flexible,n02818832_9,n02883344_0,Stimuli/canonical view 2/img_n02818832_9_gray.jpg,Stimuli/canonical view 2/img_n02883344_0_gray.jpg,foreground,right,Experiments/experiment_22/180.jpg,Experiments/experiment_22/181.jpg,Experiments/experiment_22/182.jpg,Experiments/experiment_22/183.jpg,346,1,2023-09-17_09h08.23.815,Occlusion_Psychophysics,2022.1.4,Win32,60.0240096,,,right,"[""right""]",[1.3260000000000218],False,,0.0,0.0,45.0,45.0,45.0,1.0,,,,,,
,,,,,,,,,,,,,,,,,,,,,0.025,,,,,,,,,,Stimuli/psy_fixed_rotation_30_objects_occ0.7_0.9s/images/train/n03001627_9/n02933112_4/img_chair_eames_plastic_armchair_buffet_2011_gray.jpg,n03001627_9,n02933112_4,fixed,0.706439,n04256520_4,Stimuli/psy_fixed_rotation_30_objects_occ0.7_0.9s/images/train/n02933112_4/n04256520_4/img_buffet_club_house_italia_nautilus_sofa_2003-3_gray.png,random,fixed,n03001627_9,n02933112_4,Stimuli/canonical view 2/img_n03001627_9_gray.jpg,Stimuli/canonical view 2/img_n02933112_4_gray.jpg,foreground,right,Experiments/experiment_22/184.jpg,Experiments/experiment_22/185.jpg,Experiments/experiment_22/186.jpg,Experiments/experiment_22/187.jpg,346,1,2023-09-17_09h08.23.815,Occlusion_Psychophysics,2022.1.4,Win32,60.0240096,,,left,"[""left""]",[1.1956000000237736],False,,0.0,0.0,46.0,46.0,46.0,1.0,,,,,,
,,,,,,,,,,,,,,,,,,,,,0.025,,,,,,,,,,Stimuli/psy_flexible_rotation_30_objects_occ0.7_0.9s/images/train/n04256520_5/n04405907_9/img_meridiani_belmondo_bench_sofa_vray_004_2007_gray.jpg,n04256520_5,n04405907_9,flexible,0.734846,n04256520_4,Stimuli/psy_flexible_rotation_30_objects_occ0.7_0.9s/images/train/n04256520_9/n04256520_4/img_napoleon_iii_sofa_club_house_italia_nautilus_sofa_2002-3_gray.png,random,flexible,n04256520_5,n02883344_-1,Stimuli/canonical view 2/img_n04256520_5_gray.jpg,Stimuli/canonical view 2/img_n02883344_-1_gray.jpg,random,left,Experiments/experiment_22/188.jpg,Experiments/experiment_22/189.jpg,Experiments/experiment_22/190.jpg,Experiments/experiment_22/191.jpg,346,1,2023-09-17_09h08.23.815,Occlusion_Psychophysics,2022.1.4,Win32,60.0240096,,,left,"[""left""]",[1.576099999964299],False,,0.0,0.0,47.0,47.0,47.0,1.0,,,,,,
,,,,,,,,,,,,,,,,,,,,,0.05,,,,,,,,,,Stimuli/psy_flexible_rotation_30_objects_occ0.7_0.9s/images/train/n04379243_-7/n02933112_4/img_quatre_dining_table_buffet_2000_gray.jpg,n04379243_-7,n02933112_4,flexible,0.748444,n02933112_4,Stimuli/psy_flexible_rotation_30_objects_occ0.7_0.9s/images/train/n04379243_-7/n02933112_4/img_quatre_dining_table_buffet_2000-3_gray.png,foreground,same as foreground,n04379243_-7,n03001627_-2,Stimuli/canonical view 2/img_n04379243_-7_gray.jpg,Stimuli/canonical view 2/img_n03001627_-2_gray.jpg,random,left,Experiments/experiment_22/192.jpg,Experiments/experiment_22/193.jpg,Experiments/experiment_22/194.jpg,Experiments/experiment_22/195.jpg,346,1,2023-09-17_09h08.23.815,Occlusion_Psychophysics,2022.1.4,Win32,60.0240096,,,left,"[""right""]",[1.8543999999761809],False,,0.0,0.0,48.0,48.0,48.0,1.0,,,,,,
,,,,,,,,,,,,,,,,,,,,,0.05,,,,,,,,,,Stimuli/psy_flexible_rotation_30_objects_occ0.7_0.9s/images/train/n02933112_-2/n04256520_4/img_sink_base_white_wood_club_house_italia_nautilus_sofa_2002_gray.jpg,n02933112_-2,n04256520_4,flexible,0.791265,n04256520_4,Stimuli/psy_flexible_rotation_30_objects_occ0.7_0.9s/images/train/n02933112_-2/n04256520_4/img_sink_base_white_wood_club_house_italia_nautilus_sofa_2002-3_gray.png,foreground,same as foreground,n02933112_-2,n02828884_4,Stimuli/canonical view 2/img_n02933112_-2_gray.jpg,Stimuli/canonical view 2/img_n02828884_4_gray.jpg,random,right,Experiments/experiment_22/196.jpg,Experiments/experiment_22/197.jpg,Experiments/experiment_22/198.jpg,Experiments/experiment_22/199.jpg,346,1,2023-09-17_09h08.23.815,Occlusion_Psychophysics,2022.1.4,Win32,60.0240096,,,right,"[""right""]",[0.8117000000477219],False,,0.0,0.0,49.0,49.0,49.0,1.0,,,,,,
,,,,,,,,,,,,,,,,,,,,,0.025,,,,,,,,,,Stimuli/psy_fixed_rotation_30_objects_occ0.7_0.9s/images/train/n02883344_0/n02883344_15/img_b03_box_microwave_box_2014_gray.jpg,n02883344_0,n02883344_15,fixed,0.820172,n03928116_4,Stimuli/psy_fixed_rotation_30_objects_occ0.7_0.9s/images/train/n04379243_8/n03928116_4/img_glass_table_dp_33_b_2013__vray_2005-3_gray.png,random,fixed,n02883344_0,n02883344_15,Stimuli/canonical view 2/img_n02883344_0_gray.jpg,Stimuli/canonical view 2/img_n02883344_15_gray.jpg,foreground,left,Experiments/experiment_22/200.jpg,Experiments/experiment_22/201.jpg,Experiments/experiment_22/202.jpg,Experiments/experiment_22/203.jpg,346,1,2023-09-17_09h08.23.815,Occlusion_Psychophysics,2022.1.4,Win32,60.0240096,,,right,"[""left""]",[1.5176999999880536],False,,0.0,0.0,50.0,50.0,50.0,1.0,,,,,,
,,,,,,,,,,,,,,,,,,,,,0.05,,,,,,,,,,Stimuli/psy_flexible_rotation_30_objects_occ0.7_0.9s/images/train/n04256520_9/n02883344_15/img_napoleon_iii_sofa_microwave_box_2008_gray.jpg,n04256520_9,n02883344_15,flexible,0.724716,n02883344_15,Stimuli/psy_flexible_rotation_30_objects_occ0.7_0.9s/images/train/n04256520_9/n02883344_15/img_napoleon_iii_sofa_microwave_box_2008-3_gray.png,foreground,same as foreground,n04256520_9,n04405907_5,Stimuli/canonical view 2/img_n04256520_9_gray.jpg,Stimuli/canonical view 2/img_n04405907_5_gray.jpg,random,right,Experiments/experiment_22/204.jpg,Experiments/experiment_22/205.jpg,Experiments/experiment_22/206.jpg,Experiments/experiment_22/207.jpg,346,1,2023-09-17_09h08.23.815,Occlusion_Psychophysics,2022.1.4,Win32,60.0240096,,,left,"[""left""]",[1.26119999998798],False,,0.0,0.0,51.0,51.0,51.0,1.0,,,,,,
,,,,,,,,,,,,,,,,,,,,,0.05,,,,,,,,,,Stimuli/psy_fixed_rotation_30_objects_occ0.7_0.9s/images/train/n03928116_4/n02818832_3/img_dp_33_b_2013__vray_b05_ccm_contemporary_bed_max2013_2010_gray.jpg,n03928116_4,n02818832_3,fixed,0.70008,n03001627_8,Stimuli/psy_flexible_rotation_30_objects_occ0.7_0.9s/images/train/n04379243_0/n03001627_8/img_17th_c._monastery_dining_table_2010_chair_billiani_doll_2007-3_gray.png,random,flexible,n03928116_4,n02828884_3,Stimuli/canonical view 2/img_n03928116_4_gray.jpg,Stimuli/canonical view 2/img_n02828884_3_gray.jpg,random,left,Experiments/experiment_22/208.jpg,Experiments/experiment_22/209.jpg,Experiments/experiment_22/210.jpg,Experiments/experiment_22/211.jpg,346,1,2023-09-17_09h08.23.815,Occlusion_Psychophysics,2022.1.4,Win32,60.0240096,,,left,"[""left""]",[1.0011000000238255],False,,0.0,0.0,52.0,52.0,52.0,1.0,,,,,,
,,,,,,,,,,,,,,,,,,,,,0.025,,,,,,,,,,Stimuli/psy_fixed_rotation_30_objects_occ0.7_0.9s/images/train/n04405907_5/n03928116_0/img_samsung_40_uhd_smart_tv_2011_b02_piano_2008_gray.jpg,n04405907_5,n03928116_0,fixed,0.805247,n03928116_0,Stimuli/psy_fixed_rotation_30_objects_occ0.7_0.9s/images/train/n04405907_5/n03928116_0/img_samsung_40_uhd_smart_tv_2011_b02_piano_2008-3_gray.png,foreground,same as foreground,n04405907_5,n02883344_-1,Stimuli/canonical view 2/img_n04405907_5_gray.jpg,Stimuli/canonical view 2/img_n02883344_-1_gray.jpg,random,right,Experiments/experiment_22/212.jpg,Experiments/experiment_22/213.jpg,Experiments/experiment_22/214.jpg,Experiments/experiment_22/215.jpg,346,1,2023-09-17_09h08.23.815,Occlusion_Psychophysics,2022.1.4,Win32,60.0240096,,,left,"[""left""]",[1.134999999999991],False,,0.0,0.0,53.0,53.0,53.0,1.0,,,,,,
,,,,,,,,,,,,,,,,,,,,,0.05,,,,,,,,,,Stimuli/psy_fixed_rotation_30_objects_occ0.7_0.9s/images/train/n04405907_9/n04256520_9/img_vray_004_napoleon_iii_sofa_2002_gray.jpg,n04405907_9,n04256520_9,fixed,0.800589,n04256520_9,Stimuli/psy_fixed_rotation_30_objects_occ0.7_0.9s/images/train/n04405907_9/n04256520_9/img_vray_004_napoleon_iii_sofa_2002-3_gray.png,foreground,same as foreground,n04405907_9,n04379243_0,Stimuli/canonical view 2/img_n04405907_9_gray.jpg,Stimuli/canonical view 2/img_n04379243_0_gray.jpg,random,right,Experiments/experiment_22/216.jpg,Experiments/experiment_22/217.jpg,Experiments/experiment_22/218.jpg,Experiments/experiment_22/219.jpg,346,1,2023-09-17_09h08.23.815,Occlusion_Psychophysics,2022.1.4,Win32,60.0240096,,,left,"[""left""]",[1.0843000000119218],False,,0.0,0.0,54.0,54.0,54.0,1.0,,,,,,
,,,,,,,,,,,,,,,,,,,,,0.05,,,,,,,,,,Stimuli/psy_flexible_rotation_30_objects_occ0.7_0.9s/images/train/n02828884_3/n02933112_-18/img_b04_wood_metal_park_bench_cgaxis_models_48_26_vray_composite_2000_gray.jpg,n02828884_3,n02933112_-18,flexible,0.736628,n02933112_-18,Stimuli/psy_flexible_rotation_30_objects_occ0.7_0.9s/images/train/n02828884_3/n02933112_-18/img_b04_wood_metal_park_bench_cgaxis_models_48_26_vray_composite_2000-3_gray.png,foreground,same as foreground,n02828884_3,n02933112_-18,Stimuli/canonical view 2/img_n02828884_3_gray.jpg,Stimuli/canonical view 2/img_n02933112_-18_gray.jpg,foreground,left,Experiments/experiment_22/220.jpg,Experiments/experiment_22/221.jpg,Experiments/experiment_22/222.jpg,Experiments/experiment_22/223.jpg,346,1,2023-09-17_09h08.23.815,Occlusion_Psychophysics,2022.1.4,Win32,60.0240096,,,left,"[""left""]",[1.4118999999761854],True,right,1.0,0.0,55.0,55.0,55.0,1.0,0.8507,,,,,
,,,,,,,,,,,,,,,,,,,,,0.025,,,,,,,,,,Stimuli/psy_flexible_rotation_30_objects_occ0.7_0.9s/images/train/n03928116_4/n04379243_-7/img_dp_33_b_2013__vray_quatre_dining_table_2012_gray.jpg,n03928116_4,n04379243_-7,flexible,0.855771,n04379243_-7,Stimuli/psy_flexible_rotation_30_objects_occ0.7_0.9s/images/train/n03928116_4/n04379243_-7/img_dp_33_b_2013__vray_quatre_dining_table_2012-3_gray.png,foreground,same as foreground,n03928116_4,n04379243_-7,Stimuli/canonical view 2/img_n03928116_4_gray.jpg,Stimuli/canonical view 2/img_n04379243_-7_gray.jpg,foreground,right,Experiments/experiment_22/224.jpg,Experiments/experiment_22/225.jpg,Experiments/experiment_22/226.jpg,Experiments/experiment_22/227.jpg,346,1,2023-09-17_09h08.23.815,Occlusion_Psychophysics,2022.1.4,Win32,60.0240096,,,left,"[""right""]",[1.47849999999994],False,,0.0,0.0,56.0,56.0,56.0,1.0,,,,,,
,,,,,,,,,,,,,,,,,,,,,0.05,,,,,,,,,,Stimuli/psy_flexible_rotation_30_objects_occ0.7_0.9s/images/train/n04405907_9/n02883344_-1/img_vray_004_woven_box_2015_gray.jpg,n04405907_9,n02883344_-1,flexible,0.803014,n03928116_0,Stimuli/psy_flexible_rotation_30_objects_occ0.7_0.9s/images/train/n04405907_5/n03928116_0/img_samsung_40_uhd_smart_tv_2011_b02_piano_2010-3_gray.png,random,flexible,n04405907_9,n02828884_9,Stimuli/canonical view 2/img_n04405907_9_gray.jpg,Stimuli/canonical view 2/img_n02828884_9_gray.jpg,random,left,Experiments/experiment_22/228.jpg,Experiments/experiment_22/229.jpg,Experiments/experiment_22/230.jpg,Experiments/experiment_22/231.jpg,346,1,2023-09-17_09h08.23.815,Occlusion_Psychophysics,2022.1.4,Win32,60.0240096,,,right,"[""right""]",[1.70719999998812],False,,0.0,0.0,57.0,57.0,57.0,1.0,,,,,,
,,,,,,,,,,,,,,,,,,,,,0.025,,,,,,,,,,Stimuli/psy_flexible_rotation_30_objects_occ0.7_0.9s/images/train/n04256520_9/n02818832_0/img_napoleon_iii_sofa_b03_the_sofa_and_chair_company_-_stanley_bed_2014_2009_gray.jpg,n04256520_9,n02818832_0,flexible,0.780148,n02818832_0,Stimuli/psy_flexible_rotation_30_objects_occ0.7_0.9s/images/train/n04256520_9/n02818832_0/img_napoleon_iii_sofa_b03_the_sofa_and_chair_company_-_stanley_bed_2014_2009-3_gray.png,foreground,same as foreground,n04256520_9,n02818832_0,Stimuli/canonical view 2/img_n04256520_9_gray.jpg,Stimuli/canonical view 2/img_n02818832_0_gray.jpg,foreground,right,Experiments/experiment_22/232.jpg,Experiments/experiment_22/233.jpg,Experiments/experiment_22/234.jpg,Experiments/experiment_22/235.jpg,346,1,2023-09-17_09h08.23.815,Occlusion_Psychophysics,2022.1.4,Win32,60.0240096,,,left,"[""right""]",[1.3686999999880527],False,,0.0,0.0,58.0,58.0,58.0,1.0,,,,,,
,,,,,,,,,,,,,,,,,,,,,0.025,,,,,,,,,,Stimuli/psy_fixed_rotation_30_objects_occ0.7_0.9s/images/train/n02818832_3/n02883344_0/img_b05_ccm_contemporary_bed_max2013_b03_box_2007_gray.jpg,n02818832_3,n02883344_0,fixed,0.75675,n02883344_0,Stimuli/psy_fixed_rotation_30_objects_occ0.7_0.9s/images/train/n02818832_3/n02883344_0/img_b05_ccm_contemporary_bed_max2013_b03_box_2007-3_gray.png,foreground,same as foreground,n02818832_3,n04379243_-7,Stimuli/canonical view 2/img_n02818832_3_gray.jpg,Stimuli/canonical view 2/img_n04379243_-7_gray.jpg,random,left,Experiments/experiment_22/236.jpg,Experiments/experiment_22/237.jpg,Experiments/experiment_22/238.jpg,Experiments/experiment_22/239.jpg,346,1,2023-09-17_09h08.23.815,Occlusion_Psychophysics,2022.1.4,Win32,60.0240096,,,left,"[""left""]",[1.3028000000119846],True,left,1.0,0.0,59.0,59.0,59.0,1.0,0.7451,,,,,
,,,,,,,,,,,,,,,,,,,,,0.05,,,,,,,,,,Stimuli/psy_fixed_rotation_30_objects_occ0.7_0.9s/images/train/n02883344_0/n04405907_9/img_b03_box_vray_004_2014_gray.jpg,n02883344_0,n04405907_9,fixed,0.736364,n04379243_0,Stimuli/psy_flexible_rotation_30_objects_occ0.7_0.9s/images/train/n02818832_3/n04379243_0/img_b05_ccm_contemporary_bed_max2013_17th_c._monastery_dining_table_2010_2001-3_gray.png,random,flexible,n02883344_0,n02933112_4,Stimuli/canonical view 2/img_n02883344_0_gray.jpg,Stimuli/canonical view 2/img_n02933112_4_gray.jpg,random,left,Experiments/experiment_22/240.jpg,Experiments/experiment_22/241.jpg,Experiments/experiment_22/242.jpg,Experiments/experiment_22/243.jpg,346,1,2023-09-17_09h08.23.815,Occlusion_Psychophysics,2022.1.4,Win32,60.0240096,,,left,"[""left""]",[0.80210000002387],False,,0.0,0.0,60.0,60.0,60.0,1.0,,,,,,
,,,,,,,,,,,,,,,,,,,,,0.05,,,,,,,,,,Stimuli/psy_flexible_rotation_30_objects_occ0.7_0.9s/images/train/n02883344_0/n02828884_3/img_b03_box_b04_wood_metal_park_bench_2000_gray.jpg,n02883344_0,n02828884_3,flexible,0.729097,n04379243_-7,Stimuli/psy_flexible_rotation_30_objects_occ0.7_0.9s/images/train/n02933112_-18/n04379243_-7/img_cgaxis_models_48_26_vray_composite_quatre_dining_table_2011-3_gray.png,random,flexible,n02883344_0,n03001627_8,Stimuli/canonical view 2/img_n02883344_0_gray.jpg,Stimuli/canonical view 2/img_n03001627_8_gray.jpg,random,right,Experiments/experiment_22/244.jpg,Experiments/experiment_22/245.jpg,Experiments/experiment_22/246.jpg,Experiments/experiment_22/247.jpg,346,1,2023-09-17_09h08.23.815,Occlusion_Psychophysics,2022.1.4,Win32,60.0240096,,,right,"[""right""]",[1.2649999999999864],False,,0.0,0.0,61.0,61.0,61.0,1.0,,,,,,
,,,,,,,,,,,,,,,,,,,,,0.05,,,,,,,,,,Stimuli/psy_fixed_rotation_30_objects_occ0.7_0.9s/images/train/n04256520_9/n04405907_8/img_napoleon_iii_sofa_stylized_tv_2003_gray.jpg,n04256520_9,n04405907_8,fixed,0.756381,n04256520_5,Stimuli/psy_flexible_rotation_30_objects_occ0.7_0.9s/images/train/n04405907_9/n04256520_5/img_vray_004_meridiani_belmondo_bench_sofa_2004-3_gray.png,random,flexible,n04256520_9,n04405907_8,Stimuli/canonical view 2/img_n04256520_9_gray.jpg,Stimuli/canonical view 2/img_n04405907_8_gray.jpg,foreground,right,Experiments/experiment_22/248.jpg,Experiments/experiment_22/249.jpg,Experiments/experiment_22/250.jpg,Experiments/experiment_22/251.jpg,346,1,2023-09-17_09h08.23.815,Occlusion_Psychophysics,2022.1.4,Win32,60.0240096,,,left,"[""left""]",[0.7286999999880663],False,,0.0,0.0,62.0,62.0,62.0,1.0,,,,,,
,,,,,,,,,,,,,,,,,,,,,0.025,,,,,,,,,,Stimuli/psy_flexible_rotation_30_objects_occ0.7_0.9s/images/train/n03001627_9/n04405907_8/img_chair_eames_plastic_armchair_stylized_tv_2014_gray.jpg,n03001627_9,n04405907_8,flexible,0.834049,n04256520_9,Stimuli/psy_fixed_rotation_30_objects_occ0.7_0.9s/images/train/n02828884_3/n04256520_9/img_b04_wood_metal_park_bench_napoleon_iii_sofa_2000-3_gray.png,random,fixed,n03001627_9,n02828884_3,Stimuli/canonical view 2/img_n03001627_9_gray.jpg,Stimuli/canonical view 2/img_n02828884_3_gray.jpg,random,left,Experiments/experiment_22/252.jpg,Experiments/experiment_22/253.jpg,Experiments/experiment_22/254.jpg,Experiments/experiment_22/255.jpg,346,1,2023-09-17_09h08.23.815,Occlusion_Psychophysics,2022.1.4,Win32,60.0240096,,,left,"[""left""]",[1.1131000000239055],False,,0.0,0.0,63.0,63.0,63.0,1.0,,,,,,
,,,,,,,,,,,,,,,,,,,,,0.025,,,,,,,,,,Stimuli/psy_fixed_rotation_30_objects_occ0.7_0.9s/images/train/n02933112_4/n04405907_5/img_buffet_samsung_40_uhd_smart_tv_2011_2011_gray.jpg,n02933112_4,n04405907_5,fixed,0.711345,n02818832_9,Stimuli/psy_fixed_rotation_30_objects_occ0.7_0.9s/images/train/n02933112_-18/n02818832_9/img_cgaxis_models_48_26_vray_composite_bed01_blue_2003-3_gray.png,random,fixed,n02933112_4,n03928116_10,Stimuli/canonical view 2/img_n02933112_4_gray.jpg,Stimuli/canonical view 2/img_n03928116_10_gray.jpg,random,right,Experiments/experiment_22/256.jpg,Experiments/experiment_22/257.jpg,Experiments/experiment_22/258.jpg,Experiments/experiment_22/259.jpg,346,1,2023-09-17_09h08.23.815,Occlusion_Psychophysics,2022.1.4,Win32,60.0240096,,,right,"[""right""]",[1.2974000000357364],False,,0.0,0.0,64.0,64.0,64.0,1.0,,,,,,
,,,,,,,,,,,,,,,,,,,,,0.025,,,,,,,,,,Stimuli/psy_fixed_rotation_30_objects_occ0.7_0.9s/images/train/n04256520_5/n03928116_0/img_meridiani_belmondo_bench_sofa_b02_piano_2015_gray.jpg,n04256520_5,n03928116_0,fixed,0.709256,n03928116_0,Stimuli/psy_fixed_rotation_30_objects_occ0.7_0.9s/images/train/n04256520_5/n03928116_0/img_meridiani_belmondo_bench_sofa_b02_piano_2015-3_gray.png,foreground,same as foreground,n04256520_5,n03001627_8,Stimuli/canonical view 2/img_n04256520_5_gray.jpg,Stimuli/canonical view 2/img_n03001627_8_gray.jpg,random,right,Experiments/experiment_22/260.jpg,Experiments/experiment_22/261.jpg,Experiments/experiment_22/262.jpg,Experiments/experiment_22/263.jpg,346,1,2023-09-17_09h08.23.815,Occlusion_Psychophysics,2022.1.4,Win32,60.0240096,,,right,"[""right""]",[1.205000000000041],False,,0.0,0.0,65.0,65.0,65.0,1.0,,,,,,
,,,,,,,,,,,,,,,,,,,,,0.025,,,,,,,,,,Stimuli/psy_flexible_rotation_30_objects_occ0.7_0.9s/images/train/n02818832_0/n04405907_9/img_b03_the_sofa_and_chair_company_-_stanley_bed_2014_vray_004_2000_gray.jpg,n02818832_0,n04405907_9,flexible,0.723857,n04379243_-7,Stimuli/psy_fixed_rotation_30_objects_occ0.7_0.9s/images/train/n02828884_3/n04379243_-7/img_b04_wood_metal_park_bench_quatre_dining_table_2004-3_gray.png,random,fixed,n02818832_0,n02818832_3,Stimuli/canonical view 2/img_n02818832_0_gray.jpg,Stimuli/canonical view 2/img_n02818832_3_gray.jpg,random,left,Experiments/experiment_22/264.jpg,Experiments/experiment_22/265.jpg,Experiments/experiment_22/266.jpg,Experiments/experiment_22/267.jpg,346,1,2023-09-17_09h08.23.815,Occlusion_Psychophysics,2022.1.4,Win32,60.0240096,,,left,"[""left""]",[1.584400000035771],False,,0.0,0.0,66.0,66.0,66.0,1.0,,,,,,
,,,,,,,,,,,,,,,,,,,,,0.05,,,,,,,,,,Stimuli/psy_fixed_rotation_30_objects_occ0.7_0.9s/images/train/n02818832_0/n02828884_4/img_b03_the_sofa_and_chair_company_-_stanley_bed_2014_b05_c-5_classic_series_bench-2012_2006_gray.jpg,n02818832_0,n02828884_4,fixed,0.707039,n02828884_4,Stimuli/psy_fixed_rotation_30_objects_occ0.7_0.9s/images/train/n02818832_0/n02828884_4/img_b03_the_sofa_and_chair_company_-_stanley_bed_2014_b05_c-5_classic_series_bench-2012_2006-3_gray.png,foreground,same as foreground,n02818832_0,n02828884_4,Stimuli/canonical view 2/img_n02818832_0_gray.jpg,Stimuli/canonical view 2/img_n02828884_4_gray.jpg,foreground,left,Experiments/experiment_22/268.jpg,Experiments/experiment_22/269.jpg,Experiments/experiment_22/270.jpg,Experiments/experiment_22/271.jpg,346,1,2023-09-17_09h08.23.815,Occlusion_Psychophysics,2022.1.4,Win32,60.0240096,,,right,"[""right""]",[1.0363999999761973],False,,0.0,0.0,67.0,67.0,67.0,1.0,,,,,,
,,,,,,,,,,,,,,,,,,,,,0.05,,,,,,,,,,Stimuli/psy_fixed_rotation_30_objects_occ0.7_0.9s/images/train/n02933112_-2/n04405907_9/img_sink_base_white_wood_vray_004_2008_gray.jpg,n02933112_-2,n04405907_9,fixed,0.737404,n04405907_9,Stimuli/psy_fixed_rotation_30_objects_occ0.7_0.9s/images/train/n02933112_-2/n04405907_9/img_sink_base_white_wood_vray_004_2008-3_gray.png,foreground,same as foreground,n02933112_-2,n04405907_9,Stimuli/canonical view 2/img_n02933112_-2_gray.jpg,Stimuli/canonical view 2/img_n04405907_9_gray.jpg,foreground,left,Experiments/experiment_22/272.jpg,Experiments/experiment_22/273.jpg,Experiments/experiment_22/274.jpg,Experiments/experiment_22/275.jpg,346,1,2023-09-17_09h08.23.815,Occlusion_Psychophysics,2022.1.4,Win32,60.0240096,,,right,"[""right""]",[1.1029999999999518],False,,0.0,0.0,68.0,68.0,68.0,1.0,,,,,,
,,,,,,,,,,,,,,,,,,,,,0.05,,,,,,,,,,Stimuli/psy_fixed_rotation_30_objects_occ0.7_0.9s/images/train/n02933112_-2/n02883344_-1/img_sink_base_white_wood_woven_box_2001_gray.jpg,n02933112_-2,n02883344_-1,fixed,0.851413,n04256520_5,Stimuli/psy_flexible_rotation_30_objects_occ0.7_0.9s/images/train/n03928116_0/n04256520_5/img_b02_piano_meridiani_belmondo_bench_sofa_2015-3_gray.png,random,flexible,n02933112_-2,n03001627_9,Stimuli/canonical view 2/img_n02933112_-2_gray.jpg,Stimuli/canonical view 2/img_n03001627_9_gray.jpg,random,left,Experiments/experiment_22/276.jpg,Experiments/experiment_22/277.jpg,Experiments/experiment_22/278.jpg,Experiments/experiment_22/279.jpg,346,1,2023-09-17_09h08.23.815,Occlusion_Psychophysics,2022.1.4,Win32,60.0240096,,,right,"[""right""]",[0.8423999999762373],False,,0.0,0.0,69.0,69.0,69.0,1.0,,,,,,
,,,,,,,,,,,,,,,,,,,,,0.025,,,,,,,,,,Stimuli/psy_flexible_rotation_30_objects_occ0.7_0.9s/images/train/n04379243_-7/n03928116_10/img_quatre_dining_table_ydp_103_r_2012__vray_2008_gray.jpg,n04379243_-7,n03928116_10,flexible,0.71147,n04405907_8,Stimuli/psy_flexible_rotation_30_objects_occ0.7_0.9s/images/train/n04256520_4/n04405907_8/img_club_house_italia_nautilus_sofa_stylized_tv_2007-3_gray.png,random,flexible,n04379243_-7,n03928116_10,Stimuli/canonical view 2/img_n04379243_-7_gray.jpg,Stimuli/canonical view 2/img_n03928116_10_gray.jpg,foreground,right,Experiments/experiment_22/280.jpg,Experiments/experiment_22/281.jpg,Experiments/experiment_22/282.jpg,Experiments/experiment_22/283.jpg,346,1,2023-09-17_09h08.23.815,Occlusion_Psychophysics,2022.1.4,Win32,60.0240096,,,left,"[""left""]",[1.6348999999761418],True,left,1.0,0.0,70.0,70.0,70.0,1.0,0.9924,,,,,
,,,,,,,,,,,,,,,,,,,,,0.05,,,,,,,,,,Stimuli/psy_fixed_rotation_30_objects_occ0.7_0.9s/images/train/n04405907_5/n04405907_9/img_samsung_40_uhd_smart_tv_2011_vray_004_2010_gray.jpg,n04405907_5,n04405907_9,fixed,0.788045,n02933112_-2,Stimuli/psy_flexible_rotation_30_objects_occ0.7_0.9s/images/train/n02818832_0/n02933112_-2/img_b03_the_sofa_and_chair_company_-_stanley_bed_2014_sink_base_white_wood_2005-3_gray.png,random,flexible,n04405907_5,n02883344_-1,Stimuli/canonical view 2/img_n04405907_5_gray.jpg,Stimuli/canonical view 2/img_n02883344_-1_gray.jpg,random,left,Experiments/experiment_22/284.jpg,Experiments/experiment_22/285.jpg,Experiments/experiment_22/286.jpg,Experiments/experiment_22/287.jpg,346,1,2023-09-17_09h08.23.815,Occlusion_Psychophysics,2022.1.4,Win32,60.0240096,,,left,"[""right""]",[1.5745000000000573],False,,0.0,0.0,71.0,71.0,71.0,1.0,,,,,,
,,,,,,,,,,,,,,,,,,,,,0.025,,,,,,,,,,Stimuli/psy_fixed_rotation_30_objects_occ0.7_0.9s/images/train/n02933112_-2/n02818832_9/img_sink_base_white_wood_bed01_blue_2011_gray.jpg,n02933112_-2,n02818832_9,fixed,0.752517,n02818832_3,Stimuli/psy_fixed_rotation_30_objects_occ0.7_0.9s/images/train/n02828884_3/n02818832_3/img_b04_wood_metal_park_bench_b05_ccm_contemporary_bed_max2013_2012-3_gray.png,random,fixed,n02933112_-2,n02818832_9,Stimuli/canonical view 2/img_n02933112_-2_gray.jpg,Stimuli/canonical view 2/img_n02818832_9_gray.jpg,foreground,left,Experiments/experiment_22/288.jpg,Experiments/experiment_22/289.jpg,Experiments/experiment_22/290.jpg,Experiments/experiment_22/291.jpg,346,1,2023-09-17_09h08.23.815,Occlusion_Psychophysics,2022.1.4,Win32,60.0240096,,,left,"[""left""]",[0.7088000000119337],False,,0.0,0.0,72.0,72.0,72.0,1.0,,,,,,
,,,,,,,,,,,,,,,,,,,,,0.025,,,,,,,,,,Stimuli/psy_flexible_rotation_30_objects_occ0.7_0.9s/images/train/n04405907_8/n04256520_4/img_stylized_tv_club_house_italia_nautilus_sofa_2006_gray.jpg,n04405907_8,n04256520_4,flexible,0.732538,n04256520_5,Stimuli/psy_flexible_rotation_30_objects_occ0.7_0.9s/images/train/n02818832_0/n04256520_5/img_b03_the_sofa_and_chair_company_-_stanley_bed_2014_meridiani_belmondo_bench_sofa_2005-3_gray.png,random,flexible,n04405907_8,n02883344_15,Stimuli/canonical view 2/img_n04405907_8_gray.jpg,Stimuli/canonical view 2/img_n02883344_15_gray.jpg,random,left,Experiments/experiment_22/292.jpg,Experiments/experiment_22/293.jpg,Experiments/experiment_22/294.jpg,Experiments/experiment_22/295.jpg,346,1,2023-09-17_09h08.23.815,Occlusion_Psychophysics,2022.1.4,Win32,60.0240096,,,right,"[""right""]",[1.0178000000119027],False,,0.0,0.0,73.0,73.0,73.0,1.0,,,,,,
,,,,,,,,,,,,,,,,,,,,,0.025,,,,,,,,,,Stimuli/psy_flexible_rotation_30_objects_occ0.7_0.9s/images/train/n03001627_-2/n02818832_0/img_wood_chair_b03_the_sofa_and_chair_company_-_stanley_bed_2014_2004_gray.jpg,n03001627_-2,n02818832_0,flexible,0.740159,n02818832_3,Stimuli/psy_flexible_rotation_30_objects_occ0.7_0.9s/images/train/n04405907_8/n02818832_3/img_stylized_tv_b05_ccm_contemporary_bed_max2013_2014-3_gray.png,random,flexible,n03001627_-2,n02818832_0,Stimuli/canonical view 2/img_n03001627_-2_gray.jpg,Stimuli/canonical view 2/img_n02818832_0_gray.jpg,foreground,right,Experiments/experiment_22/296.jpg,Experiments/experiment_22/297.jpg,Experiments/experiment_22/298.jpg,Experiments/experiment_22/299.jpg,346,1,2023-09-17_09h08.23.815,Occlusion_Psychophysics,2022.1.4,Win32,60.0240096,,,left,"[""left""]",[1.271900000035771],False,,0.0,0.0,74.0,74.0,74.0,1.0,,,,,,
,,,,,,,,,,,,,,,,,,,,,0.05,,,,,,,,,,Stimuli/psy_fixed_rotation_30_objects_occ0.7_0.9s/images/train/n02818832_9/n02828884_4/img_bed01_blue_b05_c-5_classic_series_bench-2012_2008_gray.jpg,n02818832_9,n02828884_4,fixed,0.780215,n02883344_-1,Stimuli/psy_flexible_rotation_30_objects_occ0.7_0.9s/images/train/n02818832_9/n02883344_-1/img_bed01_blue_woven_box_2014-3_gray.png,random,flexible,n02818832_9,n04256520_5,Stimuli/canonical view 2/img_n02818832_9_gray.jpg,Stimuli/canonical view 2/img_n04256520_5_gray.jpg,random,right,Experiments/experiment_22/300.jpg,Experiments/experiment_22/301.jpg,Experiments/experiment_22/302.jpg,Experiments/experiment_22/303.jpg,346,1,2023-09-17_09h08.23.815,Occlusion_Psychophysics,2022.1.4,Win32,60.0240096,,,left,"[""right""]",[1.02590000003579],False,,0.0,0.0,75.0,75.0,75.0,1.0,,,,,,
,,,,,,,,,,,,,,,,,,,,,0.025,,,,,,,,,,Stimuli/psy_flexible_rotation_30_objects_occ0.7_0.9s/images/train/n03001627_9/n02828884_3/img_chair_eames_plastic_armchair_b04_wood_metal_park_bench_2008_gray.jpg,n03001627_9,n02828884_3,flexible,0.822515,n02828884_3,Stimuli/psy_flexible_rotation_30_objects_occ0.7_0.9s/images/train/n03001627_9/n02828884_3/img_chair_eames_plastic_armchair_b04_wood_metal_park_bench_2008-3_gray.png,foreground,same as foreground,n03001627_9,n02818832_0,Stimuli/canonical view 2/img_n03001627_9_gray.jpg,Stimuli/canonical view 2/img_n02818832_0_gray.jpg,random,left,Experiments/experiment_22/304.jpg,Experiments/experiment_22/305.jpg,Experiments/experiment_22/306.jpg,Experiments/experiment_22/307.jpg,346,1,2023-09-17_09h08.23.815,Occlusion_Psychophysics,2022.1.4,Win32,60.0240096,,,right,"[""left""]",[1.5579999999999927],True,right,1.0,0.0,76.0,76.0,76.0,1.0,0.8144,,,,,
,,,,,,,,,,,,,,,,,,,,,0.025,,,,,,,,,,Stimuli/psy_flexible_rotation_30_objects_occ0.7_0.9s/images/train/n02883344_0/n04379243_0/img_b03_box_17th_c._monastery_dining_table_2010_2004_gray.jpg,n02883344_0,n04379243_0,flexible,0.845936,n04379243_0,Stimuli/psy_flexible_rotation_30_objects_occ0.7_0.9s/images/train/n02883344_0/n04379243_0/img_b03_box_17th_c._monastery_dining_table_2010_2004-3_gray.png,foreground,same as foreground,n02883344_0,n04379243_0,Stimuli/canonical view 2/img_n02883344_0_gray.jpg,Stimuli/canonical view 2/img_n04379243_0_gray.jpg,foreground,right,Experiments/experiment_22/308.jpg,Experiments/experiment_22/309.jpg,Experiments/experiment_22/310.jpg,Experiments/experiment_22/311.jpg,346,1,2023-09-17_09h08.23.815,Occlusion_Psychophysics,2022.1.4,Win32,60.0240096,,,left,"[""left""]",[1.214300000012031],False,,0.0,0.0,77.0,77.0,77.0,1.0,,,,,,
,,,,,,,,,,,,,,,,,,,,,0.025,,,,,,,,,,Stimuli/psy_flexible_rotation_30_objects_occ0.7_0.9s/images/train/n02933112_4/n02883344_0/img_buffet_b03_box_2013_gray.jpg,n02933112_4,n02883344_0,flexible,0.714542,n03001627_9,Stimuli/psy_flexible_rotation_30_objects_occ0.7_0.9s/images/train/n03001627_8/n03001627_9/img_chair_billiani_doll_chair_eames_plastic_armchair_2009-3_gray.png,random,flexible,n02933112_4,n02883344_0,Stimuli/canonical view 2/img_n02933112_4_gray.jpg,Stimuli/canonical view 2/img_n02883344_0_gray.jpg,foreground,right,Experiments/experiment_22/312.jpg,Experiments/experiment_22/313.jpg,Experiments/experiment_22/314.jpg,Experiments/experiment_22/315.jpg,346,1,2023-09-17_09h08.23.815,Occlusion_Psychophysics,2022.1.4,Win32,60.0240096,,,right,"[""right""]",[1.017500000000041],False,,0.0,0.0,78.0,78.0,78.0,1.0,,,,,,
,,,,,,,,,,,,,,,,,,,,,0.025,,,,,,,,,,Stimuli/psy_flexible_rotation_30_objects_occ0.7_0.9s/images/train/n04379243_0/n04256520_5/img_17th_c._monastery_dining_table_2010_meridiani_belmondo_bench_sofa_2013_gray.jpg,n04379243_0,n04256520_5,flexible,0.85731,n02883344_15,Stimuli/psy_fixed_rotation_30_objects_occ0.7_0.9s/images/train/n02828884_3/n02883344_15/img_b04_wood_metal_park_bench_microwave_box_2001-3_gray.png,random,fixed,n04379243_0,n04256520_5,Stimuli/canonical view 2/img_n04379243_0_gray.jpg,Stimuli/canonical view 2/img_n04256520_5_gray.jpg,foreground,right,Experiments/experiment_22/316.jpg,Experiments/experiment_22/317.jpg,Experiments/experiment_22/318.jpg,Experiments/experiment_22/319.jpg,346,1,2023-09-17_09h08.23.815,Occlusion_Psychophysics,2022.1.4,Win32,60.0240096,,,left,"[""left""]",[1.1158999999761363],False,,0.0,0.0,79.0,79.0,79.0,1.0,,,,,,
,,,,,,,,,,,,,,,,,,,,,0.05,,,,,,,,,,Stimuli/psy_fixed_rotation_30_objects_occ0.7_0.9s/images/train/n02883344_-1/n04405907_9/img_woven_box_vray_004_2000_gray.jpg,n02883344_-1,n04405907_9,fixed,0.719341,n04405907_9,Stimuli/psy_fixed_rotation_30_objects_occ0.7_0.9s/images/train/n02883344_-1/n04405907_9/img_woven_box_vray_004_2000-3_gray.png,foreground,same as foreground,n02883344_-1,n02883344_15,Stimuli/canonical view 2/img_n02883344_-1_gray.jpg,Stimuli/canonical view 2/img_n02883344_15_gray.jpg,random,left,Experiments/experiment_22/320.jpg,Experiments/experiment_22/321.jpg,Experiments/experiment_22/322.jpg,Experiments/experiment_22/323.jpg,346,1,2023-09-17_09h08.23.815,Occlusion_Psychophysics,2022.1.4,Win32,60.0240096,,,left,"[""left""]",[0.94789999997613],False,,0.0,0.0,80.0,80.0,80.0,1.0,,,,,,
,,,,,,,,,,,,,,,,,,,,,0.05,,,,,,,,,,Stimuli/psy_flexible_rotation_30_objects_occ0.7_0.9s/images/train/n03001627_9/n03928116_10/img_chair_eames_plastic_armchair_ydp_103_r_2012__vray_2000_gray.jpg,n03001627_9,n03928116_10,flexible,0.740673,n04405907_5,Stimuli/psy_fixed_rotation_30_objects_occ0.7_0.9s/images/train/n02883344_-1/n04405907_5/img_woven_box_samsung_40_uhd_smart_tv_2011_2000-3_gray.png,random,fixed,n03001627_9,n04405907_8,Stimuli/canonical view 2/img_n03001627_9_gray.jpg,Stimuli/canonical view 2/img_n04405907_8_gray.jpg,random,left,Experiments/experiment_22/324.jpg,Experiments/experiment_22/325.jpg,Experiments/experiment_22/326.jpg,Experiments/experiment_22/327.jpg,346,1,2023-09-17_09h08.23.815,Occlusion_Psychophysics,2022.1.4,Win32,60.0240096,,,right,"[""right""]",[0.9173000000118918],False,,0.0,0.0,81.0,81.0,81.0,1.0,,,,,,
,,,,,,,,,,,,,,,,,,,,,0.05,,,,,,,,,,Stimuli/psy_flexible_rotation_30_objects_occ0.7_0.9s/images/train/n03928116_4/n04256520_9/img_dp_33_b_2013__vray_napoleon_iii_sofa_2004_gray.jpg,n03928116_4,n04256520_9,flexible,0.72631,n04256520_9,Stimuli/psy_flexible_rotation_30_objects_occ0.7_0.9s/images/train/n03928116_4/n04256520_9/img_dp_33_b_2013__vray_napoleon_iii_sofa_2004-3_gray.png,foreground,same as foreground,n03928116_4,n04256520_9,Stimuli/canonical view 2/img_n03928116_4_gray.jpg,Stimuli/canonical view 2/img_n04256520_9_gray.jpg,foreground,left,Experiments/experiment_22/328.jpg,Experiments/experiment_22/329.jpg,Experiments/experiment_22/330.jpg,Experiments/experiment_22/331.jpg,346,1,2023-09-17_09h08.23.815,Occlusion_Psychophysics,2022.1.4,Win32,60.0240096,,,right,"[""right""]",[1.1988999999761063],False,,0.0,0.0,82.0,82.0,82.0,1.0,,,,,,
,,,,,,,,,,,,,,,,,,,,,0.05,,,,,,,,,,Stimuli/psy_fixed_rotation_30_objects_occ0.7_0.9s/images/train/n04256520_4/n02883344_-1/img_club_house_italia_nautilus_sofa_woven_box_2004_gray.jpg,n04256520_4,n02883344_-1,fixed,0.715658,n02883344_-1,Stimuli/psy_fixed_rotation_30_objects_occ0.7_0.9s/images/train/n04256520_4/n02883344_-1/img_club_house_italia_nautilus_sofa_woven_box_2004-3_gray.png,foreground,same as foreground,n04256520_4,n02883344_-1,Stimuli/canonical view 2/img_n04256520_4_gray.jpg,Stimuli/canonical view 2/img_n02883344_-1_gray.jpg,foreground,left,Experiments/experiment_22/332.jpg,Experiments/experiment_22/333.jpg,Experiments/experiment_22/334.jpg,Experiments/experiment_22/335.jpg,346,1,2023-09-17_09h08.23.815,Occlusion_Psychophysics,2022.1.4,Win32,60.0240096,,,right,"[""right""]",[1.0809000000358537],False,,0.0,0.0,83.0,83.0,83.0,1.0,,,,,,
,,,,,,,,,,,,,,,,,,,,,0.025,,,,,,,,,,Stimuli/psy_flexible_rotation_30_objects_occ0.7_0.9s/images/train/n02883344_-1/n02933112_4/img_woven_box_buffet_2004_gray.jpg,n02883344_-1,n02933112_4,flexible,0.704636,n04405907_9,Stimuli/psy_fixed_rotation_30_objects_occ0.7_0.9s/images/train/n04379243_-7/n04405907_9/img_quatre_dining_table_vray_004_2005-3_gray.png,random,fixed,n02883344_-1,n04379243_0,Stimuli/canonical view 2/img_n02883344_-1_gray.jpg,Stimuli/canonical view 2/img_n04379243_0_gray.jpg,random,right,Experiments/experiment_22/336.jpg,Experiments/experiment_22/337.jpg,Experiments/experiment_22/338.jpg,Experiments/experiment_22/339.jpg,346,1,2023-09-17_09h08.23.815,Occlusion_Psychophysics,2022.1.4,Win32,60.0240096,,,right,"[""left""]",[0.9868999999761172],False,,0.0,0.0,84.0,84.0,84.0,1.0,,,,,,
,,,,,,,,,,,,,,,,,,,,,0.05,,,,,,,,,,Stimuli/psy_flexible_rotation_30_objects_occ0.7_0.9s/images/train/n02818832_9/n02883344_-1/img_bed01_blue_woven_box_2014_gray.jpg,n02818832_9,n02883344_-1,flexible,0.763115,n02818832_3,Stimuli/psy_fixed_rotation_30_objects_occ0.7_0.9s/images/train/n03001627_8/n02818832_3/img_chair_billiani_doll_b05_ccm_contemporary_bed_max2013_2014-3_gray.png,random,fixed,n02818832_9,n02818832_3,Stimuli/canonical view 2/img_n02818832_9_gray.jpg,Stimuli/canonical view 2/img_n02818832_3_gray.jpg,random,right,Experiments/experiment_22/340.jpg,Experiments/experiment_22/341.jpg,Experiments/experiment_22/342.jpg,Experiments/experiment_22/343.jpg,346,1,2023-09-17_09h08.23.815,Occlusion_Psychophysics,2022.1.4,Win32,60.0240096,,,right,"[""left""]",[1.936099999964199],False,,0.0,0.0,85.0,85.0,85.0,1.0,,,,,,
,,,,,,,,,,,,,,,,,,,,,0.025,,,,,,,,,,Stimuli/psy_fixed_rotation_30_objects_occ0.7_0.9s/images/train/n03001627_8/n04405907_5/img_chair_billiani_doll_samsung_40_uhd_smart_tv_2011_2008_gray.jpg,n03001627_8,n04405907_5,fixed,0.73334,n02883344_-1,Stimuli/psy_fixed_rotation_30_objects_occ0.7_0.9s/images/train/n02818832_0/n02883344_-1/img_b03_the_sofa_and_chair_company_-_stanley_bed_2014_woven_box_2010-3_gray.png,random,fixed,n03001627_8,n04405907_5,Stimuli/canonical view 2/img_n03001627_8_gray.jpg,Stimuli/canonical view 2/img_n04405907_5_gray.jpg,foreground,right,Experiments/experiment_22/344.jpg,Experiments/experiment_22/345.jpg,Experiments/experiment_22/346.jpg,Experiments/experiment_22/347.jpg,346,1,2023-09-17_09h08.23.815,Occlusion_Psychophysics,2022.1.4,Win32,60.0240096,,,left,"[""left""]",[1.513600000023871],False,,0.0,0.0,86.0,86.0,86.0,1.0,,,,,,
,,,,,,,,,,,,,,,,,,,,,0.05,,,,,,,,,,Stimuli/psy_fixed_rotation_30_objects_occ0.7_0.9s/images/train/n04405907_5/n02828884_3/img_samsung_40_uhd_smart_tv_2011_b04_wood_metal_park_bench_2009_gray.jpg,n04405907_5,n02828884_3,fixed,0.747164,n02818832_3,Stimuli/psy_fixed_rotation_30_objects_occ0.7_0.9s/images/train/n03928116_0/n02818832_3/img_b02_piano_b05_ccm_contemporary_bed_max2013_2010-3_gray.png,random,fixed,n04405907_5,n02933112_-2,Stimuli/canonical view 2/img_n04405907_5_gray.jpg,Stimuli/canonical view 2/img_n02933112_-2_gray.jpg,random,left,Experiments/experiment_22/348.jpg,Experiments/experiment_22/349.jpg,Experiments/experiment_22/350.jpg,Experiments/experiment_22/351.jpg,346,1,2023-09-17_09h08.23.815,Occlusion_Psychophysics,2022.1.4,Win32,60.0240096,,,right,"[""right""]",[0.8315999999642827],False,,0.0,0.0,87.0,87.0,87.0,1.0,,,,,,
,,,,,,,,,,,,,,,,,,,,,0.025,,,,,,,,,,Stimuli/psy_flexible_rotation_30_objects_occ0.7_0.9s/images/train/n03001627_-2/n02818832_0/img_wood_chair_b03_the_sofa_and_chair_company_-_stanley_bed_2014_2008_gray.jpg,n03001627_-2,n02818832_0,flexible,0.755763,n04379243_8,Stimuli/psy_fixed_rotation_30_objects_occ0.7_0.9s/images/train/n02828884_3/n04379243_8/img_b04_wood_metal_park_bench_glass_table_2001-3_gray.png,random,fixed,n03001627_-2,n02818832_9,Stimuli/canonical view 2/img_n03001627_-2_gray.jpg,Stimuli/canonical view 2/img_n02818832_9_gray.jpg,random,left,Experiments/experiment_22/352.jpg,Experiments/experiment_22/353.jpg,Experiments/experiment_22/354.jpg,Experiments/experiment_22/355.jpg,346,1,2023-09-17_09h08.23.815,Occlusion_Psychophysics,2022.1.4,Win32,60.0240096,,,right,"[""right""]",[1.1158000000119728],False,,0.0,0.0,88.0,88.0,88.0,1.0,,,,,,
,,,,,,,,,,,,,,,,,,,,,0.05,,,,,,,,,,Stimuli/psy_flexible_rotation_30_objects_occ0.7_0.9s/images/train/n02883344_-1/n02828884_3/img_woven_box_b04_wood_metal_park_bench_2014_gray.jpg,n02883344_-1,n02828884_3,flexible,0.829216,n02828884_3,Stimuli/psy_flexible_rotation_30_objects_occ0.7_0.9s/images/train/n02883344_-1/n02828884_3/img_woven_box_b04_wood_metal_park_bench_2014-3_gray.png,foreground,same as foreground,n02883344_-1,n04405907_8,Stimuli/canonical view 2/img_n02883344_-1_gray.jpg,Stimuli/canonical view 2/img_n04405907_8_gray.jpg,random,left,Experiments/experiment_22/356.jpg,Experiments/experiment_22/357.jpg,Experiments/experiment_22/358.jpg,Experiments/experiment_22/359.jpg,346,1,2023-09-17_09h08.23.815,Occlusion_Psychophysics,2022.1.4,Win32,60.0240096,,,right,"[""right""]",[1.619699999988029],False,,0.0,0.0,89.0,89.0,89.0,1.0,,,,,,
,,,,,,,,,,,,,,,,,,,,,0.05,,,,,,,,,,Stimuli/psy_fixed_rotation_30_objects_occ0.7_0.9s/images/train/n03928116_10/n04379243_-7/img_ydp_103_r_2012__vray_quatre_dining_table_2011_gray.jpg,n03928116_10,n04379243_-7,fixed,0.821594,n04256520_4,Stimuli/psy_fixed_rotation_30_objects_occ0.7_0.9s/images/train/n02828884_3/n04256520_4/img_b04_wood_metal_park_bench_club_house_italia_nautilus_sofa_2010-3_gray.png,random,fixed,n03928116_10,n04379243_-7,Stimuli/canonical view 2/img_n03928116_10_gray.jpg,Stimuli/canonical view 2/img_n04379243_-7_gray.jpg,foreground,left,Experiments/experiment_22/360.jpg,Experiments/experiment_22/361.jpg,Experiments/experiment_22/362.jpg,Experiments/experiment_22/363.jpg,346,1,2023-09-17_09h08.23.815,Occlusion_Psychophysics,2022.1.4,Win32,60.0240096,,,right,"[""right""]",[1.6516000000239046],True,left,1.0,0.0,90.0,90.0,90.0,1.0,0.7339,,,,,
,,,,,,,,,,,,,,,,,,,,,0.05,,,,,,,,,,Stimuli/psy_fixed_rotation_30_objects_occ0.7_0.9s/images/train/n03928116_0/n02933112_-2/img_b02_piano_sink_base_white_wood_2008_gray.jpg,n03928116_0,n02933112_-2,fixed,0.827609,n04379243_0,Stimuli/psy_flexible_rotation_30_objects_occ0.7_0.9s/images/train/n02818832_0/n04379243_0/img_b03_the_sofa_and_chair_company_-_stanley_bed_2014_17th_c._monastery_dining_table_2010_2015-3_gray.png,random,flexible,n03928116_0,n02933112_-2,Stimuli/canonical view 2/img_n03928116_0_gray.jpg,Stimuli/canonical view 2/img_n02933112_-2_gray.jpg,foreground,right,Experiments/experiment_22/364.jpg,Experiments/experiment_22/365.jpg,Experiments/experiment_22/366.jpg,Experiments/experiment_22/367.jpg,346,1,2023-09-17_09h08.23.815,Occlusion_Psychophysics,2022.1.4,Win32,60.0240096,,,right,"[""right""]",[1.9651000000237673],False,,0.0,0.0,91.0,91.0,91.0,1.0,,,,,,
,,,,,,,,,,,,,,,,,,,,,0.025,,,,,,,,,,Stimuli/psy_fixed_rotation_30_objects_occ0.7_0.9s/images/train/n04256520_9/n04405907_8/img_napoleon_iii_sofa_stylized_tv_2004_gray.jpg,n04256520_9,n04405907_8,fixed,0.71115,n04405907_8,Stimuli/psy_fixed_rotation_30_objects_occ0.7_0.9s/images/train/n04256520_9/n04405907_8/img_napoleon_iii_sofa_stylized_tv_2004-3_gray.png,foreground,same as foreground,n04256520_9,n04405907_8,Stimuli/canonical view 2/img_n04256520_9_gray.jpg,Stimuli/canonical view 2/img_n04405907_8_gray.jpg,foreground,right,Experiments/experiment_22/368.jpg,Experiments/experiment_22/369.jpg,Experiments/experiment_22/370.jpg,Experiments/experiment_22/371.jpg,346,1,2023-09-17_09h08.23.815,Occlusion_Psychophysics,2022.1.4,Win32,60.0240096,,,right,"[""right""]",[0.6991000000238046],False,,0.0,0.0,92.0,92.0,92.0,1.0,,,,,,
,,,,,,,,,,,,,,,,,,,,,0.025,,,,,,,,,,Stimuli/psy_fixed_rotation_30_objects_occ0.7_0.9s/images/train/n02933112_-18/n04405907_8/img_cgaxis_models_48_26_vray_composite_stylized_tv_2006_gray.jpg,n02933112_-18,n04405907_8,fixed,0.705039,n02828884_3,Stimuli/psy_fixed_rotation_30_objects_occ0.7_0.9s/images/train/n04405907_9/n02828884_3/img_vray_004_b04_wood_metal_park_bench_2015-3_gray.png,random,fixed,n02933112_-18,n03928116_10,Stimuli/canonical view 2/img_n02933112_-18_gray.jpg,Stimuli/canonical view 2/img_n03928116_10_gray.jpg,random,left,Experiments/experiment_22/372.jpg,Experiments/experiment_22/373.jpg,Experiments/experiment_22/374.jpg,Experiments/experiment_22/375.jpg,346,1,2023-09-17_09h08.23.815,Occlusion_Psychophysics,2022.1.4,Win32,60.0240096,,,right,"[""right""]",[1.2925000000000182],False,,0.0,0.0,93.0,93.0,93.0,1.0,,,,,,
,,,,,,,,,,,,,,,,,,,,,0.05,,,,,,,,,,Stimuli/psy_flexible_rotation_30_objects_occ0.7_0.9s/images/train/n02828884_4/n04379243_8/img_b05_c-5_classic_series_bench-2012_glass_table_2015_gray.jpg,n02828884_4,n04379243_8,flexible,0.70564,n04379243_8,Stimuli/psy_flexible_rotation_30_objects_occ0.7_0.9s/images/train/n02828884_4/n04379243_8/img_b05_c-5_classic_series_bench-2012_glass_table_2015-3_gray.png,foreground,same as foreground,n02828884_4,n04379243_8,Stimuli/canonical view 2/img_n02828884_4_gray.jpg,Stimuli/canonical view 2/img_n04379243_8_gray.jpg,foreground,right,Experiments/experiment_22/376.jpg,Experiments/experiment_22/377.jpg,Experiments/experiment_22/378.jpg,Experiments/experiment_22/379.jpg,346,1,2023-09-17_09h08.23.815,Occlusion_Psychophysics,2022.1.4,Win32,60.0240096,,,right,"[""right""]",[1.5918000000119719],False,,0.0,0.0,94.0,94.0,94.0,1.0,,,,,,
,,,,,,,,,,,,,,,,,,,,,0.025,,,,,,,,,,Stimuli/psy_flexible_rotation_30_objects_occ0.7_0.9s/images/train/n03928116_0/n02883344_15/img_b02_piano_microwave_box_2004_gray.jpg,n03928116_0,n02883344_15,flexible,0.785458,n02883344_15,Stimuli/psy_flexible_rotation_30_objects_occ0.7_0.9s/images/train/n03928116_0/n02883344_15/img_b02_piano_microwave_box_2004-3_gray.png,foreground,same as foreground,n03928116_0,n02883344_15,Stimuli/canonical view 2/img_n03928116_0_gray.jpg,Stimuli/canonical view 2/img_n02883344_15_gray.jpg,foreground,right,Experiments/experiment_22/380.jpg,Experiments/experiment_22/381.jpg,Experiments/experiment_22/382.jpg,Experiments/experiment_22/383.jpg,346,1,2023-09-17_09h08.23.815,Occlusion_Psychophysics,2022.1.4,Win32,60.0240096,,,left,"[""left""]",[0.5869999999999891],False,,0.0,0.0,95.0,95.0,95.0,1.0,,,,,,
,,,,,,,,,,,,,,,,,,,,,0.025,,,,,,,,,,Stimuli/psy_flexible_rotation_30_objects_occ0.7_0.9s/images/train/n04256520_9/n03928116_10/img_napoleon_iii_sofa_ydp_103_r_2012__vray_2012_gray.jpg,n04256520_9,n03928116_10,flexible,0.749858,n04405907_9,Stimuli/psy_flexible_rotation_30_objects_occ0.7_0.9s/images/train/n04256520_4/n04405907_9/img_club_house_italia_nautilus_sofa_vray_004_2005-3_gray.png,random,flexible,n04256520_9,n03928116_10,Stimuli/canonical view 2/img_n04256520_9_gray.jpg,Stimuli/canonical view 2/img_n03928116_10_gray.jpg,foreground,left,Experiments/experiment_22/384.jpg,Experiments/experiment_22/385.jpg,Experiments/experiment_22/386.jpg,Experiments/experiment_22/387.jpg,346,1,2023-09-17_09h08.23.815,Occlusion_Psychophysics,2022.1.4,Win32,60.0240096,,,left,"[""left""]",[1.1275999999642181],False,,0.0,0.0,96.0,96.0,96.0,1.0,,,,,,
,,,,,,,,,,,,,,,,,,,,,0.05,,,,,,,,,,Stimuli/psy_flexible_rotation_30_objects_occ0.7_0.9s/images/train/n02828884_4/n04379243_0/img_b05_c-5_classic_series_bench-2012_17th_c._monastery_dining_table_2010_2003_gray.jpg,n02828884_4,n04379243_0,flexible,0.706212,n04379243_0,Stimuli/psy_flexible_rotation_30_objects_occ0.7_0.9s/images/train/n02828884_4/n04379243_0/img_b05_c-5_classic_series_bench-2012_17th_c._monastery_dining_table_2010_2003-3_gray.png,foreground,same as foreground,n02828884_4,n03928116_4,Stimuli/canonical view 2/img_n02828884_4_gray.jpg,Stimuli/canonical view 2/img_n03928116_4_gray.jpg,random,right,Experiments/experiment_22/388.jpg,Experiments/experiment_22/389.jpg,Experiments/experiment_22/390.jpg,Experiments/experiment_22/391.jpg,346,1,2023-09-17_09h08.23.815,Occlusion_Psychophysics,2022.1.4,Win32,60.0240096,,,right,"[""right""]",[1.0394000000356982],False,,0.0,0.0,97.0,97.0,97.0,1.0,,,,,,
,,,,,,,,,,,,,,,,,,,,,0.025,,,,,,,,,,Stimuli/psy_fixed_rotation_30_objects_occ0.7_0.9s/images/train/n03001627_9/n04405907_8/img_chair_eames_plastic_armchair_stylized_tv_2006_gray.jpg,n03001627_9,n04405907_8,fixed,0.777699,n04405907_8,Stimuli/psy_fixed_rotation_30_objects_occ0.7_0.9s/images/train/n03001627_9/n04405907_8/img_chair_eames_plastic_armchair_stylized_tv_2006-3_gray.png,foreground,same as foreground,n03001627_9,n04379243_-7,Stimuli/canonical view 2/img_n03001627_9_gray.jpg,Stimuli/canonical view 2/img_n04379243_-7_gray.jpg,random,right,Experiments/experiment_22/392.jpg,Experiments/experiment_22/393.jpg,Experiments/experiment_22/394.jpg,Experiments/experiment_22/395.jpg,346,1,2023-09-17_09h08.23.815,Occlusion_Psychophysics,2022.1.4,Win32,60.0240096,,,left,"[""left""]",[0.9503999999761845],False,,0.0,0.0,98.0,98.0,98.0,1.0,,,,,,
,,,,,,,,,,,,,,,,,,,,,0.05,,,,,,,,,,Stimuli/psy_flexible_rotation_30_objects_occ0.7_0.9s/images/train/n04405907_9/n04405907_5/img_vray_004_samsung_40_uhd_smart_tv_2011_2005_gray.jpg,n04405907_9,n04405907_5,flexible,0.745712,n02818832_0,Stimuli/psy_flexible_rotation_30_objects_occ0.7_0.9s/images/train/n04070727_3/n02818832_0/img_b05_db_apps_tech_06_02_2_composite_b03_the_sofa_and_chair_company_-_stanley_bed_2014_2005-3_gray.png,random,flexible,n04405907_9,n04405907_5,Stimuli/canonical view 2/img_n04405907_9_gray.jpg,Stimuli/canonical view 2/img_n04405907_5_gray.jpg,foreground,left,Experiments/experiment_22/396.jpg,Experiments/experiment_22/397.jpg,Experiments/experiment_22/398.jpg,Experiments/experiment_22/399.jpg,346,1,2023-09-17_09h08.23.815,Occlusion_Psychophysics,2022.1.4,Win32,60.0240096,,,right,"[""right""]",[1.2856999999880827],False,,0.0,0.0,99.0,99.0,99.0,1.0,,,,,,
,,,,,,,,,,,,,,,,,,,,,,,,,,,,,,,,,,,,,,,,,,,,,,,,,,346,1,2023-09-17_09h08.23.815,Occlusion_Psychophysics,2022.1.4,Win32,60.0240096,,,,,,,,,,,,,,,0.0,0.0,0.0,0.0,1.0
,,,,,,,,,,,,,,,,,,,,,0.05,,,,,,,,,,Stimuli/psy_flexible_rotation_30_objects_occ0.7_0.9s/images/train/n03001627_-2/n04405907_9/img_wood_chair_vray_004_2000_gray.jpg,n03001627_-2,n04405907_9,flexible,0.704156,n04405907_9,Stimuli/psy_flexible_rotation_30_objects_occ0.7_0.9s/images/train/n03001627_-2/n04405907_9/img_wood_chair_vray_004_2000-3_gray.png,foreground,same as foreground,n03001627_-2,n04405907_5,Stimuli/canonical view 2/img_n03001627_-2_gray.jpg,Stimuli/canonical view 2/img_n04405907_5_gray.jpg,random,right,Experiments/experiment_22/400.jpg,Experiments/experiment_22/401.jpg,Experiments/experiment_22/402.jpg,Experiments/experiment_22/403.jpg,346,1,2023-09-17_09h08.23.815,Occlusion_Psychophysics,2022.1.4,Win32,60.0240096,,,left,"[""left""]",[1.1322000000476464],False,,0.0,0.0,0.0,0.0,0.0,1.0,,,,,,
,,,,,,,,,,,,,,,,,,,,,0.05,,,,,,,,,,Stimuli/psy_fixed_rotation_30_objects_occ0.7_0.9s/images/train/n04405907_8/n04256520_4/img_stylized_tv_club_house_italia_nautilus_sofa_2000_gray.jpg,n04405907_8,n04256520_4,fixed,0.836616,n04256520_4,Stimuli/psy_fixed_rotation_30_objects_occ0.7_0.9s/images/train/n04405907_8/n04256520_4/img_stylized_tv_club_house_italia_nautilus_sofa_2000-3_gray.png,foreground,same as foreground,n04405907_8,n02828884_3,Stimuli/canonical view 2/img_n04405907_8_gray.jpg,Stimuli/canonical view 2/img_n02828884_3_gray.jpg,random,right,Experiments/experiment_22/404.jpg,Experiments/experiment_22/405.jpg,Experiments/experiment_22/406.jpg,Experiments/experiment_22/407.jpg,346,1,2023-09-17_09h08.23.815,Occlusion_Psychophysics,2022.1.4,Win32,60.0240096,,,left,"[""left""]",[1.2899999999999636],False,,0.0,0.0,1.0,1.0,1.0,1.0,,,,,,
,,,,,,,,,,,,,,,,,,,,,0.05,,,,,,,,,,Stimuli/psy_fixed_rotation_30_objects_occ0.7_0.9s/images/train/n04405907_9/n04405907_8/img_vray_004_stylized_tv_2007_gray.jpg,n04405907_9,n04405907_8,fixed,0.730211,n04256520_4,Stimuli/psy_fixed_rotation_30_objects_occ0.7_0.9s/images/train/n02883344_15/n04256520_4/img_microwave_box_club_house_italia_nautilus_sofa_2009-3_gray.png,random,fixed,n04405907_9,n03001627_9,Stimuli/canonical view 2/img_n04405907_9_gray.jpg,Stimuli/canonical view 2/img_n03001627_9_gray.jpg,random,left,Experiments/experiment_22/408.jpg,Experiments/experiment_22/409.jpg,Experiments/experiment_22/410.jpg,Experiments/experiment_22/411.jpg,346,1,2023-09-17_09h08.23.815,Occlusion_Psychophysics,2022.1.4,Win32,60.0240096,,,left,"[""left""]",[1.1710000000000491],False,,0.0,0.0,2.0,2.0,2.0,1.0,,,,,,
,,,,,,,,,,,,,,,,,,,,,0.05,,,,,,,,,,Stimuli/psy_flexible_rotation_30_objects_occ0.7_0.9s/images/train/n04379243_0/n04405907_5/img_17th_c._monastery_dining_table_2010_samsung_40_uhd_smart_tv_2011_2001_gray.jpg,n04379243_0,n04405907_5,flexible,0.729303,n03928116_0,Stimuli/psy_fixed_rotation_30_objects_occ0.7_0.9s/images/train/n04379243_-7/n03928116_0/img_quatre_dining_table_b02_piano_2001-3_gray.png,random,fixed,n04379243_0,n02883344_-1,Stimuli/canonical view 2/img_n04379243_0_gray.jpg,Stimuli/canonical view 2/img_n02883344_-1_gray.jpg,random,right,Experiments/experiment_22/412.jpg,Experiments/experiment_22/413.jpg,Experiments/experiment_22/414.jpg,Experiments/experiment_22/415.jpg,346,1,2023-09-17_09h08.23.815,Occlusion_Psychophysics,2022.1.4,Win32,60.0240096,,,right,"[""right""]",[0.7209000000357264],True,left,1.0,0.0,3.0,3.0,3.0,1.0,0.7386,,,,,
,,,,,,,,,,,,,,,,,,,,,0.025,,,,,,,,,,Stimuli/psy_fixed_rotation_30_objects_occ0.7_0.9s/images/train/n04379243_-7/n02933112_4/img_quatre_dining_table_buffet_2011_gray.jpg,n04379243_-7,n02933112_4,fixed,0.846625,n02933112_4,Stimuli/psy_fixed_rotation_30_objects_occ0.7_0.9s/images/train/n04379243_-7/n02933112_4/img_quatre_dining_table_buffet_2011-3_gray.png,foreground,same as foreground,n04379243_-7,n02933112_4,Stimuli/canonical view 2/img_n04379243_-7_gray.jpg,Stimuli/canonical view 2/img_n02933112_4_gray.jpg,foreground,right,Experiments/experiment_22/416.jpg,Experiments/experiment_22/417.jpg,Experiments/experiment_22/418.jpg,Experiments/experiment_22/419.jpg,346,1,2023-09-17_09h08.23.815,Occlusion_Psychophysics,2022.1.4,Win32,60.0240096,,,right,"[""left""]",[1.1258999999761272],False,,0.0,0.0,4.0,4.0,4.0,1.0,,,,,,
,,,,,,,,,,,,,,,,,,,,,0.05,,,,,,,,,,Stimuli/psy_fixed_rotation_30_objects_occ0.7_0.9s/images/train/n02883344_0/n02828884_3/img_b03_box_b04_wood_metal_park_bench_2015_gray.jpg,n02883344_0,n02828884_3,fixed,0.843312,n02883344_15,Stimuli/psy_flexible_rotation_30_objects_occ0.7_0.9s/images/train/n04405907_8/n02883344_15/img_stylized_tv_microwave_box_2007-3_gray.png,random,flexible,n02883344_0,n02828884_3,Stimuli/canonical view 2/img_n02883344_0_gray.jpg,Stimuli/canonical view 2/img_n02828884_3_gray.jpg,foreground,right,Experiments/experiment_22/420.jpg,Experiments/experiment_22/421.jpg,Experiments/experiment_22/422.jpg,Experiments/experiment_22/423.jpg,346,1,2023-09-17_09h08.23.815,Occlusion_Psychophysics,2022.1.4,Win32,60.0240096,,,left,"[""left""]",[1.4030999999641836],False,,0.0,0.0,5.0,5.0,5.0,1.0,,,,,,
,,,,,,,,,,,,,,,,,,,,,0.05,,,,,,,,,,Stimuli/psy_flexible_rotation_30_objects_occ0.7_0.9s/images/train/n04379243_-7/n02883344_15/img_quatre_dining_table_microwave_box_2005_gray.jpg,n04379243_-7,n02883344_15,flexible,0.71404,n04405907_5,Stimuli/psy_flexible_rotation_30_objects_occ0.7_0.9s/images/train/n04256520_9/n04405907_5/img_napoleon_iii_sofa_samsung_40_uhd_smart_tv_2011_2008-3_gray.png,random,flexible,n04379243_-7,n04256520_4,Stimuli/canonical view 2/img_n04379243_-7_gray.jpg,Stimuli/canonical view 2/img_n04256520_4_gray.jpg,random,right,Experiments/experiment_22/424.jpg,Experiments/experiment_22/425.jpg,Experiments/experiment_22/426.jpg,Experiments/experiment_22/427.jpg,346,1,2023-09-17_09h08.23.815,Occlusion_Psychophysics,2022.1.4,Win32,60.0240096,,,left,"[""left""]",[1.3915999999642281],False,,0.0,0.0,6.0,6.0,6.0,1.0,,,,,,
,,,,,,,,,,,,,,,,,,,,,0.05,,,,,,,,,,Stimuli/psy_fixed_rotation_30_objects_occ0.7_0.9s/images/train/n02818832_0/n04405907_8/img_b03_the_sofa_and_chair_company_-_stanley_bed_2014_stylized_tv_2009_gray.jpg,n02818832_0,n04405907_8,fixed,0.771066,n04405907_8,Stimuli/psy_fixed_rotation_30_objects_occ0.7_0.9s/images/train/n02818832_0/n04405907_8/img_b03_the_sofa_and_chair_company_-_stanley_bed_2014_stylized_tv_2009-3_gray.png,foreground,same as foreground,n02818832_0,n04379243_-7,Stimuli/canonical view 2/img_n02818832_0_gray.jpg,Stimuli/canonical view 2/img_n04379243_-7_gray.jpg,random,right,Experiments/experiment_22/428.jpg,Experiments/experiment_22/429.jpg,Experiments/experiment_22/430.jpg,Experiments/experiment_22/431.jpg,346,1,2023-09-17_09h08.23.815,Occlusion_Psychophysics,2022.1.4,Win32,60.0240096,,,left,"[""left""]",[1.3966999999880727],False,,0.0,0.0,7.0,7.0,7.0,1.0,,,,,,
,,,,,,,,,,,,,,,,,,,,,0.05,,,,,,,,,,Stimuli/psy_flexible_rotation_30_objects_occ0.7_0.9s/images/train/n03928116_4/n04405907_5/img_dp_33_b_2013__vray_samsung_40_uhd_smart_tv_2011_2002_gray.jpg,n03928116_4,n04405907_5,flexible,0.710363,n04405907_5,Stimuli/psy_flexible_rotation_30_objects_occ0.7_0.9s/images/train/n03928116_4/n04405907_5/img_dp_33_b_2013__vray_samsung_40_uhd_smart_tv_2011_2002-3_gray.png,foreground,same as foreground,n03928116_4,n04405907_5,Stimuli/canonical view 2/img_n03928116_4_gray.jpg,Stimuli/canonical view 2/img_n04405907_5_gray.jpg,foreground,left,Experiments/experiment_22/432.jpg,Experiments/experiment_22/433.jpg,Experiments/experiment_22/434.jpg,Experiments/experiment_22/435.jpg,346,1,2023-09-17_09h08.23.815,Occlusion_Psychophysics,2022.1.4,Win32,60.0240096,,,right,"[""left""]",[1.3726000000237946],False,,0.0,0.0,8.0,8.0,8.0,1.0,,,,,,
,,,,,,,,,,,,,,,,,,,,,0.05,,,,,,,,,,Stimuli/psy_flexible_rotation_30_objects_occ0.7_0.9s/images/train/n03001627_9/n04256520_4/img_chair_eames_plastic_armchair_club_house_italia_nautilus_sofa_2014_gray.jpg,n03001627_9,n04256520_4,flexible,0.757036,n04256520_4,Stimuli/psy_flexible_rotation_30_objects_occ0.7_0.9s/images/train/n03001627_9/n04256520_4/img_chair_eames_plastic_armchair_club_house_italia_nautilus_sofa_2014-3_gray.png,foreground,same as foreground,n03001627_9,n04256520_4,Stimuli/canonical view 2/img_n03001627_9_gray.jpg,Stimuli/canonical view 2/img_n04256520_4_gray.jpg,foreground,right,Experiments/experiment_22/436.jpg,Experiments/experiment_22/437.jpg,Experiments/experiment_22/438.jpg,Experiments/experiment_22/439.jpg,346,1,2023-09-17_09h08.23.815,Occlusion_Psychophysics,2022.1.4,Win32,60.0240096,,,right,"[""right""]",[0.7595000000000027],False,,0.0,0.0,9.0,9.0,9.0,1.0,,,,,,
,,,,,,,,,,,,,,,,,,,,,0.05,,,,,,,,,,Stimuli/psy_fixed_rotation_30_objects_occ0.7_0.9s/images/train/n04379243_-7/n04405907_9/img_quatre_dining_table_vray_004_2013_gray.jpg,n04379243_-7,n04405907_9,fixed,0.734444,n04405907_9,Stimuli/psy_fixed_rotation_30_objects_occ0.7_0.9s/images/train/n04379243_-7/n04405907_9/img_quatre_dining_table_vray_004_2013-3_gray.png,foreground,same as foreground,n04379243_-7,n04405907_9,Stimuli/canonical view 2/img_n04379243_-7_gray.jpg,Stimuli/canonical view 2/img_n04405907_9_gray.jpg,foreground,right,Experiments/experiment_22/440.jpg,Experiments/experiment_22/441.jpg,Experiments/experiment_22/442.jpg,Experiments/experiment_22/443.jpg,346,1,2023-09-17_09h08.23.815,Occlusion_Psychophysics,2022.1.4,Win32,60.0240096,,,right,"[""right""]",[1.5675999999642727],False,,0.0,0.0,10.0,10.0,10.0,1.0,,,,,,
,,,,,,,,,,,,,,,,,,,,,0.05,,,,,,,,,,Stimuli/psy_flexible_rotation_30_objects_occ0.7_0.9s/images/train/n03001627_9/n02933112_-18/img_chair_eames_plastic_armchair_cgaxis_models_48_26_vray_composite_2007_gray.jpg,n03001627_9,n02933112_-18,flexible,0.793787,n03001627_8,Stimuli/psy_fixed_rotation_30_objects_occ0.7_0.9s/images/train/n04070727_5/n03001627_8/img_b05_db_apps_tech_06_13_composite_chair_billiani_doll_2003-3_gray.png,random,fixed,n03001627_9,n02828884_3,Stimuli/canonical view 2/img_n03001627_9_gray.jpg,Stimuli/canonical view 2/img_n02828884_3_gray.jpg,random,left,Experiments/experiment_22/444.jpg,Experiments/experiment_22/445.jpg,Experiments/experiment_22/446.jpg,Experiments/experiment_22/447.jpg,346,1,2023-09-17_09h08.23.815,Occlusion_Psychophysics,2022.1.4,Win32,60.0240096,,,left,"[""left""]",[0.7084999999999582],False,,0.0,0.0,11.0,11.0,11.0,1.0,,,,,,
,,,,,,,,,,,,,,,,,,,,,0.05,,,,,,,,,,Stimuli/psy_flexible_rotation_30_objects_occ0.7_0.9s/images/train/n04379243_8/n04256520_5/img_glass_table_meridiani_belmondo_bench_sofa_2000_gray.jpg,n04379243_8,n04256520_5,flexible,0.751882,n02883344_15,Stimuli/psy_flexible_rotation_30_objects_occ0.7_0.9s/images/train/n03001627_9/n02883344_15/img_chair_eames_plastic_armchair_microwave_box_2005-3_gray.png,random,flexible,n04379243_8,n02828884_9,Stimuli/canonical view 2/img_n04379243_8_gray.jpg,Stimuli/canonical view 2/img_n02828884_9_gray.jpg,random,left,Experiments/experiment_22/448.jpg,Experiments/experiment_22/449.jpg,Experiments/experiment_22/450.jpg,Experiments/experiment_22/451.jpg,346,1,2023-09-17_09h08.23.815,Occlusion_Psychophysics,2022.1.4,Win32,60.0240096,,,left,"[""left""]",[0.7018000000118718],False,,0.0,0.0,12.0,12.0,12.0,1.0,,,,,,
,,,,,,,,,,,,,,,,,,,,,0.05,,,,,,,,,,Stimuli/psy_flexible_rotation_30_objects_occ0.7_0.9s/images/train/n02818832_3/n04405907_8/img_b05_ccm_contemporary_bed_max2013_stylized_tv_2010_gray.jpg,n02818832_3,n04405907_8,flexible,0.895063,n03928116_10,Stimuli/psy_fixed_rotation_30_objects_occ0.7_0.9s/images/train/n04405907_5/n03928116_10/img_samsung_40_uhd_smart_tv_2011_ydp_103_r_2012__vray_2010-3_gray.png,random,fixed,n02818832_3,n04405907_8,Stimuli/canonical view 2/img_n02818832_3_gray.jpg,Stimuli/canonical view 2/img_n04405907_8_gray.jpg,foreground,left,Experiments/experiment_22/452.jpg,Experiments/experiment_22/453.jpg,Experiments/experiment_22/454.jpg,Experiments/experiment_22/455.jpg,346,1,2023-09-17_09h08.23.815,Occlusion_Psychophysics,2022.1.4,Win32,60.0240096,,,right,"[""right""]",[1.296300000011911],False,,0.0,0.0,13.0,13.0,13.0,1.0,,,,,,
