in_color,Instructions_key.keys,Instructions_key.rt,Tutorial_instruction_key.keys,Tutorial_instruction_key.rt,Tutorial_fixation_ley.keys,Tutorial_fixation_ley.rt,Tutorial_single_img_key.keys,Tutorial_single_img_key.rt,Tutorial_intra_trial_fixation_key.keys,Tutorial_intra_trial_fixation_key.rt,Tutorial_stimulus_key.keys,Tutorial_stimulus_key.rt,Tutorial_response_key.keys,Tutorial_response_key.rt,Tutorial_attention_check_key.keys,Tutorial_attention_check_key.rt,advance_or_repeat.keys,advance_or_repeat.rt,Practice_instructions_key.keys,Practice_instructions_key.rt,intra_trial_duration,Practice_key_response.keys,Practice_key_response.rt,Practice_react_key.keys,Practice_react_key.rt,Practice_loop.thisRepN,Practice_loop.thisTrialN,Practice_loop.thisN,Practice_loop.thisIndex,Practice_loop.ran,multi_object_filepath,background_id,foreground_id,multi_object_rotation,occlusion_level,single_object_id,single_object_filepath,single_is_foreground_or_random,single_object_rotation,background_choice_id,alt_choice_id,background_option_filepath,alternative_option_filepath,alternative_is_foreground_or_random,location_of_correct_answer,multi_object_exp_filename,single_object_exp_filename,background_option_exp_filename,alternative_option_exp_filename,participant,session,date,expName,psychopyVersion,OS,frameRate,Practice_end_key.keys,Practice_end_key.rt,correct_answer,Input_selection.keys,Input_selection.rt,Was_attention_check,Attention_check.keys,Attention_check.corr,Each_session_loop.thisRepN,Each_session_loop.thisTrialN,Each_session_loop.thisN,Each_session_loop.thisIndex,Each_session_loop.ran,Attention_check.rt,Num_sessions.thisRepN,Num_sessions.thisTrialN,Num_sessions.thisN,Num_sessions.thisIndex,Num_sessions.ran
False,space,75.3939,space,6.3738,space,8.3179,space,7.1349,space,8.9537,space,19.5376,space,17.8747,space,7.1902,a,15.5505,space,5.0003,0.05,left,0.6273,a,4.9295,0.0,0.0,0.0,0.0,1.0,Stimuli/psy_fixed_rotation_30_objects_occ0.7_0.9s/images/train/n04405907_9/n03928116_4/img_vray_004_dp_33_b_2013__vray_2013_gray.jpg,n04405907_9,n03928116_4,fixed,0.771902,n03928116_4,Stimuli/psy_fixed_rotation_30_objects_occ0.7_0.9s/images/train/n04405907_9/n03928116_4/img_vray_004_dp_33_b_2013__vray_2013-3_gray.png,foreground,same as foreground,n04405907_9,n04256520_4,Stimuli/canonical view 2/img_n04405907_9_gray.jpg,Stimuli/canonical view 2/img_n04256520_4_gray.jpg,random,right,Experiments/experiment_47/1000.jpg,Experiments/experiment_47/1001.jpg,Experiments/experiment_47/1002.jpg,Experiments/experiment_47/1003.jpg,358,1,2023-04-17_17h28.55.923,Occlusion_Psychophysics,2022.1.4,Win32,59.99880002,,,,,,,,,,,,,,,,,,,
,,,,,,,,,,,,,,,,,,,,,0.025,,,,,,,,,,Stimuli/psy_fixed_rotation_30_objects_occ0.7_0.9s/images/train/n04256520_9/n02933112_4/img_napoleon_iii_sofa_buffet_2005_gray.jpg,n04256520_9,n02933112_4,fixed,0.710443,n02933112_4,Stimuli/psy_fixed_rotation_30_objects_occ0.7_0.9s/images/train/n04256520_9/n02933112_4/img_napoleon_iii_sofa_buffet_2005-3_gray.png,foreground,same as foreground,n04256520_9,n02933112_4,Stimuli/canonical view 2/img_n04256520_9_gray.jpg,Stimuli/canonical view 2/img_n02933112_4_gray.jpg,foreground,left,Experiments/experiment_47/0.jpg,Experiments/experiment_47/1.jpg,Experiments/experiment_47/2.jpg,Experiments/experiment_47/3.jpg,358,1,2023-04-17_17h28.55.923,Occlusion_Psychophysics,2022.1.4,Win32,59.99880002,a,1.1624,right,"[""left""]",[0.28750000000002274],False,,0.0,0.0,0.0,0.0,0.0,1.0,,,,,,
,,,,,,,,,,,,,,,,,,,,,0.025,,,,,,,,,,Stimuli/psy_fixed_rotation_30_objects_occ0.7_0.9s/images/train/n04405907_8/n03928116_0/img_stylized_tv_b02_piano_2006_gray.jpg,n04405907_8,n03928116_0,fixed,0.705576,n03928116_0,Stimuli/psy_fixed_rotation_30_objects_occ0.7_0.9s/images/train/n04405907_8/n03928116_0/img_stylized_tv_b02_piano_2006-3_gray.png,foreground,same as foreground,n04405907_8,n04256520_4,Stimuli/canonical view 2/img_n04405907_8_gray.jpg,Stimuli/canonical view 2/img_n04256520_4_gray.jpg,random,left,Experiments/experiment_47/4.jpg,Experiments/experiment_47/5.jpg,Experiments/experiment_47/6.jpg,Experiments/experiment_47/7.jpg,358,1,2023-04-17_17h28.55.923,Occlusion_Psychophysics,2022.1.4,Win32,59.99880002,,,right,"[""right""]",[0.6620000000000346],False,,0.0,0.0,1.0,1.0,1.0,1.0,,,,,,
,,,,,,,,,,,,,,,,,,,,,0.05,,,,,,,,,,Stimuli/psy_fixed_rotation_30_objects_occ0.7_0.9s/images/train/n03928116_4/n02818832_3/img_dp_33_b_2013__vray_b05_ccm_contemporary_bed_max2013_2015_gray.jpg,n03928116_4,n02818832_3,fixed,0.70076,n02818832_3,Stimuli/psy_fixed_rotation_30_objects_occ0.7_0.9s/images/train/n03928116_4/n02818832_3/img_dp_33_b_2013__vray_b05_ccm_contemporary_bed_max2013_2015-3_gray.png,foreground,same as foreground,n03928116_4,n02818832_3,Stimuli/canonical view 2/img_n03928116_4_gray.jpg,Stimuli/canonical view 2/img_n02818832_3_gray.jpg,foreground,right,Experiments/experiment_47/8.jpg,Experiments/experiment_47/9.jpg,Experiments/experiment_47/10.jpg,Experiments/experiment_47/11.jpg,358,1,2023-04-17_17h28.55.923,Occlusion_Psychophysics,2022.1.4,Win32,59.99880002,,,left,"[""left""]",[0.09640000000035798],False,,0.0,0.0,2.0,2.0,2.0,1.0,,,,,,
,,,,,,,,,,,,,,,,,,,,,0.05,,,,,,,,,,Stimuli/psy_fixed_rotation_30_objects_occ0.7_0.9s/images/train/n02933112_4/n02883344_0/img_buffet_b03_box_2003_gray.jpg,n02933112_4,n02883344_0,fixed,0.741815,n04405907_8,Stimuli/psy_fixed_rotation_30_objects_occ0.7_0.9s/images/train/n02818832_3/n04405907_8/img_b05_ccm_contemporary_bed_max2013_stylized_tv_2003-3_gray.png,random,fixed,n02933112_4,n04405907_9,Stimuli/canonical view 2/img_n02933112_4_gray.jpg,Stimuli/canonical view 2/img_n04405907_9_gray.jpg,random,left,Experiments/experiment_47/12.jpg,Experiments/experiment_47/13.jpg,Experiments/experiment_47/14.jpg,Experiments/experiment_47/15.jpg,358,1,2023-04-17_17h28.55.923,Occlusion_Psychophysics,2022.1.4,Win32,59.99880002,,,left,"[""right""]",[0.5620000000000118],False,,0.0,0.0,3.0,3.0,3.0,1.0,,,,,,
,,,,,,,,,,,,,,,,,,,,,0.025,,,,,,,,,,Stimuli/psy_fixed_rotation_30_objects_occ0.7_0.9s/images/train/n02933112_4/n02933112_-2/img_buffet_sink_base_white_wood_2007_gray.jpg,n02933112_4,n02933112_-2,fixed,0.704655,n02933112_-2,Stimuli/psy_fixed_rotation_30_objects_occ0.7_0.9s/images/train/n02933112_4/n02933112_-2/img_buffet_sink_base_white_wood_2007-3_gray.png,foreground,same as foreground,n02933112_4,n02933112_-2,Stimuli/canonical view 2/img_n02933112_4_gray.jpg,Stimuli/canonical view 2/img_n02933112_-2_gray.jpg,foreground,left,Experiments/experiment_47/16.jpg,Experiments/experiment_47/17.jpg,Experiments/experiment_47/18.jpg,Experiments/experiment_47/19.jpg,358,1,2023-04-17_17h28.55.923,Occlusion_Psychophysics,2022.1.4,Win32,59.99880002,,,left,"[""right""]",[0.17659999999966658],False,,0.0,0.0,4.0,4.0,4.0,1.0,,,,,,
,,,,,,,,,,,,,,,,,,,,,0.05,,,,,,,,,,Stimuli/psy_flexible_rotation_30_objects_occ0.7_0.9s/images/train/n02883344_15/n04379243_-7/img_microwave_box_quatre_dining_table_2003_gray.jpg,n02883344_15,n04379243_-7,flexible,0.707243,n02818832_9,Stimuli/psy_flexible_rotation_30_objects_occ0.7_0.9s/images/train/n04405907_8/n02818832_9/img_stylized_tv_bed01_blue_2006-3_gray.png,random,flexible,n02883344_15,n02883344_-1,Stimuli/canonical view 2/img_n02883344_15_gray.jpg,Stimuli/canonical view 2/img_n02883344_-1_gray.jpg,random,right,Experiments/experiment_47/20.jpg,Experiments/experiment_47/21.jpg,Experiments/experiment_47/22.jpg,Experiments/experiment_47/23.jpg,358,1,2023-04-17_17h28.55.923,Occlusion_Psychophysics,2022.1.4,Win32,59.99880002,,,right,"[""left""]",[0.12649999999996453],False,,0.0,0.0,5.0,5.0,5.0,1.0,,,,,,
,,,,,,,,,,,,,,,,,,,,,0.025,,,,,,,,,,Stimuli/psy_flexible_rotation_30_objects_occ0.7_0.9s/images/train/n04379243_-7/n04405907_5/img_quatre_dining_table_samsung_40_uhd_smart_tv_2011_2012_gray.jpg,n04379243_-7,n04405907_5,flexible,0.703503,n04405907_5,Stimuli/psy_flexible_rotation_30_objects_occ0.7_0.9s/images/train/n04379243_-7/n04405907_5/img_quatre_dining_table_samsung_40_uhd_smart_tv_2011_2012-3_gray.png,foreground,same as foreground,n04379243_-7,n04405907_5,Stimuli/canonical view 2/img_n04379243_-7_gray.jpg,Stimuli/canonical view 2/img_n04405907_5_gray.jpg,foreground,left,Experiments/experiment_47/24.jpg,Experiments/experiment_47/25.jpg,Experiments/experiment_47/26.jpg,Experiments/experiment_47/27.jpg,358,1,2023-04-17_17h28.55.923,Occlusion_Psychophysics,2022.1.4,Win32,59.99880002,,,left,"[""right""]",[0.27119999999922584],False,,0.0,0.0,6.0,6.0,6.0,1.0,,,,,,
,,,,,,,,,,,,,,,,,,,,,0.025,,,,,,,,,,Stimuli/psy_flexible_rotation_30_objects_occ0.7_0.9s/images/train/n02818832_0/n02818832_9/img_b03_the_sofa_and_chair_company_-_stanley_bed_2014_bed01_blue_2011_gray.jpg,n02818832_0,n02818832_9,flexible,0.861983,n02818832_9,Stimuli/psy_flexible_rotation_30_objects_occ0.7_0.9s/images/train/n02818832_0/n02818832_9/img_b03_the_sofa_and_chair_company_-_stanley_bed_2014_bed01_blue_2011-3_gray.png,foreground,same as foreground,n02818832_0,n02818832_9,Stimuli/canonical view 2/img_n02818832_0_gray.jpg,Stimuli/canonical view 2/img_n02818832_9_gray.jpg,foreground,left,Experiments/experiment_47/28.jpg,Experiments/experiment_47/29.jpg,Experiments/experiment_47/30.jpg,Experiments/experiment_47/31.jpg,358,1,2023-04-17_17h28.55.923,Occlusion_Psychophysics,2022.1.4,Win32,59.99880002,,,right,"[""right""]",[0.28059999999959473],False,,0.0,0.0,7.0,7.0,7.0,1.0,,,,,,
,,,,,,,,,,,,,,,,,,,,,0.025,,,,,,,,,,Stimuli/psy_flexible_rotation_30_objects_occ0.7_0.9s/images/train/n03928116_4/n04405907_5/img_dp_33_b_2013__vray_samsung_40_uhd_smart_tv_2011_2014_gray.jpg,n03928116_4,n04405907_5,flexible,0.711809,n04405907_5,Stimuli/psy_flexible_rotation_30_objects_occ0.7_0.9s/images/train/n03928116_4/n04405907_5/img_dp_33_b_2013__vray_samsung_40_uhd_smart_tv_2011_2014-3_gray.png,foreground,same as foreground,n03928116_4,n04405907_5,Stimuli/canonical view 2/img_n03928116_4_gray.jpg,Stimuli/canonical view 2/img_n04405907_5_gray.jpg,foreground,right,Experiments/experiment_47/32.jpg,Experiments/experiment_47/33.jpg,Experiments/experiment_47/34.jpg,Experiments/experiment_47/35.jpg,358,1,2023-04-17_17h28.55.923,Occlusion_Psychophysics,2022.1.4,Win32,59.99880002,,,left,"[""left""]",[0.2265999999996211],False,,0.0,0.0,8.0,8.0,8.0,1.0,,,,,,
,,,,,,,,,,,,,,,,,,,,,0.025,,,,,,,,,,Stimuli/psy_flexible_rotation_30_objects_occ0.7_0.9s/images/train/n02883344_15/n04379243_-7/img_microwave_box_quatre_dining_table_2004_gray.jpg,n02883344_15,n04379243_-7,flexible,0.719089,n04379243_0,Stimuli/psy_fixed_rotation_30_objects_occ0.7_0.9s/images/train/n04405907_8/n04379243_0/img_stylized_tv_17th_c._monastery_dining_table_2010_2006-3_gray.png,random,fixed,n02883344_15,n04256520_9,Stimuli/canonical view 2/img_n02883344_15_gray.jpg,Stimuli/canonical view 2/img_n04256520_9_gray.jpg,random,right,Experiments/experiment_47/36.jpg,Experiments/experiment_47/37.jpg,Experiments/experiment_47/38.jpg,Experiments/experiment_47/39.jpg,358,1,2023-04-17_17h28.55.923,Occlusion_Psychophysics,2022.1.4,Win32,59.99880002,,,right,"[""right""]",[0.44650000000001455],False,,0.0,0.0,9.0,9.0,9.0,1.0,,,,,,
,,,,,,,,,,,,,,,,,,,,,0.05,,,,,,,,,,Stimuli/psy_flexible_rotation_30_objects_occ0.7_0.9s/images/train/n04379243_-7/n04405907_5/img_quatre_dining_table_samsung_40_uhd_smart_tv_2011_2002_gray.jpg,n04379243_-7,n04405907_5,flexible,0.827353,n04405907_5,Stimuli/psy_flexible_rotation_30_objects_occ0.7_0.9s/images/train/n04379243_-7/n04405907_5/img_quatre_dining_table_samsung_40_uhd_smart_tv_2011_2002-3_gray.png,foreground,same as foreground,n04379243_-7,n02818832_9,Stimuli/canonical view 2/img_n04379243_-7_gray.jpg,Stimuli/canonical view 2/img_n02818832_9_gray.jpg,random,right,Experiments/experiment_47/40.jpg,Experiments/experiment_47/41.jpg,Experiments/experiment_47/42.jpg,Experiments/experiment_47/43.jpg,358,1,2023-04-17_17h28.55.923,Occlusion_Psychophysics,2022.1.4,Win32,59.99880002,,,right,"[""right""]",[0.19399999999995998],False,,0.0,0.0,10.0,10.0,10.0,1.0,,,,,,
,,,,,,,,,,,,,,,,,,,,,0.025,,,,,,,,,,Stimuli/psy_flexible_rotation_30_objects_occ0.7_0.9s/images/train/n04256520_9/n02933112_4/img_napoleon_iii_sofa_buffet_2002_gray.jpg,n04256520_9,n02933112_4,flexible,0.77584,n02933112_4,Stimuli/psy_flexible_rotation_30_objects_occ0.7_0.9s/images/train/n04256520_9/n02933112_4/img_napoleon_iii_sofa_buffet_2002-3_gray.png,foreground,same as foreground,n04256520_9,n02933112_4,Stimuli/canonical view 2/img_n04256520_9_gray.jpg,Stimuli/canonical view 2/img_n02933112_4_gray.jpg,foreground,right,Experiments/experiment_47/44.jpg,Experiments/experiment_47/45.jpg,Experiments/experiment_47/46.jpg,Experiments/experiment_47/47.jpg,358,1,2023-04-17_17h28.55.923,Occlusion_Psychophysics,2022.1.4,Win32,59.99880002,,,left,"[""left""]",[0.07939999999939573],False,,0.0,0.0,11.0,11.0,11.0,1.0,,,,,,
,,,,,,,,,,,,,,,,,,,,,0.025,,,,,,,,,,Stimuli/psy_fixed_rotation_30_objects_occ0.7_0.9s/images/train/n02883344_-1/n04405907_8/img_woven_box_stylized_tv_2015_gray.jpg,n02883344_-1,n04405907_8,fixed,0.750736,n03001627_8,Stimuli/psy_fixed_rotation_30_objects_occ0.7_0.9s/images/train/n03928116_0/n03001627_8/img_b02_piano_chair_billiani_doll_2004-3_gray.png,random,fixed,n02883344_-1,n02933112_4,Stimuli/canonical view 2/img_n02883344_-1_gray.jpg,Stimuli/canonical view 2/img_n02933112_4_gray.jpg,random,right,Experiments/experiment_47/48.jpg,Experiments/experiment_47/49.jpg,Experiments/experiment_47/50.jpg,Experiments/experiment_47/51.jpg,358,1,2023-04-17_17h28.55.923,Occlusion_Psychophysics,2022.1.4,Win32,59.99880002,,,right,"[""left""]",[0.46550000000002],False,,0.0,0.0,12.0,12.0,12.0,1.0,,,,,,
,,,,,,,,,,,,,,,,,,,,,0.025,,,,,,,,,,Stimuli/psy_flexible_rotation_30_objects_occ0.7_0.9s/images/train/n02883344_-1/n04405907_8/img_woven_box_stylized_tv_2004_gray.jpg,n02883344_-1,n04405907_8,flexible,0.755102,n04405907_8,Stimuli/psy_flexible_rotation_30_objects_occ0.7_0.9s/images/train/n02883344_-1/n04405907_8/img_woven_box_stylized_tv_2004-3_gray.png,foreground,same as foreground,n02883344_-1,n04405907_8,Stimuli/canonical view 2/img_n02883344_-1_gray.jpg,Stimuli/canonical view 2/img_n04405907_8_gray.jpg,foreground,right,Experiments/experiment_47/52.jpg,Experiments/experiment_47/53.jpg,Experiments/experiment_47/54.jpg,Experiments/experiment_47/55.jpg,358,1,2023-04-17_17h28.55.923,Occlusion_Psychophysics,2022.1.4,Win32,59.99880002,,,right,"[""right""]",[0.08810000000062246],False,,0.0,0.0,13.0,13.0,13.0,1.0,,,,,,
,,,,,,,,,,,,,,,,,,,,,0.05,,,,,,,,,,Stimuli/psy_flexible_rotation_30_objects_occ0.7_0.9s/images/train/n02828884_3/n02818832_0/img_b04_wood_metal_park_bench_b03_the_sofa_and_chair_company_-_stanley_bed_2014_2001_gray.jpg,n02828884_3,n02818832_0,flexible,0.747366,n02818832_0,Stimuli/psy_flexible_rotation_30_objects_occ0.7_0.9s/images/train/n02828884_3/n02818832_0/img_b04_wood_metal_park_bench_b03_the_sofa_and_chair_company_-_stanley_bed_2014_2001-3_gray.png,foreground,same as foreground,n02828884_3,n02818832_0,Stimuli/canonical view 2/img_n02828884_3_gray.jpg,Stimuli/canonical view 2/img_n02818832_0_gray.jpg,foreground,left,Experiments/experiment_47/56.jpg,Experiments/experiment_47/57.jpg,Experiments/experiment_47/58.jpg,Experiments/experiment_47/59.jpg,358,1,2023-04-17_17h28.55.923,Occlusion_Psychophysics,2022.1.4,Win32,59.99880002,,,right,"[""right""]",[0.038100000000554246],False,,0.0,0.0,14.0,14.0,14.0,1.0,,,,,,
,,,,,,,,,,,,,,,,,,,,,0.05,,,,,,,,,,Stimuli/psy_flexible_rotation_30_objects_occ0.7_0.9s/images/train/n02933112_-2/n02818832_9/img_sink_base_white_wood_bed01_blue_2013_gray.jpg,n02933112_-2,n02818832_9,flexible,0.747912,n02818832_9,Stimuli/psy_flexible_rotation_30_objects_occ0.7_0.9s/images/train/n02933112_-2/n02818832_9/img_sink_base_white_wood_bed01_blue_2013-3_gray.png,foreground,same as foreground,n02933112_-2,n02818832_9,Stimuli/canonical view 2/img_n02933112_-2_gray.jpg,Stimuli/canonical view 2/img_n02818832_9_gray.jpg,foreground,left,Experiments/experiment_47/60.jpg,Experiments/experiment_47/61.jpg,Experiments/experiment_47/62.jpg,Experiments/experiment_47/63.jpg,358,1,2023-04-17_17h28.55.923,Occlusion_Psychophysics,2022.1.4,Win32,59.99880002,,,left,"[""left""]",[0.08869999999922129],False,,0.0,0.0,15.0,15.0,15.0,1.0,,,,,,
,,,,,,,,,,,,,,,,,,,,,0.05,,,,,,,,,,Stimuli/psy_flexible_rotation_30_objects_occ0.7_0.9s/images/train/n04379243_-7/n02828884_3/img_quatre_dining_table_b04_wood_metal_park_bench_2004_gray.jpg,n04379243_-7,n02828884_3,flexible,0.781559,n04405907_8,Stimuli/psy_fixed_rotation_30_objects_occ0.7_0.9s/images/train/n03001627_9/n04405907_8/img_chair_eames_plastic_armchair_stylized_tv_2010-3_gray.png,random,fixed,n04379243_-7,n02828884_3,Stimuli/canonical view 2/img_n04379243_-7_gray.jpg,Stimuli/canonical view 2/img_n02828884_3_gray.jpg,foreground,right,Experiments/experiment_47/64.jpg,Experiments/experiment_47/65.jpg,Experiments/experiment_47/66.jpg,Experiments/experiment_47/67.jpg,358,1,2023-04-17_17h28.55.923,Occlusion_Psychophysics,2022.1.4,Win32,59.99880002,,,right,"[""right""]",[0.05809999999974025],True,left,1.0,0.0,16.0,16.0,16.0,1.0,0.8843,,,,,
,,,,,,,,,,,,,,,,,,,,,0.05,,,,,,,,,,Stimuli/psy_flexible_rotation_30_objects_occ0.7_0.9s/images/train/n02818832_0/n02818832_3/img_b03_the_sofa_and_chair_company_-_stanley_bed_2014_b05_ccm_contemporary_bed_max2013_2011_gray.jpg,n02818832_0,n02818832_3,flexible,0.863443,n04379243_0,Stimuli/psy_fixed_rotation_30_objects_occ0.7_0.9s/images/train/n02818832_0/n04379243_0/img_b03_the_sofa_and_chair_company_-_stanley_bed_2014_17th_c._monastery_dining_table_2010_2012-3_gray.png,random,fixed,n02818832_0,n02818832_3,Stimuli/canonical view 2/img_n02818832_0_gray.jpg,Stimuli/canonical view 2/img_n02818832_3_gray.jpg,foreground,left,Experiments/experiment_47/68.jpg,Experiments/experiment_47/69.jpg,Experiments/experiment_47/70.jpg,Experiments/experiment_47/71.jpg,358,1,2023-04-17_17h28.55.923,Occlusion_Psychophysics,2022.1.4,Win32,59.99880002,,,left,"[""left""]",[0.8733999999994921],False,,0.0,0.0,17.0,17.0,17.0,1.0,,,,,,
,,,,,,,,,,,,,,,,,,,,,0.025,,,,,,,,,,Stimuli/psy_flexible_rotation_30_objects_occ0.7_0.9s/images/train/n02933112_-2/n02818832_0/img_sink_base_white_wood_b03_the_sofa_and_chair_company_-_stanley_bed_2014_2006_gray.jpg,n02933112_-2,n02818832_0,flexible,0.724666,n02883344_15,Stimuli/psy_fixed_rotation_30_objects_occ0.7_0.9s/images/train/n02933112_4/n02883344_15/img_buffet_microwave_box_2004-3_gray.png,random,fixed,n02933112_-2,n02828884_9,Stimuli/canonical view 2/img_n02933112_-2_gray.jpg,Stimuli/canonical view 2/img_n02828884_9_gray.jpg,random,right,Experiments/experiment_47/72.jpg,Experiments/experiment_47/73.jpg,Experiments/experiment_47/74.jpg,Experiments/experiment_47/75.jpg,358,1,2023-04-17_17h28.55.923,Occlusion_Psychophysics,2022.1.4,Win32,59.99880002,,,left,"[""left""]",[0.2715999999995802],True,right,1.0,0.0,18.0,18.0,18.0,1.0,0.7009,,,,,
,,,,,,,,,,,,,,,,,,,,,0.05,,,,,,,,,,Stimuli/psy_flexible_rotation_30_objects_occ0.7_0.9s/images/train/n02818832_3/n04379243_0/img_b05_ccm_contemporary_bed_max2013_17th_c._monastery_dining_table_2010_2005_gray.jpg,n02818832_3,n04379243_0,flexible,0.770909,n02818832_9,Stimuli/psy_flexible_rotation_30_objects_occ0.7_0.9s/images/train/n04256520_4/n02818832_9/img_club_house_italia_nautilus_sofa_bed01_blue_2004-3_gray.png,random,flexible,n02818832_3,n04379243_0,Stimuli/canonical view 2/img_n02818832_3_gray.jpg,Stimuli/canonical view 2/img_n04379243_0_gray.jpg,foreground,left,Experiments/experiment_47/76.jpg,Experiments/experiment_47/77.jpg,Experiments/experiment_47/78.jpg,Experiments/experiment_47/79.jpg,358,1,2023-04-17_17h28.55.923,Occlusion_Psychophysics,2022.1.4,Win32,59.99880002,,,right,"[""left""]",[0.17170000000021446],False,,0.0,0.0,19.0,19.0,19.0,1.0,,,,,,
,,,,,,,,,,,,,,,,,,,,,0.025,,,,,,,,,,Stimuli/psy_fixed_rotation_30_objects_occ0.7_0.9s/images/train/n02828884_3/n02883344_-1/img_b04_wood_metal_park_bench_woven_box_2009_gray.jpg,n02828884_3,n02883344_-1,fixed,0.888548,n02883344_-1,Stimuli/psy_fixed_rotation_30_objects_occ0.7_0.9s/images/train/n02828884_3/n02883344_-1/img_b04_wood_metal_park_bench_woven_box_2009-3_gray.png,foreground,same as foreground,n02828884_3,n02883344_-1,Stimuli/canonical view 2/img_n02828884_3_gray.jpg,Stimuli/canonical view 2/img_n02883344_-1_gray.jpg,foreground,left,Experiments/experiment_47/80.jpg,Experiments/experiment_47/81.jpg,Experiments/experiment_47/82.jpg,Experiments/experiment_47/83.jpg,358,1,2023-04-17_17h28.55.923,Occlusion_Psychophysics,2022.1.4,Win32,59.99880002,,,right,"[""left""]",[0.19870000000025811],True,right,1.0,0.0,20.0,20.0,20.0,1.0,1.4831,,,,,
,,,,,,,,,,,,,,,,,,,,,0.05,,,,,,,,,,Stimuli/psy_fixed_rotation_30_objects_occ0.7_0.9s/images/train/n03928116_0/n02883344_0/img_b02_piano_b03_box_2011_gray.jpg,n03928116_0,n02883344_0,fixed,0.746715,n02883344_0,Stimuli/psy_fixed_rotation_30_objects_occ0.7_0.9s/images/train/n03928116_0/n02883344_0/img_b02_piano_b03_box_2011-3_gray.png,foreground,same as foreground,n03928116_0,n03928116_10,Stimuli/canonical view 2/img_n03928116_0_gray.jpg,Stimuli/canonical view 2/img_n03928116_10_gray.jpg,random,left,Experiments/experiment_47/84.jpg,Experiments/experiment_47/85.jpg,Experiments/experiment_47/86.jpg,Experiments/experiment_47/87.jpg,358,1,2023-04-17_17h28.55.923,Occlusion_Psychophysics,2022.1.4,Win32,59.99880002,,,right,"[""left""]",[0.5049999999999955],False,,0.0,0.0,21.0,21.0,21.0,1.0,,,,,,
,,,,,,,,,,,,,,,,,,,,,0.025,,,,,,,,,,Stimuli/psy_flexible_rotation_30_objects_occ0.7_0.9s/images/train/n02933112_-2/n04256520_4/img_sink_base_white_wood_club_house_italia_nautilus_sofa_2009_gray.jpg,n02933112_-2,n04256520_4,flexible,0.711529,n04256520_4,Stimuli/psy_flexible_rotation_30_objects_occ0.7_0.9s/images/train/n02933112_-2/n04256520_4/img_sink_base_white_wood_club_house_italia_nautilus_sofa_2009-3_gray.png,foreground,same as foreground,n02933112_-2,n03001627_8,Stimuli/canonical view 2/img_n02933112_-2_gray.jpg,Stimuli/canonical view 2/img_n03001627_8_gray.jpg,random,right,Experiments/experiment_47/88.jpg,Experiments/experiment_47/89.jpg,Experiments/experiment_47/90.jpg,Experiments/experiment_47/91.jpg,358,1,2023-04-17_17h28.55.923,Occlusion_Psychophysics,2022.1.4,Win32,59.99880002,,,right,"[""left""]",[0.22160000000064883],True,right,1.0,0.0,22.0,22.0,22.0,1.0,1.0351,,,,,
,,,,,,,,,,,,,,,,,,,,,0.05,,,,,,,,,,Stimuli/psy_flexible_rotation_30_objects_occ0.7_0.9s/images/train/n03001627_8/n03001627_9/img_chair_billiani_doll_chair_eames_plastic_armchair_2001_gray.jpg,n03001627_8,n03001627_9,flexible,0.874161,n03001627_9,Stimuli/psy_flexible_rotation_30_objects_occ0.7_0.9s/images/train/n03001627_8/n03001627_9/img_chair_billiani_doll_chair_eames_plastic_armchair_2001-3_gray.png,foreground,same as foreground,n03001627_8,n03928116_4,Stimuli/canonical view 2/img_n03001627_8_gray.jpg,Stimuli/canonical view 2/img_n03928116_4_gray.jpg,random,right,Experiments/experiment_47/92.jpg,Experiments/experiment_47/93.jpg,Experiments/experiment_47/94.jpg,Experiments/experiment_47/95.jpg,358,1,2023-04-17_17h28.55.923,Occlusion_Psychophysics,2022.1.4,Win32,59.99880002,,,left,"[""left""]",[0.12259999999957927],False,,0.0,0.0,23.0,23.0,23.0,1.0,,,,,,
,,,,,,,,,,,,,,,,,,,,,0.05,,,,,,,,,,Stimuli/psy_flexible_rotation_30_objects_occ0.7_0.9s/images/train/n04405907_8/n04405907_5/img_stylized_tv_samsung_40_uhd_smart_tv_2011_2013_gray.jpg,n04405907_8,n04405907_5,flexible,0.73974,n04405907_5,Stimuli/psy_flexible_rotation_30_objects_occ0.7_0.9s/images/train/n04405907_8/n04405907_5/img_stylized_tv_samsung_40_uhd_smart_tv_2011_2013-3_gray.png,foreground,same as foreground,n04405907_8,n02933112_-18,Stimuli/canonical view 2/img_n04405907_8_gray.jpg,Stimuli/canonical view 2/img_n02933112_-18_gray.jpg,random,left,Experiments/experiment_47/96.jpg,Experiments/experiment_47/97.jpg,Experiments/experiment_47/98.jpg,Experiments/experiment_47/99.jpg,358,1,2023-04-17_17h28.55.923,Occlusion_Psychophysics,2022.1.4,Win32,59.99880002,,,left,"[""left""]",[0.604799999999841],False,,0.0,0.0,24.0,24.0,24.0,1.0,,,,,,
,,,,,,,,,,,,,,,,,,,,,0.025,,,,,,,,,,Stimuli/psy_fixed_rotation_30_objects_occ0.7_0.9s/images/train/n02933112_4/n02933112_-2/img_buffet_sink_base_white_wood_2010_gray.jpg,n02933112_4,n02933112_-2,fixed,0.892575,n04379243_0,Stimuli/psy_flexible_rotation_30_objects_occ0.7_0.9s/images/train/n04256520_9/n04379243_0/img_napoleon_iii_sofa_17th_c._monastery_dining_table_2010_2015-3_gray.png,random,flexible,n02933112_4,n04256520_9,Stimuli/canonical view 2/img_n02933112_4_gray.jpg,Stimuli/canonical view 2/img_n04256520_9_gray.jpg,random,left,Experiments/experiment_47/100.jpg,Experiments/experiment_47/101.jpg,Experiments/experiment_47/102.jpg,Experiments/experiment_47/103.jpg,358,1,2023-04-17_17h28.55.923,Occlusion_Psychophysics,2022.1.4,Win32,59.99880002,,,right,"[""right""]",[0.39109999999959655],False,,0.0,0.0,25.0,25.0,25.0,1.0,,,,,,
,,,,,,,,,,,,,,,,,,,,,0.05,,,,,,,,,,Stimuli/psy_flexible_rotation_30_objects_occ0.7_0.9s/images/train/n04379243_-7/n04405907_9/img_quatre_dining_table_vray_004_2005_gray.jpg,n04379243_-7,n04405907_9,flexible,0.756232,n02883344_15,Stimuli/psy_flexible_rotation_30_objects_occ0.7_0.9s/images/train/n04070727_0/n02883344_15/img_b03_ka90ivi20r_2013__vray_microwave_box_2011-3_gray.png,random,flexible,n04379243_-7,n04405907_9,Stimuli/canonical view 2/img_n04379243_-7_gray.jpg,Stimuli/canonical view 2/img_n04405907_9_gray.jpg,foreground,left,Experiments/experiment_47/104.jpg,Experiments/experiment_47/105.jpg,Experiments/experiment_47/106.jpg,Experiments/experiment_47/107.jpg,358,1,2023-04-17_17h28.55.923,Occlusion_Psychophysics,2022.1.4,Win32,59.99880002,,,left,"[""right""]",[0.6214999999999691],False,,0.0,0.0,26.0,26.0,26.0,1.0,,,,,,
,,,,,,,,,,,,,,,,,,,,,0.025,,,,,,,,,,Stimuli/psy_flexible_rotation_30_objects_occ0.7_0.9s/images/train/n02883344_-1/n02818832_0/img_woven_box_b03_the_sofa_and_chair_company_-_stanley_bed_2014_2002_gray.jpg,n02883344_-1,n02818832_0,flexible,0.751098,n04379243_0,Stimuli/psy_flexible_rotation_30_objects_occ0.7_0.9s/images/train/n02933112_-2/n04379243_0/img_sink_base_white_wood_17th_c._monastery_dining_table_2010_2006-3_gray.png,random,flexible,n02883344_-1,n02818832_3,Stimuli/canonical view 2/img_n02883344_-1_gray.jpg,Stimuli/canonical view 2/img_n02818832_3_gray.jpg,random,left,Experiments/experiment_47/108.jpg,Experiments/experiment_47/109.jpg,Experiments/experiment_47/110.jpg,Experiments/experiment_47/111.jpg,358,1,2023-04-17_17h28.55.923,Occlusion_Psychophysics,2022.1.4,Win32,59.99880002,,,right,"[""left""]",[0.5045999999996411],False,,0.0,0.0,27.0,27.0,27.0,1.0,,,,,,
,,,,,,,,,,,,,,,,,,,,,0.05,,,,,,,,,,Stimuli/psy_fixed_rotation_30_objects_occ0.7_0.9s/images/train/n04379243_-7/n02818832_0/img_quatre_dining_table_b03_the_sofa_and_chair_company_-_stanley_bed_2014_2010_gray.jpg,n04379243_-7,n02818832_0,fixed,0.72417,n02818832_0,Stimuli/psy_fixed_rotation_30_objects_occ0.7_0.9s/images/train/n04379243_-7/n02818832_0/img_quatre_dining_table_b03_the_sofa_and_chair_company_-_stanley_bed_2014_2010-3_gray.png,foreground,same as foreground,n04379243_-7,n02818832_0,Stimuli/canonical view 2/img_n04379243_-7_gray.jpg,Stimuli/canonical view 2/img_n02818832_0_gray.jpg,foreground,right,Experiments/experiment_47/112.jpg,Experiments/experiment_47/113.jpg,Experiments/experiment_47/114.jpg,Experiments/experiment_47/115.jpg,358,1,2023-04-17_17h28.55.923,Occlusion_Psychophysics,2022.1.4,Win32,59.99880002,,,right,"[""left""]",[0.5055999999996175],False,,0.0,0.0,28.0,28.0,28.0,1.0,,,,,,
,,,,,,,,,,,,,,,,,,,,,0.025,,,,,,,,,,Stimuli/psy_fixed_rotation_30_objects_occ0.7_0.9s/images/train/n02828884_9/n02933112_-2/img_cr-96_bench_sink_base_white_wood_2005_gray.jpg,n02828884_9,n02933112_-2,fixed,0.717976,n04405907_9,Stimuli/psy_flexible_rotation_30_objects_occ0.7_0.9s/images/train/n04256520_5/n04405907_9/img_meridiani_belmondo_bench_sofa_vray_004_2005-3_gray.png,random,flexible,n02828884_9,n03928116_4,Stimuli/canonical view 2/img_n02828884_9_gray.jpg,Stimuli/canonical view 2/img_n03928116_4_gray.jpg,random,left,Experiments/experiment_47/116.jpg,Experiments/experiment_47/117.jpg,Experiments/experiment_47/118.jpg,Experiments/experiment_47/119.jpg,358,1,2023-04-17_17h28.55.923,Occlusion_Psychophysics,2022.1.4,Win32,59.99880002,,,left,"[""right""]",[0.5714000000003807],False,,0.0,0.0,29.0,29.0,29.0,1.0,,,,,,
,,,,,,,,,,,,,,,,,,,,,0.05,,,,,,,,,,Stimuli/psy_flexible_rotation_30_objects_occ0.7_0.9s/images/train/n03001627_9/n04405907_8/img_chair_eames_plastic_armchair_stylized_tv_2000_gray.jpg,n03001627_9,n04405907_8,flexible,0.870124,n02933112_-18,Stimuli/psy_flexible_rotation_30_objects_occ0.7_0.9s/images/train/n04379243_8/n02933112_-18/img_glass_table_cgaxis_models_48_26_vray_composite_2000-3_gray.png,random,flexible,n03001627_9,n04405907_8,Stimuli/canonical view 2/img_n03001627_9_gray.jpg,Stimuli/canonical view 2/img_n04405907_8_gray.jpg,foreground,left,Experiments/experiment_47/120.jpg,Experiments/experiment_47/121.jpg,Experiments/experiment_47/122.jpg,Experiments/experiment_47/123.jpg,358,1,2023-04-17_17h28.55.923,Occlusion_Psychophysics,2022.1.4,Win32,59.99880002,,,right,"[""left""]",[0.5880999999995993],False,,0.0,0.0,30.0,30.0,30.0,1.0,,,,,,
,,,,,,,,,,,,,,,,,,,,,0.025,,,,,,,,,,Stimuli/psy_flexible_rotation_30_objects_occ0.7_0.9s/images/train/n04256520_5/n02883344_-1/img_meridiani_belmondo_bench_sofa_woven_box_2008_gray.jpg,n04256520_5,n02883344_-1,flexible,0.819821,n02883344_-1,Stimuli/psy_flexible_rotation_30_objects_occ0.7_0.9s/images/train/n04256520_5/n02883344_-1/img_meridiani_belmondo_bench_sofa_woven_box_2008-3_gray.png,foreground,same as foreground,n04256520_5,n04405907_5,Stimuli/canonical view 2/img_n04256520_5_gray.jpg,Stimuli/canonical view 2/img_n04405907_5_gray.jpg,random,left,Experiments/experiment_47/124.jpg,Experiments/experiment_47/125.jpg,Experiments/experiment_47/126.jpg,Experiments/experiment_47/127.jpg,358,1,2023-04-17_17h28.55.923,Occlusion_Psychophysics,2022.1.4,Win32,59.99880002,,,right,"[""left""]",[0.5046000000005506],False,,0.0,0.0,31.0,31.0,31.0,1.0,,,,,,
,,,,,,,,,,,,,,,,,,,,,0.05,,,,,,,,,,Stimuli/psy_flexible_rotation_30_objects_occ0.7_0.9s/images/train/n04256520_4/n03928116_10/img_club_house_italia_nautilus_sofa_ydp_103_r_2012__vray_2000_gray.jpg,n04256520_4,n03928116_10,flexible,0.87756,n02933112_-2,Stimuli/psy_flexible_rotation_30_objects_occ0.7_0.9s/images/train/n02818832_9/n02933112_-2/img_bed01_blue_sink_base_white_wood_2011-3_gray.png,random,flexible,n04256520_4,n03928116_10,Stimuli/canonical view 2/img_n04256520_4_gray.jpg,Stimuli/canonical view 2/img_n03928116_10_gray.jpg,foreground,left,Experiments/experiment_47/128.jpg,Experiments/experiment_47/129.jpg,Experiments/experiment_47/130.jpg,Experiments/experiment_47/131.jpg,358,1,2023-04-17_17h28.55.923,Occlusion_Psychophysics,2022.1.4,Win32,59.99880002,,,left,"[""right""]",[0.5047000000001844],False,,0.0,0.0,32.0,32.0,32.0,1.0,,,,,,
,,,,,,,,,,,,,,,,,,,,,0.025,,,,,,,,,,Stimuli/psy_flexible_rotation_30_objects_occ0.7_0.9s/images/train/n02818832_3/n02883344_0/img_b05_ccm_contemporary_bed_max2013_b03_box_2013_gray.jpg,n02818832_3,n02883344_0,flexible,0.839062,n02933112_4,Stimuli/psy_flexible_rotation_30_objects_occ0.7_0.9s/images/train/n02933112_4/n02933112_4/img_buffet_buffet_2014-3_gray.png,random,flexible,n02818832_3,n02883344_0,Stimuli/canonical view 2/img_n02818832_3_gray.jpg,Stimuli/canonical view 2/img_n02883344_0_gray.jpg,foreground,right,Experiments/experiment_47/132.jpg,Experiments/experiment_47/133.jpg,Experiments/experiment_47/134.jpg,Experiments/experiment_47/135.jpg,358,1,2023-04-17_17h28.55.923,Occlusion_Psychophysics,2022.1.4,Win32,59.99880002,,,left,"[""right""]",[0.5877999999997883],False,,0.0,0.0,33.0,33.0,33.0,1.0,,,,,,
,,,,,,,,,,,,,,,,,,,,,0.05,,,,,,,,,,Stimuli/psy_fixed_rotation_30_objects_occ0.7_0.9s/images/train/n04256520_5/n04405907_9/img_meridiani_belmondo_bench_sofa_vray_004_2010_gray.jpg,n04256520_5,n04405907_9,fixed,0.795647,n04405907_9,Stimuli/psy_fixed_rotation_30_objects_occ0.7_0.9s/images/train/n04256520_5/n04405907_9/img_meridiani_belmondo_bench_sofa_vray_004_2010-3_gray.png,foreground,same as foreground,n04256520_5,n02883344_0,Stimuli/canonical view 2/img_n04256520_5_gray.jpg,Stimuli/canonical view 2/img_n02883344_0_gray.jpg,random,left,Experiments/experiment_47/136.jpg,Experiments/experiment_47/137.jpg,Experiments/experiment_47/138.jpg,Experiments/experiment_47/139.jpg,358,1,2023-04-17_17h28.55.923,Occlusion_Psychophysics,2022.1.4,Win32,59.99880002,,,right,"[""right""]",[0.47129999999981464],False,,0.0,0.0,34.0,34.0,34.0,1.0,,,,,,
,,,,,,,,,,,,,,,,,,,,,0.05,,,,,,,,,,Stimuli/psy_fixed_rotation_30_objects_occ0.7_0.9s/images/train/n02818832_3/n04405907_9/img_b05_ccm_contemporary_bed_max2013_vray_004_2004_gray.jpg,n02818832_3,n04405907_9,fixed,0.712662,n04405907_9,Stimuli/psy_fixed_rotation_30_objects_occ0.7_0.9s/images/train/n02818832_3/n04405907_9/img_b05_ccm_contemporary_bed_max2013_vray_004_2004-3_gray.png,foreground,same as foreground,n02818832_3,n03928116_4,Stimuli/canonical view 2/img_n02818832_3_gray.jpg,Stimuli/canonical view 2/img_n03928116_4_gray.jpg,random,right,Experiments/experiment_47/140.jpg,Experiments/experiment_47/141.jpg,Experiments/experiment_47/142.jpg,Experiments/experiment_47/143.jpg,358,1,2023-04-17_17h28.55.923,Occlusion_Psychophysics,2022.1.4,Win32,59.99880002,,,right,"[""left""]",[0.5712000000002035],False,,0.0,0.0,35.0,35.0,35.0,1.0,,,,,,
,,,,,,,,,,,,,,,,,,,,,0.05,,,,,,,,,,Stimuli/psy_fixed_rotation_30_objects_occ0.7_0.9s/images/train/n04256520_9/n02883344_15/img_napoleon_iii_sofa_microwave_box_2006_gray.jpg,n04256520_9,n02883344_15,fixed,0.752246,n04405907_9,Stimuli/psy_fixed_rotation_30_objects_occ0.7_0.9s/images/train/n02818832_3/n04405907_9/img_b05_ccm_contemporary_bed_max2013_vray_004_2007-3_gray.png,random,fixed,n04256520_9,n02883344_15,Stimuli/canonical view 2/img_n04256520_9_gray.jpg,Stimuli/canonical view 2/img_n02883344_15_gray.jpg,foreground,left,Experiments/experiment_47/144.jpg,Experiments/experiment_47/145.jpg,Experiments/experiment_47/146.jpg,Experiments/experiment_47/147.jpg,358,1,2023-04-17_17h28.55.923,Occlusion_Psychophysics,2022.1.4,Win32,59.99880002,,,right,"[""right""]",[0.6757999999997537],False,,0.0,0.0,36.0,36.0,36.0,1.0,,,,,,
,,,,,,,,,,,,,,,,,,,,,0.025,,,,,,,,,,Stimuli/psy_fixed_rotation_30_objects_occ0.7_0.9s/images/train/n04405907_8/n04256520_4/img_stylized_tv_club_house_italia_nautilus_sofa_2002_gray.jpg,n04405907_8,n04256520_4,fixed,0.726846,n04405907_5,Stimuli/psy_flexible_rotation_30_objects_occ0.7_0.9s/images/train/n04256520_4/n04405907_5/img_club_house_italia_nautilus_sofa_samsung_40_uhd_smart_tv_2011_2009-3_gray.png,random,flexible,n04405907_8,n02818832_3,Stimuli/canonical view 2/img_n04405907_8_gray.jpg,Stimuli/canonical view 2/img_n02818832_3_gray.jpg,random,left,Experiments/experiment_47/148.jpg,Experiments/experiment_47/149.jpg,Experiments/experiment_47/150.jpg,Experiments/experiment_47/151.jpg,358,1,2023-04-17_17h28.55.923,Occlusion_Psychophysics,2022.1.4,Win32,59.99880002,,,left,"[""right""]",[0.6064999999999827],False,,0.0,0.0,37.0,37.0,37.0,1.0,,,,,,
,,,,,,,,,,,,,,,,,,,,,0.05,,,,,,,,,,Stimuli/psy_fixed_rotation_30_objects_occ0.7_0.9s/images/train/n02933112_4/n02883344_15/img_buffet_microwave_box_2006_gray.jpg,n02933112_4,n02883344_15,fixed,0.707052,n03001627_8,Stimuli/psy_flexible_rotation_30_objects_occ0.7_0.9s/images/train/n04405907_8/n03001627_8/img_stylized_tv_chair_billiani_doll_2008-3_gray.png,random,flexible,n02933112_4,n02828884_9,Stimuli/canonical view 2/img_n02933112_4_gray.jpg,Stimuli/canonical view 2/img_n02828884_9_gray.jpg,random,left,Experiments/experiment_47/152.jpg,Experiments/experiment_47/153.jpg,Experiments/experiment_47/154.jpg,Experiments/experiment_47/155.jpg,358,1,2023-04-17_17h28.55.923,Occlusion_Psychophysics,2022.1.4,Win32,59.99880002,,,left,"[""left""]",[0.6547999999997955],False,,0.0,0.0,38.0,38.0,38.0,1.0,,,,,,
,,,,,,,,,,,,,,,,,,,,,0.025,,,,,,,,,,Stimuli/psy_flexible_rotation_30_objects_occ0.7_0.9s/images/train/n03001627_8/n03001627_9/img_chair_billiani_doll_chair_eames_plastic_armchair_2014_gray.jpg,n03001627_8,n03001627_9,flexible,0.812185,n03001627_9,Stimuli/psy_flexible_rotation_30_objects_occ0.7_0.9s/images/train/n03001627_8/n03001627_9/img_chair_billiani_doll_chair_eames_plastic_armchair_2014-3_gray.png,foreground,same as foreground,n03001627_8,n03001627_9,Stimuli/canonical view 2/img_n03001627_8_gray.jpg,Stimuli/canonical view 2/img_n03001627_9_gray.jpg,foreground,left,Experiments/experiment_47/156.jpg,Experiments/experiment_47/157.jpg,Experiments/experiment_47/158.jpg,Experiments/experiment_47/159.jpg,358,1,2023-04-17_17h28.55.923,Occlusion_Psychophysics,2022.1.4,Win32,59.99880002,,,left,"[""right""]",[0.5819999999999936],False,,0.0,0.0,39.0,39.0,39.0,1.0,,,,,,
,,,,,,,,,,,,,,,,,,,,,0.025,,,,,,,,,,Stimuli/psy_flexible_rotation_30_objects_occ0.7_0.9s/images/train/n02818832_9/n03928116_0/img_bed01_blue_b02_piano_2000_gray.jpg,n02818832_9,n03928116_0,flexible,0.794835,n03928116_0,Stimuli/psy_flexible_rotation_30_objects_occ0.7_0.9s/images/train/n02818832_9/n03928116_0/img_bed01_blue_b02_piano_2000-3_gray.png,foreground,same as foreground,n02818832_9,n02933112_-18,Stimuli/canonical view 2/img_n02818832_9_gray.jpg,Stimuli/canonical view 2/img_n02933112_-18_gray.jpg,random,right,Experiments/experiment_47/160.jpg,Experiments/experiment_47/161.jpg,Experiments/experiment_47/162.jpg,Experiments/experiment_47/163.jpg,358,1,2023-04-17_17h28.55.923,Occlusion_Psychophysics,2022.1.4,Win32,59.99880002,,,left,"[""right""]",[0.772099999999682],False,,0.0,0.0,40.0,40.0,40.0,1.0,,,,,,
,,,,,,,,,,,,,,,,,,,,,0.025,,,,,,,,,,Stimuli/psy_fixed_rotation_30_objects_occ0.7_0.9s/images/train/n02818832_0/n04256520_5/img_b03_the_sofa_and_chair_company_-_stanley_bed_2014_meridiani_belmondo_bench_sofa_2012_gray.jpg,n02818832_0,n04256520_5,fixed,0.776554,n04405907_9,Stimuli/psy_fixed_rotation_30_objects_occ0.7_0.9s/images/train/n04379243_8/n04405907_9/img_glass_table_vray_004_2005-3_gray.png,random,fixed,n02818832_0,n04256520_5,Stimuli/canonical view 2/img_n02818832_0_gray.jpg,Stimuli/canonical view 2/img_n04256520_5_gray.jpg,foreground,right,Experiments/experiment_47/164.jpg,Experiments/experiment_47/165.jpg,Experiments/experiment_47/166.jpg,Experiments/experiment_47/167.jpg,358,1,2023-04-17_17h28.55.923,Occlusion_Psychophysics,2022.1.4,Win32,59.99880002,,,left,"[""right""]",[0.7300000000000182],False,,0.0,0.0,41.0,41.0,41.0,1.0,,,,,,
,,,,,,,,,,,,,,,,,,,,,0.05,,,,,,,,,,Stimuli/psy_flexible_rotation_30_objects_occ0.7_0.9s/images/train/n03001627_9/n03928116_0/img_chair_eames_plastic_armchair_b02_piano_2008_gray.jpg,n03001627_9,n03928116_0,flexible,0.735999,n03928116_0,Stimuli/psy_flexible_rotation_30_objects_occ0.7_0.9s/images/train/n03001627_9/n03928116_0/img_chair_eames_plastic_armchair_b02_piano_2008-3_gray.png,foreground,same as foreground,n03001627_9,n03928116_0,Stimuli/canonical view 2/img_n03001627_9_gray.jpg,Stimuli/canonical view 2/img_n03928116_0_gray.jpg,foreground,left,Experiments/experiment_47/168.jpg,Experiments/experiment_47/169.jpg,Experiments/experiment_47/170.jpg,Experiments/experiment_47/171.jpg,358,1,2023-04-17_17h28.55.923,Occlusion_Psychophysics,2022.1.4,Win32,59.99880002,,,left,"[""right""]",[0.5620000000000118],False,,0.0,0.0,42.0,42.0,42.0,1.0,,,,,,
,,,,,,,,,,,,,,,,,,,,,0.05,,,,,,,,,,Stimuli/psy_flexible_rotation_30_objects_occ0.7_0.9s/images/train/n02883344_-1/n04379243_0/img_woven_box_17th_c._monastery_dining_table_2010_2015_gray.jpg,n02883344_-1,n04379243_0,flexible,0.726966,n04379243_0,Stimuli/psy_flexible_rotation_30_objects_occ0.7_0.9s/images/train/n02883344_-1/n04379243_0/img_woven_box_17th_c._monastery_dining_table_2010_2015-3_gray.png,foreground,same as foreground,n02883344_-1,n04379243_0,Stimuli/canonical view 2/img_n02883344_-1_gray.jpg,Stimuli/canonical view 2/img_n04379243_0_gray.jpg,foreground,right,Experiments/experiment_47/172.jpg,Experiments/experiment_47/173.jpg,Experiments/experiment_47/174.jpg,Experiments/experiment_47/175.jpg,358,1,2023-04-17_17h28.55.923,Occlusion_Psychophysics,2022.1.4,Win32,59.99880002,,,left,"[""right""]",[0.5607000000001108],False,,0.0,0.0,43.0,43.0,43.0,1.0,,,,,,
,,,,,,,,,,,,,,,,,,,,,0.05,,,,,,,,,,Stimuli/psy_flexible_rotation_30_objects_occ0.7_0.9s/images/train/n02828884_9/n03928116_0/img_cr-96_bench_b02_piano_2014_gray.jpg,n02828884_9,n03928116_0,flexible,0.81261,n04379243_8,Stimuli/psy_fixed_rotation_30_objects_occ0.7_0.9s/images/train/n04256520_5/n04379243_8/img_meridiani_belmondo_bench_sofa_glass_table_2011-3_gray.png,random,fixed,n02828884_9,n04256520_4,Stimuli/canonical view 2/img_n02828884_9_gray.jpg,Stimuli/canonical view 2/img_n04256520_4_gray.jpg,random,right,Experiments/experiment_47/176.jpg,Experiments/experiment_47/177.jpg,Experiments/experiment_47/178.jpg,Experiments/experiment_47/179.jpg,358,1,2023-04-17_17h28.55.923,Occlusion_Psychophysics,2022.1.4,Win32,59.99880002,,,right,"[""right""]",[0.6232999999997446],False,,0.0,0.0,44.0,44.0,44.0,1.0,,,,,,
,,,,,,,,,,,,,,,,,,,,,0.05,,,,,,,,,,Stimuli/psy_flexible_rotation_30_objects_occ0.7_0.9s/images/train/n03928116_0/n04256520_4/img_b02_piano_club_house_italia_nautilus_sofa_2006_gray.jpg,n03928116_0,n04256520_4,flexible,0.807012,n02818832_9,Stimuli/psy_fixed_rotation_30_objects_occ0.7_0.9s/images/train/n04256520_4/n02818832_9/img_club_house_italia_nautilus_sofa_bed01_blue_2014-3_gray.png,random,fixed,n03928116_0,n03001627_9,Stimuli/canonical view 2/img_n03928116_0_gray.jpg,Stimuli/canonical view 2/img_n03001627_9_gray.jpg,random,right,Experiments/experiment_47/180.jpg,Experiments/experiment_47/181.jpg,Experiments/experiment_47/182.jpg,Experiments/experiment_47/183.jpg,358,1,2023-04-17_17h28.55.923,Occlusion_Psychophysics,2022.1.4,Win32,59.99880002,,,right,"[""right""]",[0.5877000000002681],False,,0.0,0.0,45.0,45.0,45.0,1.0,,,,,,
,,,,,,,,,,,,,,,,,,,,,0.025,,,,,,,,,,Stimuli/psy_flexible_rotation_30_objects_occ0.7_0.9s/images/train/n04256520_5/n03928116_0/img_meridiani_belmondo_bench_sofa_b02_piano_2014_gray.jpg,n04256520_5,n03928116_0,flexible,0.784273,n02828884_3,Stimuli/psy_flexible_rotation_30_objects_occ0.7_0.9s/images/train/n02828884_3/n02828884_3/img_b04_wood_metal_park_bench_b04_wood_metal_park_bench_2006-3_gray.png,random,flexible,n04256520_5,n02828884_9,Stimuli/canonical view 2/img_n04256520_5_gray.jpg,Stimuli/canonical view 2/img_n02828884_9_gray.jpg,random,right,Experiments/experiment_47/184.jpg,Experiments/experiment_47/185.jpg,Experiments/experiment_47/186.jpg,Experiments/experiment_47/187.jpg,358,1,2023-04-17_17h28.55.923,Occlusion_Psychophysics,2022.1.4,Win32,59.99880002,,,left,"[""right""]",[0.7767999999998665],True,left,0.0,0.0,46.0,46.0,46.0,1.0,0.9678,,,,,
,,,,,,,,,,,,,,,,,,,,,0.025,,,,,,,,,,Stimuli/psy_fixed_rotation_30_objects_occ0.7_0.9s/images/train/n02818832_3/n03928116_4/img_b05_ccm_contemporary_bed_max2013_dp_33_b_2013__vray_2009_gray.jpg,n02818832_3,n03928116_4,fixed,0.756578,n02828884_3,Stimuli/psy_flexible_rotation_30_objects_occ0.7_0.9s/images/train/n04256520_5/n02828884_3/img_meridiani_belmondo_bench_sofa_b04_wood_metal_park_bench_2014-3_gray.png,random,flexible,n02818832_3,n04379243_-7,Stimuli/canonical view 2/img_n02818832_3_gray.jpg,Stimuli/canonical view 2/img_n04379243_-7_gray.jpg,random,right,Experiments/experiment_47/188.jpg,Experiments/experiment_47/189.jpg,Experiments/experiment_47/190.jpg,Experiments/experiment_47/191.jpg,358,1,2023-04-17_17h28.55.923,Occlusion_Psychophysics,2022.1.4,Win32,59.99880002,,,right,"[""right""]",[1.191500000000019],False,,0.0,0.0,47.0,47.0,47.0,1.0,,,,,,
,,,,,,,,,,,,,,,,,,,,,0.05,,,,,,,,,,Stimuli/psy_flexible_rotation_30_objects_occ0.7_0.9s/images/train/n04256520_5/n04256520_9/img_meridiani_belmondo_bench_sofa_napoleon_iii_sofa_2012_gray.jpg,n04256520_5,n04256520_9,flexible,0.772599,n03928116_10,Stimuli/psy_fixed_rotation_30_objects_occ0.7_0.9s/images/train/n03928116_4/n03928116_10/img_dp_33_b_2013__vray_ydp_103_r_2012__vray_2015-3_gray.png,random,fixed,n04256520_5,n04256520_9,Stimuli/canonical view 2/img_n04256520_5_gray.jpg,Stimuli/canonical view 2/img_n04256520_9_gray.jpg,foreground,right,Experiments/experiment_47/192.jpg,Experiments/experiment_47/193.jpg,Experiments/experiment_47/194.jpg,Experiments/experiment_47/195.jpg,358,1,2023-04-17_17h28.55.923,Occlusion_Psychophysics,2022.1.4,Win32,59.99880002,,,right,"[""right""]",[0.6715000000000373],False,,0.0,0.0,48.0,48.0,48.0,1.0,,,,,,
,,,,,,,,,,,,,,,,,,,,,0.025,,,,,,,,,,Stimuli/psy_fixed_rotation_30_objects_occ0.7_0.9s/images/train/n02883344_0/n02818832_9/img_b03_box_bed01_blue_2003_gray.jpg,n02883344_0,n02818832_9,fixed,0.759917,n02818832_9,Stimuli/psy_fixed_rotation_30_objects_occ0.7_0.9s/images/train/n02883344_0/n02818832_9/img_b03_box_bed01_blue_2003-3_gray.png,foreground,same as foreground,n02883344_0,n02818832_9,Stimuli/canonical view 2/img_n02883344_0_gray.jpg,Stimuli/canonical view 2/img_n02818832_9_gray.jpg,foreground,left,Experiments/experiment_47/196.jpg,Experiments/experiment_47/197.jpg,Experiments/experiment_47/198.jpg,Experiments/experiment_47/199.jpg,358,1,2023-04-17_17h28.55.923,Occlusion_Psychophysics,2022.1.4,Win32,59.99880002,,,right,"[""left""]",[0.4545999999995729],False,,0.0,0.0,49.0,49.0,49.0,1.0,,,,,,
,,,,,,,,,,,,,,,,,,,,,0.025,,,,,,,,,,Stimuli/psy_fixed_rotation_30_objects_occ0.7_0.9s/images/train/n04405907_9/n02933112_4/img_vray_004_buffet_2004_gray.jpg,n04405907_9,n02933112_4,fixed,0.771664,n04405907_5,Stimuli/psy_fixed_rotation_30_objects_occ0.7_0.9s/images/train/n04379243_8/n04405907_5/img_glass_table_samsung_40_uhd_smart_tv_2011_2011-3_gray.png,random,fixed,n04405907_9,n02933112_4,Stimuli/canonical view 2/img_n04405907_9_gray.jpg,Stimuli/canonical view 2/img_n02933112_4_gray.jpg,foreground,right,Experiments/experiment_47/200.jpg,Experiments/experiment_47/201.jpg,Experiments/experiment_47/202.jpg,Experiments/experiment_47/203.jpg,358,1,2023-04-17_17h28.55.923,Occlusion_Psychophysics,2022.1.4,Win32,59.99880002,,,right,"[""right""]",[0.5714000000003807],False,,0.0,0.0,50.0,50.0,50.0,1.0,,,,,,
,,,,,,,,,,,,,,,,,,,,,0.025,,,,,,,,,,Stimuli/psy_flexible_rotation_30_objects_occ0.7_0.9s/images/train/n02818832_0/n02818832_9/img_b03_the_sofa_and_chair_company_-_stanley_bed_2014_bed01_blue_2000_gray.jpg,n02818832_0,n02818832_9,flexible,0.870847,n02828884_3,Stimuli/psy_flexible_rotation_30_objects_occ0.7_0.9s/images/train/n04256520_9/n02828884_3/img_napoleon_iii_sofa_b04_wood_metal_park_bench_2011-3_gray.png,random,flexible,n02818832_0,n04405907_5,Stimuli/canonical view 2/img_n02818832_0_gray.jpg,Stimuli/canonical view 2/img_n04405907_5_gray.jpg,random,left,Experiments/experiment_47/204.jpg,Experiments/experiment_47/205.jpg,Experiments/experiment_47/206.jpg,Experiments/experiment_47/207.jpg,358,1,2023-04-17_17h28.55.923,Occlusion_Psychophysics,2022.1.4,Win32,59.99880002,,,right,"[""right""]",[0.5547000000002527],False,,0.0,0.0,51.0,51.0,51.0,1.0,,,,,,
,,,,,,,,,,,,,,,,,,,,,0.025,,,,,,,,,,Stimuli/psy_fixed_rotation_30_objects_occ0.7_0.9s/images/train/n02818832_9/n04256520_5/img_bed01_blue_meridiani_belmondo_bench_sofa_2011_gray.jpg,n02818832_9,n04256520_5,fixed,0.78584,n04405907_9,Stimuli/psy_flexible_rotation_30_objects_occ0.7_0.9s/images/train/n04405907_9/n04405907_9/img_vray_004_vray_004_2001-3_gray.png,random,flexible,n02818832_9,n04405907_8,Stimuli/canonical view 2/img_n02818832_9_gray.jpg,Stimuli/canonical view 2/img_n04405907_8_gray.jpg,random,left,Experiments/experiment_47/208.jpg,Experiments/experiment_47/209.jpg,Experiments/experiment_47/210.jpg,Experiments/experiment_47/211.jpg,358,1,2023-04-17_17h28.55.923,Occlusion_Psychophysics,2022.1.4,Win32,59.99880002,,,left,"[""left""]",[0.554700000000139],False,,0.0,0.0,52.0,52.0,52.0,1.0,,,,,,
,,,,,,,,,,,,,,,,,,,,,0.05,,,,,,,,,,Stimuli/psy_flexible_rotation_30_objects_occ0.7_0.9s/images/train/n04405907_9/n04256520_4/img_vray_004_club_house_italia_nautilus_sofa_2015_gray.jpg,n04405907_9,n04256520_4,flexible,0.718513,n04256520_4,Stimuli/psy_flexible_rotation_30_objects_occ0.7_0.9s/images/train/n04405907_9/n04256520_4/img_vray_004_club_house_italia_nautilus_sofa_2015-3_gray.png,foreground,same as foreground,n04405907_9,n04379243_0,Stimuli/canonical view 2/img_n04405907_9_gray.jpg,Stimuli/canonical view 2/img_n04379243_0_gray.jpg,random,right,Experiments/experiment_47/212.jpg,Experiments/experiment_47/213.jpg,Experiments/experiment_47/214.jpg,Experiments/experiment_47/215.jpg,358,1,2023-04-17_17h28.55.923,Occlusion_Psychophysics,2022.1.4,Win32,59.99880002,,,right,"[""left""]",[0.5375999999996566],False,,0.0,0.0,53.0,53.0,53.0,1.0,,,,,,
,,,,,,,,,,,,,,,,,,,,,0.025,,,,,,,,,,Stimuli/psy_fixed_rotation_30_objects_occ0.7_0.9s/images/train/n04405907_9/n04256520_4/img_vray_004_club_house_italia_nautilus_sofa_2010_gray.jpg,n04405907_9,n04256520_4,fixed,0.778607,n04256520_4,Stimuli/psy_fixed_rotation_30_objects_occ0.7_0.9s/images/train/n04405907_9/n04256520_4/img_vray_004_club_house_italia_nautilus_sofa_2010-3_gray.png,foreground,same as foreground,n04405907_9,n03928116_4,Stimuli/canonical view 2/img_n04405907_9_gray.jpg,Stimuli/canonical view 2/img_n03928116_4_gray.jpg,random,right,Experiments/experiment_47/216.jpg,Experiments/experiment_47/217.jpg,Experiments/experiment_47/218.jpg,Experiments/experiment_47/219.jpg,358,1,2023-04-17_17h28.55.923,Occlusion_Psychophysics,2022.1.4,Win32,59.99880002,,,left,"[""left""]",[0.5960000000000036],False,,0.0,0.0,54.0,54.0,54.0,1.0,,,,,,
,,,,,,,,,,,,,,,,,,,,,0.025,,,,,,,,,,Stimuli/psy_fixed_rotation_30_objects_occ0.7_0.9s/images/train/n04379243_0/n02818832_9/img_17th_c._monastery_dining_table_2010_bed01_blue_2012_gray.jpg,n04379243_0,n02818832_9,fixed,0.727301,n02933112_-2,Stimuli/psy_flexible_rotation_30_objects_occ0.7_0.9s/images/train/n04379243_8/n02933112_-2/img_glass_table_sink_base_white_wood_2004-3_gray.png,random,flexible,n04379243_0,n02818832_9,Stimuli/canonical view 2/img_n04379243_0_gray.jpg,Stimuli/canonical view 2/img_n02818832_9_gray.jpg,foreground,left,Experiments/experiment_47/220.jpg,Experiments/experiment_47/221.jpg,Experiments/experiment_47/222.jpg,Experiments/experiment_47/223.jpg,358,1,2023-04-17_17h28.55.923,Occlusion_Psychophysics,2022.1.4,Win32,59.99880002,,,left,"[""right""]",[0.4653999999994767],False,,0.0,0.0,55.0,55.0,55.0,1.0,,,,,,
,,,,,,,,,,,,,,,,,,,,,0.05,,,,,,,,,,Stimuli/psy_flexible_rotation_30_objects_occ0.7_0.9s/images/train/n02818832_0/n02883344_-1/img_b03_the_sofa_and_chair_company_-_stanley_bed_2014_woven_box_2005_gray.jpg,n02818832_0,n02883344_-1,flexible,0.703112,n02883344_-1,Stimuli/psy_flexible_rotation_30_objects_occ0.7_0.9s/images/train/n02818832_0/n02883344_-1/img_b03_the_sofa_and_chair_company_-_stanley_bed_2014_woven_box_2005-3_gray.png,foreground,same as foreground,n02818832_0,n02828884_3,Stimuli/canonical view 2/img_n02818832_0_gray.jpg,Stimuli/canonical view 2/img_n02828884_3_gray.jpg,random,right,Experiments/experiment_47/224.jpg,Experiments/experiment_47/225.jpg,Experiments/experiment_47/226.jpg,Experiments/experiment_47/227.jpg,358,1,2023-04-17_17h28.55.923,Occlusion_Psychophysics,2022.1.4,Win32,59.99880002,,,left,"[""right""]",[0.5641000000006215],False,,0.0,0.0,56.0,56.0,56.0,1.0,,,,,,
,,,,,,,,,,,,,,,,,,,,,0.025,,,,,,,,,,Stimuli/psy_flexible_rotation_30_objects_occ0.7_0.9s/images/train/n04256520_5/n02883344_15/img_meridiani_belmondo_bench_sofa_microwave_box_2014_gray.jpg,n04256520_5,n02883344_15,flexible,0.780712,n02883344_15,Stimuli/psy_flexible_rotation_30_objects_occ0.7_0.9s/images/train/n04256520_5/n02883344_15/img_meridiani_belmondo_bench_sofa_microwave_box_2014-3_gray.png,foreground,same as foreground,n04256520_5,n03928116_4,Stimuli/canonical view 2/img_n04256520_5_gray.jpg,Stimuli/canonical view 2/img_n03928116_4_gray.jpg,random,left,Experiments/experiment_47/228.jpg,Experiments/experiment_47/229.jpg,Experiments/experiment_47/230.jpg,Experiments/experiment_47/231.jpg,358,1,2023-04-17_17h28.55.923,Occlusion_Psychophysics,2022.1.4,Win32,59.99880002,,,right,"[""left""]",[0.42140000000040345],False,,0.0,0.0,57.0,57.0,57.0,1.0,,,,,,
,,,,,,,,,,,,,,,,,,,,,0.025,,,,,,,,,,Stimuli/psy_fixed_rotation_30_objects_occ0.7_0.9s/images/train/n02818832_9/n02933112_-18/img_bed01_blue_cgaxis_models_48_26_vray_composite_2009_gray.jpg,n02818832_9,n02933112_-18,fixed,0.732579,n04405907_9,Stimuli/psy_fixed_rotation_30_objects_occ0.7_0.9s/images/train/n04379243_8/n04405907_9/img_glass_table_vray_004_2005-3_gray.png,random,fixed,n02818832_9,n03001627_9,Stimuli/canonical view 2/img_n02818832_9_gray.jpg,Stimuli/canonical view 2/img_n03001627_9_gray.jpg,random,left,Experiments/experiment_47/232.jpg,Experiments/experiment_47/233.jpg,Experiments/experiment_47/234.jpg,Experiments/experiment_47/235.jpg,358,1,2023-04-17_17h28.55.923,Occlusion_Psychophysics,2022.1.4,Win32,59.99880002,,,right,"[""right""]",[0.17139999999938027],False,,0.0,0.0,58.0,58.0,58.0,1.0,,,,,,
,,,,,,,,,,,,,,,,,,,,,0.05,,,,,,,,,,Stimuli/psy_fixed_rotation_30_objects_occ0.7_0.9s/images/train/n02933112_4/n02883344_-1/img_buffet_woven_box_2009_gray.jpg,n02933112_4,n02883344_-1,fixed,0.768407,n04379243_-7,Stimuli/psy_flexible_rotation_30_objects_occ0.7_0.9s/images/train/n02818832_3/n04379243_-7/img_b05_ccm_contemporary_bed_max2013_quatre_dining_table_2000-3_gray.png,random,flexible,n02933112_4,n02818832_9,Stimuli/canonical view 2/img_n02933112_4_gray.jpg,Stimuli/canonical view 2/img_n02818832_9_gray.jpg,random,left,Experiments/experiment_47/236.jpg,Experiments/experiment_47/237.jpg,Experiments/experiment_47/238.jpg,Experiments/experiment_47/239.jpg,358,1,2023-04-17_17h28.55.923,Occlusion_Psychophysics,2022.1.4,Win32,59.99880002,,,right,"[""right""]",[0.5375999999996566],False,,0.0,0.0,59.0,59.0,59.0,1.0,,,,,,
,,,,,,,,,,,,,,,,,,,,,0.05,,,,,,,,,,Stimuli/psy_flexible_rotation_30_objects_occ0.7_0.9s/images/train/n02883344_0/n04256520_9/img_b03_box_napoleon_iii_sofa_2000_gray.jpg,n02883344_0,n04256520_9,flexible,0.705091,n03001627_9,Stimuli/psy_flexible_rotation_30_objects_occ0.7_0.9s/images/train/n03001627_9/n03001627_9/img_chair_eames_plastic_armchair_chair_eames_plastic_armchair_2015-3_gray.png,random,flexible,n02883344_0,n04405907_8,Stimuli/canonical view 2/img_n02883344_0_gray.jpg,Stimuli/canonical view 2/img_n04405907_8_gray.jpg,random,left,Experiments/experiment_47/240.jpg,Experiments/experiment_47/241.jpg,Experiments/experiment_47/242.jpg,Experiments/experiment_47/243.jpg,358,1,2023-04-17_17h28.55.923,Occlusion_Psychophysics,2022.1.4,Win32,59.99880002,,,left,"[""left""]",[0.5049000000003616],False,,0.0,0.0,60.0,60.0,60.0,1.0,,,,,,
,,,,,,,,,,,,,,,,,,,,,0.05,,,,,,,,,,Stimuli/psy_flexible_rotation_30_objects_occ0.7_0.9s/images/train/n02883344_15/n03928116_4/img_microwave_box_dp_33_b_2013__vray_2013_gray.jpg,n02883344_15,n03928116_4,flexible,0.774212,n03928116_4,Stimuli/psy_flexible_rotation_30_objects_occ0.7_0.9s/images/train/n02883344_15/n03928116_4/img_microwave_box_dp_33_b_2013__vray_2013-3_gray.png,foreground,same as foreground,n02883344_15,n03928116_4,Stimuli/canonical view 2/img_n02883344_15_gray.jpg,Stimuli/canonical view 2/img_n03928116_4_gray.jpg,foreground,left,Experiments/experiment_47/244.jpg,Experiments/experiment_47/245.jpg,Experiments/experiment_47/246.jpg,Experiments/experiment_47/247.jpg,358,1,2023-04-17_17h28.55.923,Occlusion_Psychophysics,2022.1.4,Win32,59.99880002,,,right,"[""right""]",[0.6124999999999545],False,,0.0,0.0,61.0,61.0,61.0,1.0,,,,,,
,,,,,,,,,,,,,,,,,,,,,0.05,,,,,,,,,,Stimuli/psy_flexible_rotation_30_objects_occ0.7_0.9s/images/train/n04379243_8/n02828884_4/img_glass_table_b05_c-5_classic_series_bench-2012_2000_gray.jpg,n04379243_8,n02828884_4,flexible,0.840839,n02828884_4,Stimuli/psy_flexible_rotation_30_objects_occ0.7_0.9s/images/train/n04379243_8/n02828884_4/img_glass_table_b05_c-5_classic_series_bench-2012_2000-3_gray.png,foreground,same as foreground,n04379243_8,n02828884_4,Stimuli/canonical view 2/img_n04379243_8_gray.jpg,Stimuli/canonical view 2/img_n02828884_4_gray.jpg,foreground,right,Experiments/experiment_47/248.jpg,Experiments/experiment_47/249.jpg,Experiments/experiment_47/250.jpg,Experiments/experiment_47/251.jpg,358,1,2023-04-17_17h28.55.923,Occlusion_Psychophysics,2022.1.4,Win32,59.99880002,,,left,"[""right""]",[0.5774000000003525],False,,0.0,0.0,62.0,62.0,62.0,1.0,,,,,,
,,,,,,,,,,,,,,,,,,,,,0.025,,,,,,,,,,Stimuli/psy_fixed_rotation_30_objects_occ0.7_0.9s/images/train/n04405907_9/n04256520_9/img_vray_004_napoleon_iii_sofa_2009_gray.jpg,n04405907_9,n04256520_9,fixed,0.711644,n04256520_9,Stimuli/psy_fixed_rotation_30_objects_occ0.7_0.9s/images/train/n04405907_9/n04256520_9/img_vray_004_napoleon_iii_sofa_2009-3_gray.png,foreground,same as foreground,n04405907_9,n04256520_9,Stimuli/canonical view 2/img_n04405907_9_gray.jpg,Stimuli/canonical view 2/img_n04256520_9_gray.jpg,foreground,left,Experiments/experiment_47/252.jpg,Experiments/experiment_47/253.jpg,Experiments/experiment_47/254.jpg,Experiments/experiment_47/255.jpg,358,1,2023-04-17_17h28.55.923,Occlusion_Psychophysics,2022.1.4,Win32,59.99880002,,,right,"[""right""]",[0.6393999999994548],False,,0.0,0.0,63.0,63.0,63.0,1.0,,,,,,
,,,,,,,,,,,,,,,,,,,,,0.025,,,,,,,,,,Stimuli/psy_flexible_rotation_30_objects_occ0.7_0.9s/images/train/n03001627_9/n04256520_9/img_chair_eames_plastic_armchair_napoleon_iii_sofa_2008_gray.jpg,n03001627_9,n04256520_9,flexible,0.761672,n04256520_9,Stimuli/psy_flexible_rotation_30_objects_occ0.7_0.9s/images/train/n03001627_9/n04256520_9/img_chair_eames_plastic_armchair_napoleon_iii_sofa_2008-3_gray.png,foreground,same as foreground,n03001627_9,n03928116_4,Stimuli/canonical view 2/img_n03001627_9_gray.jpg,Stimuli/canonical view 2/img_n03928116_4_gray.jpg,random,left,Experiments/experiment_47/256.jpg,Experiments/experiment_47/257.jpg,Experiments/experiment_47/258.jpg,Experiments/experiment_47/259.jpg,358,1,2023-04-17_17h28.55.923,Occlusion_Psychophysics,2022.1.4,Win32,59.99880002,,,left,"[""left""]",[0.7465999999996029],False,,0.0,0.0,64.0,64.0,64.0,1.0,,,,,,
,,,,,,,,,,,,,,,,,,,,,0.05,,,,,,,,,,Stimuli/psy_fixed_rotation_30_objects_occ0.7_0.9s/images/train/n03928116_10/n02883344_-1/img_ydp_103_r_2012__vray_woven_box_2003_gray.jpg,n03928116_10,n02883344_-1,fixed,0.708764,n02883344_-1,Stimuli/psy_fixed_rotation_30_objects_occ0.7_0.9s/images/train/n03928116_10/n02883344_-1/img_ydp_103_r_2012__vray_woven_box_2003-3_gray.png,foreground,same as foreground,n03928116_10,n02883344_-1,Stimuli/canonical view 2/img_n03928116_10_gray.jpg,Stimuli/canonical view 2/img_n02883344_-1_gray.jpg,foreground,left,Experiments/experiment_47/260.jpg,Experiments/experiment_47/261.jpg,Experiments/experiment_47/262.jpg,Experiments/experiment_47/263.jpg,358,1,2023-04-17_17h28.55.923,Occlusion_Psychophysics,2022.1.4,Win32,59.99880002,,,right,"[""right""]",[0.4047000000001617],False,,0.0,0.0,65.0,65.0,65.0,1.0,,,,,,
,,,,,,,,,,,,,,,,,,,,,0.05,,,,,,,,,,Stimuli/psy_fixed_rotation_30_objects_occ0.7_0.9s/images/train/n04379243_8/n04405907_9/img_glass_table_vray_004_2007_gray.jpg,n04379243_8,n04405907_9,fixed,0.726274,n03001627_9,Stimuli/psy_fixed_rotation_30_objects_occ0.7_0.9s/images/train/n04070727_0/n03001627_9/img_b03_ka90ivi20r_2013__vray_chair_eames_plastic_armchair_2010-3_gray.png,random,fixed,n04379243_8,n02883344_-1,Stimuli/canonical view 2/img_n04379243_8_gray.jpg,Stimuli/canonical view 2/img_n02883344_-1_gray.jpg,random,right,Experiments/experiment_47/264.jpg,Experiments/experiment_47/265.jpg,Experiments/experiment_47/266.jpg,Experiments/experiment_47/267.jpg,358,1,2023-04-17_17h28.55.923,Occlusion_Psychophysics,2022.1.4,Win32,59.99880002,,,right,"[""left""]",[0.5985999999995784],False,,0.0,0.0,66.0,66.0,66.0,1.0,,,,,,
,,,,,,,,,,,,,,,,,,,,,0.025,,,,,,,,,,Stimuli/psy_fixed_rotation_30_objects_occ0.7_0.9s/images/train/n02828884_3/n03928116_0/img_b04_wood_metal_park_bench_b02_piano_2008_gray.jpg,n02828884_3,n03928116_0,fixed,0.777265,n03928116_0,Stimuli/psy_fixed_rotation_30_objects_occ0.7_0.9s/images/train/n02828884_3/n03928116_0/img_b04_wood_metal_park_bench_b02_piano_2008-3_gray.png,foreground,same as foreground,n02828884_3,n03928116_0,Stimuli/canonical view 2/img_n02828884_3_gray.jpg,Stimuli/canonical view 2/img_n03928116_0_gray.jpg,foreground,left,Experiments/experiment_47/268.jpg,Experiments/experiment_47/269.jpg,Experiments/experiment_47/270.jpg,Experiments/experiment_47/271.jpg,358,1,2023-04-17_17h28.55.923,Occlusion_Psychophysics,2022.1.4,Win32,59.99880002,,,right,"[""right""]",[0.34000000000003183],True,left,1.0,0.0,67.0,67.0,67.0,1.0,0.9342,,,,,
,,,,,,,,,,,,,,,,,,,,,0.05,,,,,,,,,,Stimuli/psy_fixed_rotation_30_objects_occ0.7_0.9s/images/train/n03928116_4/n02818832_3/img_dp_33_b_2013__vray_b05_ccm_contemporary_bed_max2013_2014_gray.jpg,n03928116_4,n02818832_3,fixed,0.760184,n02818832_3,Stimuli/psy_fixed_rotation_30_objects_occ0.7_0.9s/images/train/n03928116_4/n02818832_3/img_dp_33_b_2013__vray_b05_ccm_contemporary_bed_max2013_2014-3_gray.png,foreground,same as foreground,n03928116_4,n02818832_3,Stimuli/canonical view 2/img_n03928116_4_gray.jpg,Stimuli/canonical view 2/img_n02818832_3_gray.jpg,foreground,right,Experiments/experiment_47/272.jpg,Experiments/experiment_47/273.jpg,Experiments/experiment_47/274.jpg,Experiments/experiment_47/275.jpg,358,1,2023-04-17_17h28.55.923,Occlusion_Psychophysics,2022.1.4,Win32,59.99880002,,,right,"[""left""]",[0.16559999999958563],False,,0.0,0.0,68.0,68.0,68.0,1.0,,,,,,
,,,,,,,,,,,,,,,,,,,,,0.025,,,,,,,,,,Stimuli/psy_flexible_rotation_30_objects_occ0.7_0.9s/images/train/n04405907_9/n02883344_-1/img_vray_004_woven_box_2002_gray.jpg,n04405907_9,n02883344_-1,flexible,0.741765,n04256520_9,Stimuli/psy_fixed_rotation_30_objects_occ0.7_0.9s/images/train/n04256520_4/n04256520_9/img_club_house_italia_nautilus_sofa_napoleon_iii_sofa_2011-3_gray.png,random,fixed,n04405907_9,n02883344_-1,Stimuli/canonical view 2/img_n04405907_9_gray.jpg,Stimuli/canonical view 2/img_n02883344_-1_gray.jpg,foreground,right,Experiments/experiment_47/276.jpg,Experiments/experiment_47/277.jpg,Experiments/experiment_47/278.jpg,Experiments/experiment_47/279.jpg,358,1,2023-04-17_17h28.55.923,Occlusion_Psychophysics,2022.1.4,Win32,59.99880002,,,right,"[""right""]",[0.4049999999999727],False,,0.0,0.0,69.0,69.0,69.0,1.0,,,,,,
,,,,,,,,,,,,,,,,,,,,,0.05,,,,,,,,,,Stimuli/psy_flexible_rotation_30_objects_occ0.7_0.9s/images/train/n02828884_3/n02883344_-1/img_b04_wood_metal_park_bench_woven_box_2007_gray.jpg,n02828884_3,n02883344_-1,flexible,0.767629,n02883344_-1,Stimuli/psy_flexible_rotation_30_objects_occ0.7_0.9s/images/train/n02828884_3/n02883344_-1/img_b04_wood_metal_park_bench_woven_box_2007-3_gray.png,foreground,same as foreground,n02828884_3,n04379243_8,Stimuli/canonical view 2/img_n02828884_3_gray.jpg,Stimuli/canonical view 2/img_n04379243_8_gray.jpg,random,left,Experiments/experiment_47/280.jpg,Experiments/experiment_47/281.jpg,Experiments/experiment_47/282.jpg,Experiments/experiment_47/283.jpg,358,1,2023-04-17_17h28.55.923,Occlusion_Psychophysics,2022.1.4,Win32,59.99880002,,,left,"[""right""]",[0.7285999999996875],True,right,1.0,0.0,70.0,70.0,70.0,1.0,1.159,,,,,
,,,,,,,,,,,,,,,,,,,,,0.025,,,,,,,,,,Stimuli/psy_flexible_rotation_30_objects_occ0.7_0.9s/images/train/n04379243_8/n04379243_-7/img_glass_table_quatre_dining_table_2010_gray.jpg,n04379243_8,n04379243_-7,flexible,0.712071,n04379243_-7,Stimuli/psy_flexible_rotation_30_objects_occ0.7_0.9s/images/train/n04379243_8/n04379243_-7/img_glass_table_quatre_dining_table_2010-3_gray.png,foreground,same as foreground,n04379243_8,n02828884_4,Stimuli/canonical view 2/img_n04379243_8_gray.jpg,Stimuli/canonical view 2/img_n02828884_4_gray.jpg,random,left,Experiments/experiment_47/284.jpg,Experiments/experiment_47/285.jpg,Experiments/experiment_47/286.jpg,Experiments/experiment_47/287.jpg,358,1,2023-04-17_17h28.55.923,Occlusion_Psychophysics,2022.1.4,Win32,59.99880002,,,right,"[""left""]",[0.8819999999999482],False,,0.0,0.0,71.0,71.0,71.0,1.0,,,,,,
,,,,,,,,,,,,,,,,,,,,,0.05,,,,,,,,,,Stimuli/psy_flexible_rotation_30_objects_occ0.7_0.9s/images/train/n04379243_8/n04379243_-7/img_glass_table_quatre_dining_table_2010_gray.jpg,n04379243_8,n04379243_-7,flexible,0.712071,n04379243_-7,Stimuli/psy_flexible_rotation_30_objects_occ0.7_0.9s/images/train/n04379243_8/n04379243_-7/img_glass_table_quatre_dining_table_2010-3_gray.png,foreground,same as foreground,n04379243_8,n02828884_4,Stimuli/canonical view 2/img_n04379243_8_gray.jpg,Stimuli/canonical view 2/img_n02828884_4_gray.jpg,random,left,Experiments/experiment_47/288.jpg,Experiments/experiment_47/289.jpg,Experiments/experiment_47/290.jpg,Experiments/experiment_47/291.jpg,358,1,2023-04-17_17h28.55.923,Occlusion_Psychophysics,2022.1.4,Win32,59.99880002,,,left,"[""left""]",[0.5047000000001844],True,left,1.0,0.0,72.0,72.0,72.0,1.0,1.3392,,,,,
,,,,,,,,,,,,,,,,,,,,,0.05,,,,,,,,,,Stimuli/psy_flexible_rotation_30_objects_occ0.7_0.9s/images/train/n02818832_3/n04405907_9/img_b05_ccm_contemporary_bed_max2013_vray_004_2001_gray.jpg,n02818832_3,n04405907_9,flexible,0.740468,n04405907_9,Stimuli/psy_flexible_rotation_30_objects_occ0.7_0.9s/images/train/n02818832_3/n04405907_9/img_b05_ccm_contemporary_bed_max2013_vray_004_2001-3_gray.png,foreground,same as foreground,n02818832_3,n02828884_9,Stimuli/canonical view 2/img_n02818832_3_gray.jpg,Stimuli/canonical view 2/img_n02828884_9_gray.jpg,random,left,Experiments/experiment_47/292.jpg,Experiments/experiment_47/293.jpg,Experiments/experiment_47/294.jpg,Experiments/experiment_47/295.jpg,358,1,2023-04-17_17h28.55.923,Occlusion_Psychophysics,2022.1.4,Win32,59.99880002,,,right,"[""left""]",[0.9107000000001335],False,,0.0,0.0,73.0,73.0,73.0,1.0,,,,,,
,,,,,,,,,,,,,,,,,,,,,0.05,,,,,,,,,,Stimuli/psy_flexible_rotation_30_objects_occ0.7_0.9s/images/train/n04405907_8/n04256520_4/img_stylized_tv_club_house_italia_nautilus_sofa_2012_gray.jpg,n04405907_8,n04256520_4,flexible,0.708656,n02933112_4,Stimuli/psy_flexible_rotation_30_objects_occ0.7_0.9s/images/train/n04256520_9/n02933112_4/img_napoleon_iii_sofa_buffet_2001-3_gray.png,random,flexible,n04405907_8,n02933112_4,Stimuli/canonical view 2/img_n04405907_8_gray.jpg,Stimuli/canonical view 2/img_n02933112_4_gray.jpg,random,left,Experiments/experiment_47/296.jpg,Experiments/experiment_47/297.jpg,Experiments/experiment_47/298.jpg,Experiments/experiment_47/299.jpg,358,1,2023-04-17_17h28.55.923,Occlusion_Psychophysics,2022.1.4,Win32,59.99880002,,,left,"[""right""]",[0.5432999999998174],False,,0.0,0.0,74.0,74.0,74.0,1.0,,,,,,
,,,,,,,,,,,,,,,,,,,,,0.05,,,,,,,,,,Stimuli/psy_fixed_rotation_30_objects_occ0.7_0.9s/images/train/n04256520_4/n02828884_4/img_club_house_italia_nautilus_sofa_b05_c-5_classic_series_bench-2012_2006_gray.jpg,n04256520_4,n02828884_4,fixed,0.730275,n02828884_4,Stimuli/psy_fixed_rotation_30_objects_occ0.7_0.9s/images/train/n04256520_4/n02828884_4/img_club_house_italia_nautilus_sofa_b05_c-5_classic_series_bench-2012_2006-3_gray.png,foreground,same as foreground,n04256520_4,n02828884_4,Stimuli/canonical view 2/img_n04256520_4_gray.jpg,Stimuli/canonical view 2/img_n02828884_4_gray.jpg,foreground,right,Experiments/experiment_47/300.jpg,Experiments/experiment_47/301.jpg,Experiments/experiment_47/302.jpg,Experiments/experiment_47/303.jpg,358,1,2023-04-17_17h28.55.923,Occlusion_Psychophysics,2022.1.4,Win32,59.99880002,,,left,"[""left""]",[0.49450000000001637],False,,0.0,0.0,75.0,75.0,75.0,1.0,,,,,,
,,,,,,,,,,,,,,,,,,,,,0.025,,,,,,,,,,Stimuli/psy_fixed_rotation_30_objects_occ0.7_0.9s/images/train/n04405907_9/n02883344_-1/img_vray_004_woven_box_2014_gray.jpg,n04405907_9,n02883344_-1,fixed,0.801266,n04379243_-7,Stimuli/psy_fixed_rotation_30_objects_occ0.7_0.9s/images/train/n03928116_10/n04379243_-7/img_ydp_103_r_2012__vray_quatre_dining_table_2008-3_gray.png,random,fixed,n04405907_9,n02818832_9,Stimuli/canonical view 2/img_n04405907_9_gray.jpg,Stimuli/canonical view 2/img_n02818832_9_gray.jpg,random,left,Experiments/experiment_47/304.jpg,Experiments/experiment_47/305.jpg,Experiments/experiment_47/306.jpg,Experiments/experiment_47/307.jpg,358,1,2023-04-17_17h28.55.923,Occlusion_Psychophysics,2022.1.4,Win32,59.99880002,,,right,"[""left""]",[0.7216000000005351],False,,0.0,0.0,76.0,76.0,76.0,1.0,,,,,,
,,,,,,,,,,,,,,,,,,,,,0.05,,,,,,,,,,Stimuli/psy_fixed_rotation_30_objects_occ0.7_0.9s/images/train/n02883344_-1/n04405907_9/img_woven_box_vray_004_2005_gray.jpg,n02883344_-1,n04405907_9,fixed,0.759109,n02818832_3,Stimuli/psy_flexible_rotation_30_objects_occ0.7_0.9s/images/train/n02818832_0/n02818832_3/img_b03_the_sofa_and_chair_company_-_stanley_bed_2014_b05_ccm_contemporary_bed_max2013_2002-3_gray.png,random,flexible,n02883344_-1,n04405907_9,Stimuli/canonical view 2/img_n02883344_-1_gray.jpg,Stimuli/canonical view 2/img_n04405907_9_gray.jpg,foreground,left,Experiments/experiment_47/308.jpg,Experiments/experiment_47/309.jpg,Experiments/experiment_47/310.jpg,Experiments/experiment_47/311.jpg,358,1,2023-04-17_17h28.55.923,Occlusion_Psychophysics,2022.1.4,Win32,59.99880002,,,left,"[""right""]",[0.4562999999998283],False,,0.0,0.0,77.0,77.0,77.0,1.0,,,,,,
,,,,,,,,,,,,,,,,,,,,,0.05,,,,,,,,,,Stimuli/psy_fixed_rotation_30_objects_occ0.7_0.9s/images/train/n02933112_-18/n03001627_8/img_cgaxis_models_48_26_vray_composite_chair_billiani_doll_2002_gray.jpg,n02933112_-18,n03001627_8,fixed,0.723873,n04405907_5,Stimuli/psy_flexible_rotation_30_objects_occ0.7_0.9s/images/train/n02933112_-2/n04405907_5/img_sink_base_white_wood_samsung_40_uhd_smart_tv_2011_2013-3_gray.png,random,flexible,n02933112_-18,n02933112_-2,Stimuli/canonical view 2/img_n02933112_-18_gray.jpg,Stimuli/canonical view 2/img_n02933112_-2_gray.jpg,random,right,Experiments/experiment_47/312.jpg,Experiments/experiment_47/313.jpg,Experiments/experiment_47/314.jpg,Experiments/experiment_47/315.jpg,358,1,2023-04-17_17h28.55.923,Occlusion_Psychophysics,2022.1.4,Win32,59.99880002,,,left,"[""right""]",[0.6379000000003998],False,,0.0,0.0,78.0,78.0,78.0,1.0,,,,,,
,,,,,,,,,,,,,,,,,,,,,0.025,,,,,,,,,,Stimuli/psy_fixed_rotation_30_objects_occ0.7_0.9s/images/train/n04405907_5/n04256520_4/img_samsung_40_uhd_smart_tv_2011_club_house_italia_nautilus_sofa_2004_gray.jpg,n04405907_5,n04256520_4,fixed,0.717825,n02883344_-1,Stimuli/psy_flexible_rotation_30_objects_occ0.7_0.9s/images/train/n02883344_15/n02883344_-1/img_microwave_box_woven_box_2006-3_gray.png,random,flexible,n04405907_5,n02933112_4,Stimuli/canonical view 2/img_n04405907_5_gray.jpg,Stimuli/canonical view 2/img_n02933112_4_gray.jpg,random,right,Experiments/experiment_47/316.jpg,Experiments/experiment_47/317.jpg,Experiments/experiment_47/318.jpg,Experiments/experiment_47/319.jpg,358,1,2023-04-17_17h28.55.923,Occlusion_Psychophysics,2022.1.4,Win32,59.99880002,,,left,"[""right""]",[0.6937999999997828],False,,0.0,0.0,79.0,79.0,79.0,1.0,,,,,,
,,,,,,,,,,,,,,,,,,,,,0.05,,,,,,,,,,Stimuli/psy_fixed_rotation_30_objects_occ0.7_0.9s/images/train/n02828884_9/n02933112_-2/img_cr-96_bench_sink_base_white_wood_2005_gray.jpg,n02828884_9,n02933112_-2,fixed,0.717976,n04405907_8,Stimuli/psy_flexible_rotation_30_objects_occ0.7_0.9s/images/train/n02818832_0/n04405907_8/img_b03_the_sofa_and_chair_company_-_stanley_bed_2014_stylized_tv_2014-3_gray.png,random,flexible,n02828884_9,n02828884_4,Stimuli/canonical view 2/img_n02828884_9_gray.jpg,Stimuli/canonical view 2/img_n02828884_4_gray.jpg,random,right,Experiments/experiment_47/320.jpg,Experiments/experiment_47/321.jpg,Experiments/experiment_47/322.jpg,Experiments/experiment_47/323.jpg,358,1,2023-04-17_17h28.55.923,Occlusion_Psychophysics,2022.1.4,Win32,59.99880002,,,right,"[""right""]",[0.7214999999999918],False,,0.0,0.0,80.0,80.0,80.0,1.0,,,,,,
,,,,,,,,,,,,,,,,,,,,,0.025,,,,,,,,,,Stimuli/psy_fixed_rotation_30_objects_occ0.7_0.9s/images/train/n02883344_15/n04379243_0/img_microwave_box_17th_c._monastery_dining_table_2010_2010_gray.jpg,n02883344_15,n04379243_0,fixed,0.791218,n03928116_4,Stimuli/psy_fixed_rotation_30_objects_occ0.7_0.9s/images/train/n04379243_0/n03928116_4/img_17th_c._monastery_dining_table_2010_dp_33_b_2013__vray_2013-3_gray.png,random,fixed,n02883344_15,n04379243_0,Stimuli/canonical view 2/img_n02883344_15_gray.jpg,Stimuli/canonical view 2/img_n04379243_0_gray.jpg,foreground,right,Experiments/experiment_47/324.jpg,Experiments/experiment_47/325.jpg,Experiments/experiment_47/326.jpg,Experiments/experiment_47/327.jpg,358,1,2023-04-17_17h28.55.923,Occlusion_Psychophysics,2022.1.4,Win32,59.99880002,,,right,"[""left""]",[0.5045000000000073],False,,0.0,0.0,81.0,81.0,81.0,1.0,,,,,,
,,,,,,,,,,,,,,,,,,,,,0.05,,,,,,,,,,Stimuli/psy_fixed_rotation_30_objects_occ0.7_0.9s/images/train/n02933112_4/n04256520_9/img_buffet_napoleon_iii_sofa_2007_gray.jpg,n02933112_4,n04256520_9,fixed,0.701414,n04256520_9,Stimuli/psy_fixed_rotation_30_objects_occ0.7_0.9s/images/train/n02933112_4/n04256520_9/img_buffet_napoleon_iii_sofa_2007-3_gray.png,foreground,same as foreground,n02933112_4,n04256520_9,Stimuli/canonical view 2/img_n02933112_4_gray.jpg,Stimuli/canonical view 2/img_n04256520_9_gray.jpg,foreground,left,Experiments/experiment_47/328.jpg,Experiments/experiment_47/329.jpg,Experiments/experiment_47/330.jpg,Experiments/experiment_47/331.jpg,358,1,2023-04-17_17h28.55.923,Occlusion_Psychophysics,2022.1.4,Win32,59.99880002,,,left,"[""right""]",[0.5712999999998374],False,,0.0,0.0,82.0,82.0,82.0,1.0,,,,,,
,,,,,,,,,,,,,,,,,,,,,0.025,,,,,,,,,,Stimuli/psy_flexible_rotation_30_objects_occ0.7_0.9s/images/train/n02933112_-2/n04405907_5/img_sink_base_white_wood_samsung_40_uhd_smart_tv_2011_2011_gray.jpg,n02933112_-2,n04405907_5,flexible,0.789159,n02883344_-1,Stimuli/psy_fixed_rotation_30_objects_occ0.7_0.9s/images/train/n04379243_-7/n02883344_-1/img_quatre_dining_table_woven_box_2004-3_gray.png,random,fixed,n02933112_-2,n02828884_4,Stimuli/canonical view 2/img_n02933112_-2_gray.jpg,Stimuli/canonical view 2/img_n02828884_4_gray.jpg,random,left,Experiments/experiment_47/332.jpg,Experiments/experiment_47/333.jpg,Experiments/experiment_47/334.jpg,Experiments/experiment_47/335.jpg,358,1,2023-04-17_17h28.55.923,Occlusion_Psychophysics,2022.1.4,Win32,59.99880002,,,right,"[""right""]",[0.6778999999994539],False,,0.0,0.0,83.0,83.0,83.0,1.0,,,,,,
,,,,,,,,,,,,,,,,,,,,,0.05,,,,,,,,,,Stimuli/psy_fixed_rotation_30_objects_occ0.7_0.9s/images/train/n04256520_4/n03928116_10/img_club_house_italia_nautilus_sofa_ydp_103_r_2012__vray_2002_gray.jpg,n04256520_4,n03928116_10,fixed,0.787522,n03928116_10,Stimuli/psy_fixed_rotation_30_objects_occ0.7_0.9s/images/train/n04256520_4/n03928116_10/img_club_house_italia_nautilus_sofa_ydp_103_r_2012__vray_2002-3_gray.png,foreground,same as foreground,n04256520_4,n04379243_0,Stimuli/canonical view 2/img_n04256520_4_gray.jpg,Stimuli/canonical view 2/img_n04379243_0_gray.jpg,random,right,Experiments/experiment_47/336.jpg,Experiments/experiment_47/337.jpg,Experiments/experiment_47/338.jpg,Experiments/experiment_47/339.jpg,358,1,2023-04-17_17h28.55.923,Occlusion_Psychophysics,2022.1.4,Win32,59.99880002,,,left,"[""right""]",[0.49589999999943757],False,,0.0,0.0,84.0,84.0,84.0,1.0,,,,,,
,,,,,,,,,,,,,,,,,,,,,0.025,,,,,,,,,,Stimuli/psy_flexible_rotation_30_objects_occ0.7_0.9s/images/train/n04379243_0/n04256520_5/img_17th_c._monastery_dining_table_2010_meridiani_belmondo_bench_sofa_2011_gray.jpg,n04379243_0,n04256520_5,flexible,0.716321,n04256520_5,Stimuli/psy_flexible_rotation_30_objects_occ0.7_0.9s/images/train/n04379243_0/n04256520_5/img_17th_c._monastery_dining_table_2010_meridiani_belmondo_bench_sofa_2011-3_gray.png,foreground,same as foreground,n04379243_0,n04256520_5,Stimuli/canonical view 2/img_n04379243_0_gray.jpg,Stimuli/canonical view 2/img_n04256520_5_gray.jpg,foreground,left,Experiments/experiment_47/340.jpg,Experiments/experiment_47/341.jpg,Experiments/experiment_47/342.jpg,Experiments/experiment_47/343.jpg,358,1,2023-04-17_17h28.55.923,Occlusion_Psychophysics,2022.1.4,Win32,59.99880002,,,right,"[""right""]",[0.5292999999998074],False,,0.0,0.0,85.0,85.0,85.0,1.0,,,,,,
,,,,,,,,,,,,,,,,,,,,,0.025,,,,,,,,,,Stimuli/psy_fixed_rotation_30_objects_occ0.7_0.9s/images/train/n04405907_9/n04256520_9/img_vray_004_napoleon_iii_sofa_2002_gray.jpg,n04405907_9,n04256520_9,fixed,0.800589,n02818832_0,Stimuli/psy_flexible_rotation_30_objects_occ0.7_0.9s/images/train/n04070727_3/n02818832_0/img_b05_db_apps_tech_06_02_2_composite_b03_the_sofa_and_chair_company_-_stanley_bed_2014_2004-3_gray.png,random,flexible,n04405907_9,n03928116_4,Stimuli/canonical view 2/img_n04405907_9_gray.jpg,Stimuli/canonical view 2/img_n03928116_4_gray.jpg,random,left,Experiments/experiment_47/344.jpg,Experiments/experiment_47/345.jpg,Experiments/experiment_47/346.jpg,Experiments/experiment_47/347.jpg,358,1,2023-04-17_17h28.55.923,Occlusion_Psychophysics,2022.1.4,Win32,59.99880002,,,right,"[""left""]",[0.49749999999994543],False,,0.0,0.0,86.0,86.0,86.0,1.0,,,,,,
,,,,,,,,,,,,,,,,,,,,,0.025,,,,,,,,,,Stimuli/psy_fixed_rotation_30_objects_occ0.7_0.9s/images/train/n02828884_9/n02933112_-2/img_cr-96_bench_sink_base_white_wood_2011_gray.jpg,n02828884_9,n02933112_-2,fixed,0.72253,n02933112_-2,Stimuli/psy_fixed_rotation_30_objects_occ0.7_0.9s/images/train/n02828884_9/n02933112_-2/img_cr-96_bench_sink_base_white_wood_2011-3_gray.png,foreground,same as foreground,n02828884_9,n02828884_4,Stimuli/canonical view 2/img_n02828884_9_gray.jpg,Stimuli/canonical view 2/img_n02828884_4_gray.jpg,random,right,Experiments/experiment_47/348.jpg,Experiments/experiment_47/349.jpg,Experiments/experiment_47/350.jpg,Experiments/experiment_47/351.jpg,358,1,2023-04-17_17h28.55.923,Occlusion_Psychophysics,2022.1.4,Win32,59.99880002,,,left,"[""right""]",[0.48779999999976553],False,,0.0,0.0,87.0,87.0,87.0,1.0,,,,,,
,,,,,,,,,,,,,,,,,,,,,0.05,,,,,,,,,,Stimuli/psy_flexible_rotation_30_objects_occ0.7_0.9s/images/train/n02818832_9/n02883344_15/img_bed01_blue_microwave_box_2015_gray.jpg,n02818832_9,n02883344_15,flexible,0.820306,n02828884_3,Stimuli/psy_fixed_rotation_30_objects_occ0.7_0.9s/images/train/n04256520_5/n02828884_3/img_meridiani_belmondo_bench_sofa_b04_wood_metal_park_bench_2014-3_gray.png,random,fixed,n02818832_9,n02883344_15,Stimuli/canonical view 2/img_n02818832_9_gray.jpg,Stimuli/canonical view 2/img_n02883344_15_gray.jpg,foreground,right,Experiments/experiment_47/352.jpg,Experiments/experiment_47/353.jpg,Experiments/experiment_47/354.jpg,Experiments/experiment_47/355.jpg,358,1,2023-04-17_17h28.55.923,Occlusion_Psychophysics,2022.1.4,Win32,59.99880002,,,left,"[""right""]",[0.5798999999993839],False,,0.0,0.0,88.0,88.0,88.0,1.0,,,,,,
,,,,,,,,,,,,,,,,,,,,,0.05,,,,,,,,,,Stimuli/psy_fixed_rotation_30_objects_occ0.7_0.9s/images/train/n02883344_0/n02933112_-18/img_b03_box_cgaxis_models_48_26_vray_composite_2013_gray.jpg,n02883344_0,n02933112_-18,fixed,0.835117,n02933112_-18,Stimuli/psy_fixed_rotation_30_objects_occ0.7_0.9s/images/train/n02883344_0/n02933112_-18/img_b03_box_cgaxis_models_48_26_vray_composite_2013-3_gray.png,foreground,same as foreground,n02883344_0,n04256520_9,Stimuli/canonical view 2/img_n02883344_0_gray.jpg,Stimuli/canonical view 2/img_n04256520_9_gray.jpg,random,right,Experiments/experiment_47/356.jpg,Experiments/experiment_47/357.jpg,Experiments/experiment_47/358.jpg,Experiments/experiment_47/359.jpg,358,1,2023-04-17_17h28.55.923,Occlusion_Psychophysics,2022.1.4,Win32,59.99880002,,,left,"[""right""]",[0.6259999999999764],False,,0.0,0.0,89.0,89.0,89.0,1.0,,,,,,
,,,,,,,,,,,,,,,,,,,,,0.025,,,,,,,,,,Stimuli/psy_fixed_rotation_30_objects_occ0.7_0.9s/images/train/n04256520_5/n04405907_5/img_meridiani_belmondo_bench_sofa_samsung_40_uhd_smart_tv_2011_2012_gray.jpg,n04256520_5,n04405907_5,fixed,0.792529,n04405907_8,Stimuli/psy_fixed_rotation_30_objects_occ0.7_0.9s/images/train/n03001627_9/n04405907_8/img_chair_eames_plastic_armchair_stylized_tv_2004-3_gray.png,random,fixed,n04256520_5,n02883344_0,Stimuli/canonical view 2/img_n04256520_5_gray.jpg,Stimuli/canonical view 2/img_n02883344_0_gray.jpg,random,right,Experiments/experiment_47/360.jpg,Experiments/experiment_47/361.jpg,Experiments/experiment_47/362.jpg,Experiments/experiment_47/363.jpg,358,1,2023-04-17_17h28.55.923,Occlusion_Psychophysics,2022.1.4,Win32,59.99880002,,,right,"[""left""]",[0.2714000000003125],False,,0.0,0.0,90.0,90.0,90.0,1.0,,,,,,
,,,,,,,,,,,,,,,,,,,,,0.025,,,,,,,,,,Stimuli/psy_flexible_rotation_30_objects_occ0.7_0.9s/images/train/n04256520_4/n02933112_-2/img_club_house_italia_nautilus_sofa_sink_base_white_wood_2007_gray.jpg,n04256520_4,n02933112_-2,flexible,0.738513,n04405907_5,Stimuli/psy_fixed_rotation_30_objects_occ0.7_0.9s/images/train/n04256520_9/n04405907_5/img_napoleon_iii_sofa_samsung_40_uhd_smart_tv_2011_2013-3_gray.png,random,fixed,n04256520_4,n03928116_0,Stimuli/canonical view 2/img_n04256520_4_gray.jpg,Stimuli/canonical view 2/img_n03928116_0_gray.jpg,random,right,Experiments/experiment_47/364.jpg,Experiments/experiment_47/365.jpg,Experiments/experiment_47/366.jpg,Experiments/experiment_47/367.jpg,358,1,2023-04-17_17h28.55.923,Occlusion_Psychophysics,2022.1.4,Win32,59.99880002,,,left,"[""right""]",[0.7120999999996229],False,,0.0,0.0,91.0,91.0,91.0,1.0,,,,,,
,,,,,,,,,,,,,,,,,,,,,0.05,,,,,,,,,,Stimuli/psy_fixed_rotation_30_objects_occ0.7_0.9s/images/train/n04405907_9/n02883344_-1/img_vray_004_woven_box_2008_gray.jpg,n04405907_9,n02883344_-1,fixed,0.784728,n02883344_-1,Stimuli/psy_fixed_rotation_30_objects_occ0.7_0.9s/images/train/n04405907_9/n02883344_-1/img_vray_004_woven_box_2008-3_gray.png,foreground,same as foreground,n04405907_9,n03928116_10,Stimuli/canonical view 2/img_n04405907_9_gray.jpg,Stimuli/canonical view 2/img_n03928116_10_gray.jpg,random,right,Experiments/experiment_47/368.jpg,Experiments/experiment_47/369.jpg,Experiments/experiment_47/370.jpg,Experiments/experiment_47/371.jpg,358,1,2023-04-17_17h28.55.923,Occlusion_Psychophysics,2022.1.4,Win32,59.99880002,,,right,"[""right""]",[0.6727000000001908],False,,0.0,0.0,92.0,92.0,92.0,1.0,,,,,,
,,,,,,,,,,,,,,,,,,,,,0.025,,,,,,,,,,Stimuli/psy_fixed_rotation_30_objects_occ0.7_0.9s/images/train/n02818832_0/n04379243_-7/img_b03_the_sofa_and_chair_company_-_stanley_bed_2014_quatre_dining_table_2011_gray.jpg,n02818832_0,n04379243_-7,fixed,0.726161,n02883344_0,Stimuli/psy_flexible_rotation_30_objects_occ0.7_0.9s/images/train/n04256520_9/n02883344_0/img_napoleon_iii_sofa_b03_box_2013-3_gray.png,random,flexible,n02818832_0,n02818832_9,Stimuli/canonical view 2/img_n02818832_0_gray.jpg,Stimuli/canonical view 2/img_n02818832_9_gray.jpg,random,right,Experiments/experiment_47/372.jpg,Experiments/experiment_47/373.jpg,Experiments/experiment_47/374.jpg,Experiments/experiment_47/375.jpg,358,1,2023-04-17_17h28.55.923,Occlusion_Psychophysics,2022.1.4,Win32,59.99880002,,,left,"[""left""]",[0.5225999999996702],False,,0.0,0.0,93.0,93.0,93.0,1.0,,,,,,
,,,,,,,,,,,,,,,,,,,,,0.05,,,,,,,,,,Stimuli/psy_fixed_rotation_30_objects_occ0.7_0.9s/images/train/n02828884_3/n04405907_9/img_b04_wood_metal_park_bench_vray_004_2007_gray.jpg,n02828884_3,n04405907_9,fixed,0.720018,n04405907_9,Stimuli/psy_fixed_rotation_30_objects_occ0.7_0.9s/images/train/n02828884_3/n04405907_9/img_b04_wood_metal_park_bench_vray_004_2007-3_gray.png,foreground,same as foreground,n02828884_3,n04405907_9,Stimuli/canonical view 2/img_n02828884_3_gray.jpg,Stimuli/canonical view 2/img_n04405907_9_gray.jpg,foreground,left,Experiments/experiment_47/376.jpg,Experiments/experiment_47/377.jpg,Experiments/experiment_47/378.jpg,Experiments/experiment_47/379.jpg,358,1,2023-04-17_17h28.55.923,Occlusion_Psychophysics,2022.1.4,Win32,59.99880002,,,left,"[""right""]",[0.44279999999980646],False,,0.0,0.0,94.0,94.0,94.0,1.0,,,,,,
,,,,,,,,,,,,,,,,,,,,,0.025,,,,,,,,,,Stimuli/psy_flexible_rotation_30_objects_occ0.7_0.9s/images/train/n03928116_10/n02933112_4/img_ydp_103_r_2012__vray_buffet_2003_gray.jpg,n03928116_10,n02933112_4,flexible,0.706877,n02818832_3,Stimuli/psy_flexible_rotation_30_objects_occ0.7_0.9s/images/train/n04256520_9/n02818832_3/img_napoleon_iii_sofa_b05_ccm_contemporary_bed_max2013_2013-3_gray.png,random,flexible,n03928116_10,n04379243_-7,Stimuli/canonical view 2/img_n03928116_10_gray.jpg,Stimuli/canonical view 2/img_n04379243_-7_gray.jpg,random,left,Experiments/experiment_47/380.jpg,Experiments/experiment_47/381.jpg,Experiments/experiment_47/382.jpg,Experiments/experiment_47/383.jpg,358,1,2023-04-17_17h28.55.923,Occlusion_Psychophysics,2022.1.4,Win32,59.99880002,,,right,"[""left""]",[0.6059999999999945],False,,0.0,0.0,95.0,95.0,95.0,1.0,,,,,,
,,,,,,,,,,,,,,,,,,,,,0.05,,,,,,,,,,Stimuli/psy_fixed_rotation_30_objects_occ0.7_0.9s/images/train/n02818832_9/n02883344_0/img_bed01_blue_b03_box_2008_gray.jpg,n02818832_9,n02883344_0,fixed,0.773624,n02883344_0,Stimuli/psy_fixed_rotation_30_objects_occ0.7_0.9s/images/train/n02818832_9/n02883344_0/img_bed01_blue_b03_box_2008-3_gray.png,foreground,same as foreground,n02818832_9,n02883344_0,Stimuli/canonical view 2/img_n02818832_9_gray.jpg,Stimuli/canonical view 2/img_n02883344_0_gray.jpg,foreground,right,Experiments/experiment_47/384.jpg,Experiments/experiment_47/385.jpg,Experiments/experiment_47/386.jpg,Experiments/experiment_47/387.jpg,358,1,2023-04-17_17h28.55.923,Occlusion_Psychophysics,2022.1.4,Win32,59.99880002,,,right,"[""right""]",[0.506600000000617],False,,0.0,0.0,96.0,96.0,96.0,1.0,,,,,,
,,,,,,,,,,,,,,,,,,,,,0.05,,,,,,,,,,Stimuli/psy_fixed_rotation_30_objects_occ0.7_0.9s/images/train/n04405907_9/n02883344_-1/img_vray_004_woven_box_2009_gray.jpg,n04405907_9,n02883344_-1,fixed,0.76177,n04256520_5,Stimuli/psy_fixed_rotation_30_objects_occ0.7_0.9s/images/train/n02883344_0/n04256520_5/img_b03_box_meridiani_belmondo_bench_sofa_2012-3_gray.png,random,fixed,n04405907_9,n02883344_15,Stimuli/canonical view 2/img_n04405907_9_gray.jpg,Stimuli/canonical view 2/img_n02883344_15_gray.jpg,random,right,Experiments/experiment_47/388.jpg,Experiments/experiment_47/389.jpg,Experiments/experiment_47/390.jpg,Experiments/experiment_47/391.jpg,358,1,2023-04-17_17h28.55.923,Occlusion_Psychophysics,2022.1.4,Win32,59.99880002,,,right,"[""right""]",[0.5074999999999363],False,,0.0,0.0,97.0,97.0,97.0,1.0,,,,,,
,,,,,,,,,,,,,,,,,,,,,0.05,,,,,,,,,,Stimuli/psy_flexible_rotation_30_objects_occ0.7_0.9s/images/train/n03001627_9/n04256520_4/img_chair_eames_plastic_armchair_club_house_italia_nautilus_sofa_2000_gray.jpg,n03001627_9,n04256520_4,flexible,0.726688,n02883344_-1,Stimuli/psy_fixed_rotation_30_objects_occ0.7_0.9s/images/train/n02933112_4/n02883344_-1/img_buffet_woven_box_2013-3_gray.png,random,fixed,n03001627_9,n04256520_4,Stimuli/canonical view 2/img_n03001627_9_gray.jpg,Stimuli/canonical view 2/img_n04256520_4_gray.jpg,foreground,right,Experiments/experiment_47/392.jpg,Experiments/experiment_47/393.jpg,Experiments/experiment_47/394.jpg,Experiments/experiment_47/395.jpg,358,1,2023-04-17_17h28.55.923,Occlusion_Psychophysics,2022.1.4,Win32,59.99880002,,,right,"[""left""]",[0.44420000000025084],False,,0.0,0.0,98.0,98.0,98.0,1.0,,,,,,
,,,,,,,,,,,,,,,,,,,,,0.05,,,,,,,,,,Stimuli/psy_fixed_rotation_30_objects_occ0.7_0.9s/images/train/n02818832_9/n02883344_0/img_bed01_blue_b03_box_2009_gray.jpg,n02818832_9,n02883344_0,fixed,0.736017,n02818832_0,Stimuli/psy_flexible_rotation_30_objects_occ0.7_0.9s/images/train/n02828884_4/n02818832_0/img_b05_c-5_classic_series_bench-2012_b03_the_sofa_and_chair_company_-_stanley_bed_2014_2014-3_gray.png,random,flexible,n02818832_9,n03928116_10,Stimuli/canonical view 2/img_n02818832_9_gray.jpg,Stimuli/canonical view 2/img_n03928116_10_gray.jpg,random,right,Experiments/experiment_47/396.jpg,Experiments/experiment_47/397.jpg,Experiments/experiment_47/398.jpg,Experiments/experiment_47/399.jpg,358,1,2023-04-17_17h28.55.923,Occlusion_Psychophysics,2022.1.4,Win32,59.99880002,,,left,"[""right""]",[0.3712999999997919],False,,0.0,0.0,99.0,99.0,99.0,1.0,,,,,,
,,,,,,,,,,,,,,,,,,,,,,,,,,,,,,,,,,,,,,,,,,,,,,,,,,358,1,2023-04-17_17h28.55.923,Occlusion_Psychophysics,2022.1.4,Win32,59.99880002,,,,,,,,,,,,,,,0.0,0.0,0.0,0.0,1.0
,,,,,,,,,,,,,,,,,,,,,0.05,,,,,,,,,,Stimuli/psy_fixed_rotation_30_objects_occ0.7_0.9s/images/train/n02883344_-1/n02828884_3/img_woven_box_b04_wood_metal_park_bench_2002_gray.jpg,n02883344_-1,n02828884_3,fixed,0.73879,n02828884_3,Stimuli/psy_fixed_rotation_30_objects_occ0.7_0.9s/images/train/n02883344_-1/n02828884_3/img_woven_box_b04_wood_metal_park_bench_2002-3_gray.png,foreground,same as foreground,n02883344_-1,n03928116_0,Stimuli/canonical view 2/img_n02883344_-1_gray.jpg,Stimuli/canonical view 2/img_n03928116_0_gray.jpg,random,left,Experiments/experiment_47/400.jpg,Experiments/experiment_47/401.jpg,Experiments/experiment_47/402.jpg,Experiments/experiment_47/403.jpg,358,1,2023-04-17_17h28.55.923,Occlusion_Psychophysics,2022.1.4,Win32,59.99880002,,,right,"[""right""]",[0.48809999999957654],False,,0.0,0.0,0.0,0.0,0.0,1.0,,,,,,
,,,,,,,,,,,,,,,,,,,,,0.025,,,,,,,,,,Stimuli/psy_flexible_rotation_30_objects_occ0.7_0.9s/images/train/n04256520_5/n02883344_-1/img_meridiani_belmondo_bench_sofa_woven_box_2010_gray.jpg,n04256520_5,n02883344_-1,flexible,0.748574,n04405907_8,Stimuli/psy_fixed_rotation_30_objects_occ0.7_0.9s/images/train/n04070727_5/n04405907_8/img_b05_db_apps_tech_06_13_composite_stylized_tv_2011-3_gray.png,random,fixed,n04256520_5,n04379243_0,Stimuli/canonical view 2/img_n04256520_5_gray.jpg,Stimuli/canonical view 2/img_n04379243_0_gray.jpg,random,right,Experiments/experiment_47/404.jpg,Experiments/experiment_47/405.jpg,Experiments/experiment_47/406.jpg,Experiments/experiment_47/407.jpg,358,1,2023-04-17_17h28.55.923,Occlusion_Psychophysics,2022.1.4,Win32,59.99880002,,,left,"[""right""]",[0.4879999999999427],False,,0.0,0.0,1.0,1.0,1.0,1.0,,,,,,
,,,,,,,,,,,,,,,,,,,,,0.05,,,,,,,,,,Stimuli/psy_fixed_rotation_30_objects_occ0.7_0.9s/images/train/n02933112_4/n02883344_15/img_buffet_microwave_box_2009_gray.jpg,n02933112_4,n02883344_15,fixed,0.86264,n04256520_4,Stimuli/psy_fixed_rotation_30_objects_occ0.7_0.9s/images/train/n02828884_9/n04256520_4/img_cr-96_bench_club_house_italia_nautilus_sofa_2006-3_gray.png,random,fixed,n02933112_4,n02883344_15,Stimuli/canonical view 2/img_n02933112_4_gray.jpg,Stimuli/canonical view 2/img_n02883344_15_gray.jpg,foreground,right,Experiments/experiment_47/408.jpg,Experiments/experiment_47/409.jpg,Experiments/experiment_47/410.jpg,Experiments/experiment_47/411.jpg,358,1,2023-04-17_17h28.55.923,Occlusion_Psychophysics,2022.1.4,Win32,59.99880002,,,right,"[""right""]",[0.5986000000004879],False,,0.0,0.0,2.0,2.0,2.0,1.0,,,,,,
,,,,,,,,,,,,,,,,,,,,,0.05,,,,,,,,,,Stimuli/psy_fixed_rotation_30_objects_occ0.7_0.9s/images/train/n04379243_8/n02883344_15/img_glass_table_microwave_box_2004_gray.jpg,n04379243_8,n02883344_15,fixed,0.759025,n02883344_15,Stimuli/psy_fixed_rotation_30_objects_occ0.7_0.9s/images/train/n04379243_8/n02883344_15/img_glass_table_microwave_box_2004-3_gray.png,foreground,same as foreground,n04379243_8,n02883344_15,Stimuli/canonical view 2/img_n04379243_8_gray.jpg,Stimuli/canonical view 2/img_n02883344_15_gray.jpg,foreground,left,Experiments/experiment_47/412.jpg,Experiments/experiment_47/413.jpg,Experiments/experiment_47/414.jpg,Experiments/experiment_47/415.jpg,358,1,2023-04-17_17h28.55.923,Occlusion_Psychophysics,2022.1.4,Win32,59.99880002,,,left,"[""right""]",[0.8712000000001581],False,,0.0,0.0,3.0,3.0,3.0,1.0,,,,,,
,,,,,,,,,,,,,,,,,,,,,0.025,,,,,,,,,,Stimuli/psy_flexible_rotation_30_objects_occ0.7_0.9s/images/train/n03928116_0/n03001627_9/img_b02_piano_chair_eames_plastic_armchair_2002_gray.jpg,n03928116_0,n03001627_9,flexible,0.743432,n02883344_-1,Stimuli/psy_flexible_rotation_30_objects_occ0.7_0.9s/images/train/n02828884_4/n02883344_-1/img_b05_c-5_classic_series_bench-2012_woven_box_2001-3_gray.png,random,flexible,n03928116_0,n03001627_9,Stimuli/canonical view 2/img_n03928116_0_gray.jpg,Stimuli/canonical view 2/img_n03001627_9_gray.jpg,foreground,right,Experiments/experiment_47/416.jpg,Experiments/experiment_47/417.jpg,Experiments/experiment_47/418.jpg,Experiments/experiment_47/419.jpg,358,1,2023-04-17_17h28.55.923,Occlusion_Psychophysics,2022.1.4,Win32,59.99880002,,,left,"[""left""]",[0.4713999999994485],False,,0.0,0.0,4.0,4.0,4.0,1.0,,,,,,
,,,,,,,,,,,,,,,,,,,,,0.025,,,,,,,,,,Stimuli/psy_flexible_rotation_30_objects_occ0.7_0.9s/images/train/n04256520_9/n02933112_-2/img_napoleon_iii_sofa_sink_base_white_wood_2014_gray.jpg,n04256520_9,n02933112_-2,flexible,0.833074,n02933112_-2,Stimuli/psy_flexible_rotation_30_objects_occ0.7_0.9s/images/train/n04256520_9/n02933112_-2/img_napoleon_iii_sofa_sink_base_white_wood_2014-3_gray.png,foreground,same as foreground,n04256520_9,n02933112_-2,Stimuli/canonical view 2/img_n04256520_9_gray.jpg,Stimuli/canonical view 2/img_n02933112_-2_gray.jpg,foreground,right,Experiments/experiment_47/420.jpg,Experiments/experiment_47/421.jpg,Experiments/experiment_47/422.jpg,Experiments/experiment_47/423.jpg,358,1,2023-04-17_17h28.55.923,Occlusion_Psychophysics,2022.1.4,Win32,59.99880002,,,left,"[""left""]",[0.6643000000007078],False,,0.0,0.0,5.0,5.0,5.0,1.0,,,,,,
,,,,,,,,,,,,,,,,,,,,,0.05,,,,,,,,,,Stimuli/psy_flexible_rotation_30_objects_occ0.7_0.9s/images/train/n04256520_9/n04405907_5/img_napoleon_iii_sofa_samsung_40_uhd_smart_tv_2011_2006_gray.jpg,n04256520_9,n04405907_5,flexible,0.834423,n02818832_9,Stimuli/psy_fixed_rotation_30_objects_occ0.7_0.9s/images/train/n03928116_10/n02818832_9/img_ydp_103_r_2012__vray_bed01_blue_2001-3_gray.png,random,fixed,n04256520_9,n03001627_9,Stimuli/canonical view 2/img_n04256520_9_gray.jpg,Stimuli/canonical view 2/img_n03001627_9_gray.jpg,random,right,Experiments/experiment_47/424.jpg,Experiments/experiment_47/425.jpg,Experiments/experiment_47/426.jpg,Experiments/experiment_47/427.jpg,358,1,2023-04-17_17h28.55.923,Occlusion_Psychophysics,2022.1.4,Win32,59.99880002,,,right,"[""right""]",[0.438099999999622],False,,0.0,0.0,6.0,6.0,6.0,1.0,,,,,,
,,,,,,,,,,,,,,,,,,,,,0.05,,,,,,,,,,Stimuli/psy_flexible_rotation_30_objects_occ0.7_0.9s/images/train/n02933112_-2/n04256520_4/img_sink_base_white_wood_club_house_italia_nautilus_sofa_2012_gray.jpg,n02933112_-2,n04256520_4,flexible,0.784797,n04256520_5,Stimuli/psy_fixed_rotation_30_objects_occ0.7_0.9s/images/train/n02883344_0/n04256520_5/img_b03_box_meridiani_belmondo_bench_sofa_2007-3_gray.png,random,fixed,n02933112_-2,n03001627_8,Stimuli/canonical view 2/img_n02933112_-2_gray.jpg,Stimuli/canonical view 2/img_n03001627_8_gray.jpg,random,left,Experiments/experiment_47/428.jpg,Experiments/experiment_47/429.jpg,Experiments/experiment_47/430.jpg,Experiments/experiment_47/431.jpg,358,1,2023-04-17_17h28.55.923,Occlusion_Psychophysics,2022.1.4,Win32,59.99880002,,,left,"[""left""]",[0.4879999999999427],False,,0.0,0.0,7.0,7.0,7.0,1.0,,,,,,
,,,,,,,,,,,,,,,,,,,,,0.05,,,,,,,,,,Stimuli/psy_fixed_rotation_30_objects_occ0.7_0.9s/images/train/n03001627_9/n04405907_8/img_chair_eames_plastic_armchair_stylized_tv_2001_gray.jpg,n03001627_9,n04405907_8,fixed,0.78341,n04405907_5,Stimuli/psy_fixed_rotation_30_objects_occ0.7_0.9s/images/train/n03928116_0/n04405907_5/img_b02_piano_samsung_40_uhd_smart_tv_2011_2005-3_gray.png,random,fixed,n03001627_9,n04405907_8,Stimuli/canonical view 2/img_n03001627_9_gray.jpg,Stimuli/canonical view 2/img_n04405907_8_gray.jpg,foreground,left,Experiments/experiment_47/432.jpg,Experiments/experiment_47/433.jpg,Experiments/experiment_47/434.jpg,Experiments/experiment_47/435.jpg,358,1,2023-04-17_17h28.55.923,Occlusion_Psychophysics,2022.1.4,Win32,59.99880002,,,right,"[""right""]",[0.5546999999992295],False,,0.0,0.0,8.0,8.0,8.0,1.0,,,,,,
,,,,,,,,,,,,,,,,,,,,,0.025,,,,,,,,,,Stimuli/psy_fixed_rotation_30_objects_occ0.7_0.9s/images/train/n03001627_-2/n04405907_8/img_wood_chair_stylized_tv_2000_gray.jpg,n03001627_-2,n04405907_8,fixed,0.841176,n02828884_3,Stimuli/psy_fixed_rotation_30_objects_occ0.7_0.9s/images/train/n02828884_4/n02828884_3/img_b05_c-5_classic_series_bench-2012_b04_wood_metal_park_bench_2000-3_gray.png,random,fixed,n03001627_-2,n04405907_8,Stimuli/canonical view 2/img_n03001627_-2_gray.jpg,Stimuli/canonical view 2/img_n04405907_8_gray.jpg,foreground,right,Experiments/experiment_47/436.jpg,Experiments/experiment_47/437.jpg,Experiments/experiment_47/438.jpg,Experiments/experiment_47/439.jpg,358,1,2023-04-17_17h28.55.923,Occlusion_Psychophysics,2022.1.4,Win32,59.99880002,,,right,"[""right""]",[0.5712000000000899],True,right,1.0,0.0,9.0,9.0,9.0,1.0,1.6582,,,,,
,,,,,,,,,,,,,,,,,,,,,0.025,,,,,,,,,,Stimuli/psy_flexible_rotation_30_objects_occ0.7_0.9s/images/train/n02933112_-18/n02818832_9/img_cgaxis_models_48_26_vray_composite_bed01_blue_2015_gray.jpg,n02933112_-18,n02818832_9,flexible,0.792879,n02818832_9,Stimuli/psy_flexible_rotation_30_objects_occ0.7_0.9s/images/train/n02933112_-18/n02818832_9/img_cgaxis_models_48_26_vray_composite_bed01_blue_2015-3_gray.png,foreground,same as foreground,n02933112_-18,n02818832_9,Stimuli/canonical view 2/img_n02933112_-18_gray.jpg,Stimuli/canonical view 2/img_n02818832_9_gray.jpg,foreground,right,Experiments/experiment_47/440.jpg,Experiments/experiment_47/441.jpg,Experiments/experiment_47/442.jpg,Experiments/experiment_47/443.jpg,358,1,2023-04-17_17h28.55.923,Occlusion_Psychophysics,2022.1.4,Win32,59.99880002,,,right,"[""right""]",[0.20940000000030068],False,,0.0,0.0,10.0,10.0,10.0,1.0,,,,,,
,,,,,,,,,,,,,,,,,,,,,0.025,,,,,,,,,,Stimuli/psy_flexible_rotation_30_objects_occ0.7_0.9s/images/train/n02933112_4/n04256520_9/img_buffet_napoleon_iii_sofa_2013_gray.jpg,n02933112_4,n04256520_9,flexible,0.844173,n03928116_0,Stimuli/psy_fixed_rotation_30_objects_occ0.7_0.9s/images/train/n04256520_5/n03928116_0/img_meridiani_belmondo_bench_sofa_b02_piano_2008-3_gray.png,random,fixed,n02933112_4,n04256520_9,Stimuli/canonical view 2/img_n02933112_4_gray.jpg,Stimuli/canonical view 2/img_n04256520_9_gray.jpg,foreground,left,Experiments/experiment_47/444.jpg,Experiments/experiment_47/445.jpg,Experiments/experiment_47/446.jpg,Experiments/experiment_47/447.jpg,358,1,2023-04-17_17h28.55.923,Occlusion_Psychophysics,2022.1.4,Win32,59.99880002,,,left,"[""right""]",[0.5579999999999927],False,,0.0,0.0,11.0,11.0,11.0,1.0,,,,,,
,,,,,,,,,,,,,,,,,,,,,0.05,,,,,,,,,,Stimuli/psy_flexible_rotation_30_objects_occ0.7_0.9s/images/train/n04379243_0/n04379243_8/img_17th_c._monastery_dining_table_2010_glass_table_2004_gray.jpg,n04379243_0,n04379243_8,flexible,0.768116,n02883344_15,Stimuli/psy_fixed_rotation_30_objects_occ0.7_0.9s/images/train/n02933112_4/n02883344_15/img_buffet_microwave_box_2001-3_gray.png,random,fixed,n04379243_0,n04379243_8,Stimuli/canonical view 2/img_n04379243_0_gray.jpg,Stimuli/canonical view 2/img_n04379243_8_gray.jpg,foreground,left,Experiments/experiment_47/448.jpg,Experiments/experiment_47/449.jpg,Experiments/experiment_47/450.jpg,Experiments/experiment_47/451.jpg,358,1,2023-04-17_17h28.55.923,Occlusion_Psychophysics,2022.1.4,Win32,59.99880002,,,left,"[""right""]",[0.4926000000004933],False,,0.0,0.0,12.0,12.0,12.0,1.0,,,,,,
,,,,,,,,,,,,,,,,,,,,,0.05,,,,,,,,,,Stimuli/psy_flexible_rotation_30_objects_occ0.7_0.9s/images/train/n03001627_-2/n03001627_8/img_wood_chair_chair_billiani_doll_2002_gray.jpg,n03001627_-2,n03001627_8,flexible,0.732225,n03001627_8,Stimuli/psy_flexible_rotation_30_objects_occ0.7_0.9s/images/train/n03001627_-2/n03001627_8/img_wood_chair_chair_billiani_doll_2002-3_gray.png,foreground,same as foreground,n03001627_-2,n03001627_8,Stimuli/canonical view 2/img_n03001627_-2_gray.jpg,Stimuli/canonical view 2/img_n03001627_8_gray.jpg,foreground,left,Experiments/experiment_47/452.jpg,Experiments/experiment_47/453.jpg,Experiments/experiment_47/454.jpg,Experiments/experiment_47/455.jpg,358,1,2023-04-17_17h28.55.923,Occlusion_Psychophysics,2022.1.4,Win32,59.99880002,,,right,"[""right""]",[0.30499999999995],False,,0.0,0.0,13.0,13.0,13.0,1.0,,,,,,
