in_color,Instructions_key.keys,Instructions_key.rt,Tutorial_instruction_key.keys,Tutorial_instruction_key.rt,Tutorial_fixation_ley.keys,Tutorial_fixation_ley.rt,Tutorial_single_img_key.keys,Tutorial_single_img_key.rt,Tutorial_intra_trial_fixation_key.keys,Tutorial_intra_trial_fixation_key.rt,Tutorial_stimulus_key.keys,Tutorial_stimulus_key.rt,Tutorial_response_key.keys,Tutorial_response_key.rt,Tutorial_attention_check_key.keys,Tutorial_attention_check_key.rt,advance_or_repeat.keys,advance_or_repeat.rt,Practice_instructions_key.keys,Practice_instructions_key.rt,intra_trial_duration,Practice_key_response.keys,Practice_key_response.rt,Practice_react_key.keys,Practice_react_key.rt,Practice_loop.thisRepN,Practice_loop.thisTrialN,Practice_loop.thisN,Practice_loop.thisIndex,Practice_loop.ran,multi_object_filepath,background_id,foreground_id,multi_object_rotation,occlusion_level,single_object_id,single_object_filepath,single_is_foreground_or_random,single_object_rotation,background_choice_id,alt_choice_id,background_option_filepath,alternative_option_filepath,alternative_is_foreground_or_random,location_of_correct_answer,multi_object_exp_filename,single_object_exp_filename,background_option_exp_filename,alternative_option_exp_filename,participant,session,date,expName,psychopyVersion,OS,frameRate,Practice_end_key.keys,Practice_end_key.rt,correct_answer,Input_selection.keys,Input_selection.rt,Was_attention_check,Attention_check.keys,Attention_check.corr,Each_session_loop.thisRepN,Each_session_loop.thisTrialN,Each_session_loop.thisN,Each_session_loop.thisIndex,Each_session_loop.ran,Attention_check.rt,Num_sessions.thisRepN,Num_sessions.thisTrialN,Num_sessions.thisN,Num_sessions.thisIndex,Num_sessions.ran
False,right,4.5765,right,4.6482,right,4.9038,right,2.0756,right,2.0475,right,2.9308,right,2.5873,right,0.9184,a,6.4361,a,2.9259,0.05,left,1.436,a,6.8284,0.0,0.0,0.0,0.0,1.0,Stimuli/psy_fixed_rotation_30_objects_occ0.7_0.9s/images/train/n02828884_3/n02933112_-2/img_b04_wood_metal_park_bench_sink_base_white_wood_2011_gray.jpg,n02828884_3,n02933112_-2,fixed,0.702374,n02818832_3,Stimuli/psy_flexible_rotation_30_objects_occ0.7_0.9s/images/train/n04070727_5/n02818832_3/img_b05_db_apps_tech_06_13_composite_b05_ccm_contemporary_bed_max2013_2015-3_gray.png,random,flexible,n02828884_3,n02818832_9,Stimuli/canonical view 2/img_n02828884_3_gray.jpg,Stimuli/canonical view 2/img_n02818832_9_gray.jpg,random,right,Experiments/experiment_22/1000.jpg,Experiments/experiment_22/1001.jpg,Experiments/experiment_22/1002.jpg,Experiments/experiment_22/1003.jpg,367,1.0,2023-04-17_17h33.17.912,Occlusion_Psychophysics,2022.1.4,Linux x86_64,59.99880002,,,,,,,,,,,,,,,,,,,
,,,,,,,,,,,,,,,,,,,,,0.025,,,,,,,,,,Stimuli/psy_fixed_rotation_30_objects_occ0.7_0.9s/images/train/n04379243_-7/n04405907_9/img_quatre_dining_table_vray_004_2007_gray.jpg,n04379243_-7,n04405907_9,fixed,0.758126,n04405907_5,Stimuli/psy_flexible_rotation_30_objects_occ0.7_0.9s/images/train/n03928116_4/n04405907_5/img_dp_33_b_2013__vray_samsung_40_uhd_smart_tv_2011_2011-3_gray.png,random,flexible,n04379243_-7,n04405907_9,Stimuli/canonical view 2/img_n04379243_-7_gray.jpg,Stimuli/canonical view 2/img_n04405907_9_gray.jpg,foreground,left,Experiments/experiment_22/0.jpg,Experiments/experiment_22/1.jpg,Experiments/experiment_22/2.jpg,Experiments/experiment_22/3.jpg,367,1.0,2023-04-17_17h33.17.912,Occlusion_Psychophysics,2022.1.4,Linux x86_64,59.99880002,right,2.1692,left,"[""right""]",[1.1739999999999782],False,,0.0,0.0,0.0,0.0,0.0,1.0,,,,,,
,,,,,,,,,,,,,,,,,,,,,0.05,,,,,,,,,,Stimuli/psy_fixed_rotation_30_objects_occ0.7_0.9s/images/train/n03001627_-2/n04405907_8/img_wood_chair_stylized_tv_2015_gray.jpg,n03001627_-2,n04405907_8,fixed,0.828113,n04379243_-7,Stimuli/psy_flexible_rotation_30_objects_occ0.7_0.9s/images/train/n03928116_0/n04379243_-7/img_b02_piano_quatre_dining_table_2009-3_gray.png,random,flexible,n03001627_-2,n04405907_8,Stimuli/canonical view 2/img_n03001627_-2_gray.jpg,Stimuli/canonical view 2/img_n04405907_8_gray.jpg,foreground,left,Experiments/experiment_22/4.jpg,Experiments/experiment_22/5.jpg,Experiments/experiment_22/6.jpg,Experiments/experiment_22/7.jpg,367,1.0,2023-04-17_17h33.17.912,Occlusion_Psychophysics,2022.1.4,Linux x86_64,59.99880002,,,right,"[""left""]",[0.7698000000118554],False,,0.0,0.0,1.0,1.0,1.0,1.0,,,,,,
,,,,,,,,,,,,,,,,,,,,,0.05,,,,,,,,,,Stimuli/psy_flexible_rotation_30_objects_occ0.7_0.9s/images/train/n02818832_9/n04405907_5/img_bed01_blue_samsung_40_uhd_smart_tv_2011_2013_gray.jpg,n02818832_9,n04405907_5,flexible,0.765029,n04405907_5,Stimuli/psy_flexible_rotation_30_objects_occ0.7_0.9s/images/train/n02818832_9/n04405907_5/img_bed01_blue_samsung_40_uhd_smart_tv_2011_2013-3_gray.png,foreground,same as foreground,n02818832_9,n04405907_5,Stimuli/canonical view 2/img_n02818832_9_gray.jpg,Stimuli/canonical view 2/img_n04405907_5_gray.jpg,foreground,left,Experiments/experiment_22/8.jpg,Experiments/experiment_22/9.jpg,Experiments/experiment_22/10.jpg,Experiments/experiment_22/11.jpg,367,1.0,2023-04-17_17h33.17.912,Occlusion_Psychophysics,2022.1.4,Linux x86_64,59.99880002,,,left,"[""left""]",[1.1765000000000327],False,,0.0,0.0,2.0,2.0,2.0,1.0,,,,,,
,,,,,,,,,,,,,,,,,,,,,0.025,,,,,,,,,,Stimuli/psy_fixed_rotation_30_objects_occ0.7_0.9s/images/train/n04379243_0/n02818832_9/img_17th_c._monastery_dining_table_2010_bed01_blue_2002_gray.jpg,n04379243_0,n02818832_9,fixed,0.749823,n02818832_9,Stimuli/psy_fixed_rotation_30_objects_occ0.7_0.9s/images/train/n04379243_0/n02818832_9/img_17th_c._monastery_dining_table_2010_bed01_blue_2002-3_gray.png,foreground,same as foreground,n04379243_0,n02828884_9,Stimuli/canonical view 2/img_n04379243_0_gray.jpg,Stimuli/canonical view 2/img_n02828884_9_gray.jpg,random,right,Experiments/experiment_22/12.jpg,Experiments/experiment_22/13.jpg,Experiments/experiment_22/14.jpg,Experiments/experiment_22/15.jpg,367,1.0,2023-04-17_17h33.17.912,Occlusion_Psychophysics,2022.1.4,Linux x86_64,59.99880002,,,left,"[""left""]",[1.3292999999820267],False,,0.0,0.0,3.0,3.0,3.0,1.0,,,,,,
,,,,,,,,,,,,,,,,,,,,,0.025,,,,,,,,,,Stimuli/psy_flexible_rotation_30_objects_occ0.7_0.9s/images/train/n02828884_4/n04379243_8/img_b05_c-5_classic_series_bench-2012_glass_table_2012_gray.jpg,n02828884_4,n04379243_8,flexible,0.752904,n02828884_3,Stimuli/psy_flexible_rotation_30_objects_occ0.7_0.9s/images/train/n04379243_-7/n02828884_3/img_quatre_dining_table_b04_wood_metal_park_bench_2001-3_gray.png,random,flexible,n02828884_4,n02828884_9,Stimuli/canonical view 2/img_n02828884_4_gray.jpg,Stimuli/canonical view 2/img_n02828884_9_gray.jpg,random,left,Experiments/experiment_22/16.jpg,Experiments/experiment_22/17.jpg,Experiments/experiment_22/18.jpg,Experiments/experiment_22/19.jpg,367,1.0,2023-04-17_17h33.17.912,Occlusion_Psychophysics,2022.1.4,Linux x86_64,59.99880002,,,left,"[""left""]",[1.269300000011981],False,,0.0,0.0,4.0,4.0,4.0,1.0,,,,,,
,,,,,,,,,,,,,,,,,,,,,0.05,,,,,,,,,,Stimuli/psy_flexible_rotation_30_objects_occ0.7_0.9s/images/train/n04405907_9/n02883344_0/img_vray_004_b03_box_2002_gray.jpg,n04405907_9,n02883344_0,flexible,0.716681,n04405907_9,Stimuli/psy_flexible_rotation_30_objects_occ0.7_0.9s/images/train/n03928116_0/n04405907_9/img_b02_piano_vray_004_2001-3_gray.png,random,flexible,n04405907_9,n02828884_3,Stimuli/canonical view 2/img_n04405907_9_gray.jpg,Stimuli/canonical view 2/img_n02828884_3_gray.jpg,random,right,Experiments/experiment_22/20.jpg,Experiments/experiment_22/21.jpg,Experiments/experiment_22/22.jpg,Experiments/experiment_22/23.jpg,367,1.0,2023-04-17_17h33.17.912,Occlusion_Psychophysics,2022.1.4,Linux x86_64,59.99880002,,,left,"[""right""]",[1.3357999999821004],False,,0.0,0.0,5.0,5.0,5.0,1.0,,,,,,
,,,,,,,,,,,,,,,,,,,,,0.05,,,,,,,,,,Stimuli/psy_fixed_rotation_30_objects_occ0.7_0.9s/images/train/n04256520_9/n04405907_5/img_napoleon_iii_sofa_samsung_40_uhd_smart_tv_2011_2011_gray.jpg,n04256520_9,n04405907_5,fixed,0.754528,n02818832_0,Stimuli/psy_fixed_rotation_30_objects_occ0.7_0.9s/images/train/n02933112_-2/n02818832_0/img_sink_base_white_wood_b03_the_sofa_and_chair_company_-_stanley_bed_2014_2006-3_gray.png,random,fixed,n04256520_9,n03928116_10,Stimuli/canonical view 2/img_n04256520_9_gray.jpg,Stimuli/canonical view 2/img_n03928116_10_gray.jpg,random,right,Experiments/experiment_22/24.jpg,Experiments/experiment_22/25.jpg,Experiments/experiment_22/26.jpg,Experiments/experiment_22/27.jpg,367,1.0,2023-04-17_17h33.17.912,Occlusion_Psychophysics,2022.1.4,Linux x86_64,59.99880002,,,right,"[""right""]",[1.1775999999940723],False,,0.0,0.0,6.0,6.0,6.0,1.0,,,,,,
,,,,,,,,,,,,,,,,,,,,,0.05,,,,,,,,,,Stimuli/psy_flexible_rotation_30_objects_occ0.7_0.9s/images/train/n02818832_9/n04379243_0/img_bed01_blue_17th_c._monastery_dining_table_2010_2005_gray.jpg,n02818832_9,n04379243_0,flexible,0.769999,n04379243_0,Stimuli/psy_flexible_rotation_30_objects_occ0.7_0.9s/images/train/n02818832_9/n04379243_0/img_bed01_blue_17th_c._monastery_dining_table_2010_2005-3_gray.png,foreground,same as foreground,n02818832_9,n04256520_5,Stimuli/canonical view 2/img_n02818832_9_gray.jpg,Stimuli/canonical view 2/img_n04256520_5_gray.jpg,random,left,Experiments/experiment_22/28.jpg,Experiments/experiment_22/29.jpg,Experiments/experiment_22/30.jpg,Experiments/experiment_22/31.jpg,367,1.0,2023-04-17_17h33.17.912,Occlusion_Psychophysics,2022.1.4,Linux x86_64,59.99880002,,,left,"[""right""]",[1.435800000011909],False,,0.0,0.0,7.0,7.0,7.0,1.0,,,,,,
,,,,,,,,,,,,,,,,,,,,,0.05,,,,,,,,,,Stimuli/psy_flexible_rotation_30_objects_occ0.7_0.9s/images/train/n04379243_-7/n04256520_5/img_quatre_dining_table_meridiani_belmondo_bench_sofa_2003_gray.jpg,n04379243_-7,n04256520_5,flexible,0.837352,n04256520_5,Stimuli/psy_flexible_rotation_30_objects_occ0.7_0.9s/images/train/n04379243_-7/n04256520_5/img_quatre_dining_table_meridiani_belmondo_bench_sofa_2003-3_gray.png,foreground,same as foreground,n04379243_-7,n04256520_4,Stimuli/canonical view 2/img_n04379243_-7_gray.jpg,Stimuli/canonical view 2/img_n04256520_4_gray.jpg,random,left,Experiments/experiment_22/32.jpg,Experiments/experiment_22/33.jpg,Experiments/experiment_22/34.jpg,Experiments/experiment_22/35.jpg,367,1.0,2023-04-17_17h33.17.912,Occlusion_Psychophysics,2022.1.4,Linux x86_64,59.99880002,,,right,"[""left""]",[1.3917000000178632],False,,0.0,0.0,8.0,8.0,8.0,1.0,,,,,,
,,,,,,,,,,,,,,,,,,,,,0.025,,,,,,,,,,Stimuli/psy_fixed_rotation_30_objects_occ0.7_0.9s/images/train/n03928116_10/n04405907_9/img_ydp_103_r_2012__vray_vray_004_2000_gray.jpg,n03928116_10,n04405907_9,fixed,0.727873,n02828884_3,Stimuli/psy_fixed_rotation_30_objects_occ0.7_0.9s/images/train/n04070727_0/n02828884_3/img_b03_ka90ivi20r_2013__vray_b04_wood_metal_park_bench_2006-3_gray.png,random,fixed,n03928116_10,n02818832_0,Stimuli/canonical view 2/img_n03928116_10_gray.jpg,Stimuli/canonical view 2/img_n02818832_0_gray.jpg,random,right,Experiments/experiment_22/36.jpg,Experiments/experiment_22/37.jpg,Experiments/experiment_22/38.jpg,Experiments/experiment_22/39.jpg,367,1.0,2023-04-17_17h33.17.912,Occlusion_Psychophysics,2022.1.4,Linux x86_64,59.99880002,,,left,"[""right""]",[1.236399999976129],False,,0.0,0.0,9.0,9.0,9.0,1.0,,,,,,
,,,,,,,,,,,,,,,,,,,,,0.05,,,,,,,,,,Stimuli/psy_fixed_rotation_30_objects_occ0.7_0.9s/images/train/n04405907_9/n04405907_5/img_vray_004_samsung_40_uhd_smart_tv_2011_2004_gray.jpg,n04405907_9,n04405907_5,fixed,0.752792,n04405907_8,Stimuli/psy_flexible_rotation_30_objects_occ0.7_0.9s/images/train/n04256520_5/n04405907_8/img_meridiani_belmondo_bench_sofa_stylized_tv_2000-3_gray.png,random,flexible,n04405907_9,n04405907_5,Stimuli/canonical view 2/img_n04405907_9_gray.jpg,Stimuli/canonical view 2/img_n04405907_5_gray.jpg,foreground,right,Experiments/experiment_22/40.jpg,Experiments/experiment_22/41.jpg,Experiments/experiment_22/42.jpg,Experiments/experiment_22/43.jpg,367,1.0,2023-04-17_17h33.17.912,Occlusion_Psychophysics,2022.1.4,Linux x86_64,59.99880002,,,right,"[""left""]",[0.8934000000059541],False,,0.0,0.0,10.0,10.0,10.0,1.0,,,,,,
,,,,,,,,,,,,,,,,,,,,,0.025,,,,,,,,,,Stimuli/psy_flexible_rotation_30_objects_occ0.7_0.9s/images/train/n02883344_-1/n04405907_8/img_woven_box_stylized_tv_2014_gray.jpg,n02883344_-1,n04405907_8,flexible,0.781586,n02828884_3,Stimuli/psy_fixed_rotation_30_objects_occ0.7_0.9s/images/train/n02828884_4/n02828884_3/img_b05_c-5_classic_series_bench-2012_b04_wood_metal_park_bench_2009-3_gray.png,random,fixed,n02883344_-1,n04405907_8,Stimuli/canonical view 2/img_n02883344_-1_gray.jpg,Stimuli/canonical view 2/img_n04405907_8_gray.jpg,foreground,left,Experiments/experiment_22/44.jpg,Experiments/experiment_22/45.jpg,Experiments/experiment_22/46.jpg,Experiments/experiment_22/47.jpg,367,1.0,2023-04-17_17h33.17.912,Occlusion_Psychophysics,2022.1.4,Linux x86_64,59.99880002,,,right,"[""right""]",[1.1371000000237927],False,,0.0,0.0,11.0,11.0,11.0,1.0,,,,,,
,,,,,,,,,,,,,,,,,,,,,0.05,,,,,,,,,,Stimuli/psy_flexible_rotation_30_objects_occ0.7_0.9s/images/train/n02883344_0/n04256520_4/img_b03_box_club_house_italia_nautilus_sofa_2002_gray.jpg,n02883344_0,n04256520_4,flexible,0.758552,n04405907_9,Stimuli/psy_flexible_rotation_30_objects_occ0.7_0.9s/images/train/n02818832_3/n04405907_9/img_b05_ccm_contemporary_bed_max2013_vray_004_2006-3_gray.png,random,flexible,n02883344_0,n04256520_4,Stimuli/canonical view 2/img_n02883344_0_gray.jpg,Stimuli/canonical view 2/img_n04256520_4_gray.jpg,foreground,left,Experiments/experiment_22/48.jpg,Experiments/experiment_22/49.jpg,Experiments/experiment_22/50.jpg,Experiments/experiment_22/51.jpg,367,1.0,2023-04-17_17h33.17.912,Occlusion_Psychophysics,2022.1.4,Linux x86_64,59.99880002,,,right,"[""left""]",[1.2221000000238291],False,,0.0,0.0,12.0,12.0,12.0,1.0,,,,,,
,,,,,,,,,,,,,,,,,,,,,0.05,,,,,,,,,,Stimuli/psy_flexible_rotation_30_objects_occ0.7_0.9s/images/train/n04379243_8/n03928116_10/img_glass_table_ydp_103_r_2012__vray_2015_gray.jpg,n04379243_8,n03928116_10,flexible,0.836022,n02883344_-1,Stimuli/psy_fixed_rotation_30_objects_occ0.7_0.9s/images/train/n02933112_4/n02883344_-1/img_buffet_woven_box_2007-3_gray.png,random,fixed,n04379243_8,n02933112_-18,Stimuli/canonical view 2/img_n04379243_8_gray.jpg,Stimuli/canonical view 2/img_n02933112_-18_gray.jpg,random,right,Experiments/experiment_22/52.jpg,Experiments/experiment_22/53.jpg,Experiments/experiment_22/54.jpg,Experiments/experiment_22/55.jpg,367,1.0,2023-04-17_17h33.17.912,Occlusion_Psychophysics,2022.1.4,Linux x86_64,59.99880002,,,left,"[""left""]",[0.9407000000179551],False,,0.0,0.0,13.0,13.0,13.0,1.0,,,,,,
,,,,,,,,,,,,,,,,,,,,,0.025,,,,,,,,,,Stimuli/psy_fixed_rotation_30_objects_occ0.7_0.9s/images/train/n02883344_0/n02828884_9/img_b03_box_cr-96_bench_2000_gray.jpg,n02883344_0,n02828884_9,fixed,0.726518,n04405907_8,Stimuli/psy_fixed_rotation_30_objects_occ0.7_0.9s/images/train/n02883344_15/n04405907_8/img_microwave_box_stylized_tv_2002-3_gray.png,random,fixed,n02883344_0,n04405907_8,Stimuli/canonical view 2/img_n02883344_0_gray.jpg,Stimuli/canonical view 2/img_n04405907_8_gray.jpg,random,right,Experiments/experiment_22/56.jpg,Experiments/experiment_22/57.jpg,Experiments/experiment_22/58.jpg,Experiments/experiment_22/59.jpg,367,1.0,2023-04-17_17h33.17.912,Occlusion_Psychophysics,2022.1.4,Linux x86_64,59.99880002,,,left,"[""left""]",[0.6100000000000136],True,left,1.0,0.0,14.0,14.0,14.0,1.0,1.2331,,,,,
,,,,,,,,,,,,,,,,,,,,,0.05,,,,,,,,,,Stimuli/psy_flexible_rotation_30_objects_occ0.7_0.9s/images/train/n03928116_4/n02818832_0/img_dp_33_b_2013__vray_b03_the_sofa_and_chair_company_-_stanley_bed_2014_2003_gray.jpg,n03928116_4,n02818832_0,flexible,0.781194,n02818832_0,Stimuli/psy_flexible_rotation_30_objects_occ0.7_0.9s/images/train/n03928116_4/n02818832_0/img_dp_33_b_2013__vray_b03_the_sofa_and_chair_company_-_stanley_bed_2014_2003-3_gray.png,foreground,same as foreground,n03928116_4,n04256520_5,Stimuli/canonical view 2/img_n03928116_4_gray.jpg,Stimuli/canonical view 2/img_n04256520_5_gray.jpg,random,left,Experiments/experiment_22/60.jpg,Experiments/experiment_22/61.jpg,Experiments/experiment_22/62.jpg,Experiments/experiment_22/63.jpg,367,1.0,2023-04-17_17h33.17.912,Occlusion_Psychophysics,2022.1.4,Linux x86_64,59.99880002,,,left,"[""right""]",[0.7743000000118627],False,,0.0,0.0,15.0,15.0,15.0,1.0,,,,,,
,,,,,,,,,,,,,,,,,,,,,0.025,,,,,,,,,,Stimuli/psy_flexible_rotation_30_objects_occ0.7_0.9s/images/train/n03001627_-2/n02818832_0/img_wood_chair_b03_the_sofa_and_chair_company_-_stanley_bed_2014_2008_gray.jpg,n03001627_-2,n02818832_0,flexible,0.755763,n04379243_8,Stimuli/psy_fixed_rotation_30_objects_occ0.7_0.9s/images/train/n02828884_3/n04379243_8/img_b04_wood_metal_park_bench_glass_table_2001-3_gray.png,random,fixed,n03001627_-2,n02818832_9,Stimuli/canonical view 2/img_n03001627_-2_gray.jpg,Stimuli/canonical view 2/img_n02818832_9_gray.jpg,random,left,Experiments/experiment_22/64.jpg,Experiments/experiment_22/65.jpg,Experiments/experiment_22/66.jpg,Experiments/experiment_22/67.jpg,367,1.0,2023-04-17_17h33.17.912,Occlusion_Psychophysics,2022.1.4,Linux x86_64,59.99880002,,,left,"[""left""]",[1.2423000000119373],False,,0.0,0.0,16.0,16.0,16.0,1.0,,,,,,
,,,,,,,,,,,,,,,,,,,,,0.025,,,,,,,,,,Stimuli/psy_fixed_rotation_30_objects_occ0.7_0.9s/images/train/n04405907_8/n02883344_0/img_stylized_tv_b03_box_2003_gray.jpg,n04405907_8,n02883344_0,fixed,0.760633,n02818832_9,Stimuli/psy_fixed_rotation_30_objects_occ0.7_0.9s/images/train/n04070727_5/n02818832_9/img_b05_db_apps_tech_06_13_composite_bed01_blue_2013-3_gray.png,random,fixed,n04405907_8,n03001627_8,Stimuli/canonical view 2/img_n04405907_8_gray.jpg,Stimuli/canonical view 2/img_n03001627_8_gray.jpg,random,left,Experiments/experiment_22/68.jpg,Experiments/experiment_22/69.jpg,Experiments/experiment_22/70.jpg,Experiments/experiment_22/71.jpg,367,1.0,2023-04-17_17h33.17.912,Occlusion_Psychophysics,2022.1.4,Linux x86_64,59.99880002,,,left,"[""right""]",[0.9674000000059095],False,,0.0,0.0,17.0,17.0,17.0,1.0,,,,,,
,,,,,,,,,,,,,,,,,,,,,0.025,,,,,,,,,,Stimuli/psy_fixed_rotation_30_objects_occ0.7_0.9s/images/train/n02883344_-1/n02883344_15/img_woven_box_microwave_box_2011_gray.jpg,n02883344_-1,n02883344_15,fixed,0.782427,n02883344_15,Stimuli/psy_fixed_rotation_30_objects_occ0.7_0.9s/images/train/n02883344_-1/n02883344_15/img_woven_box_microwave_box_2011-3_gray.png,foreground,same as foreground,n02883344_-1,n02883344_15,Stimuli/canonical view 2/img_n02883344_-1_gray.jpg,Stimuli/canonical view 2/img_n02883344_15_gray.jpg,foreground,left,Experiments/experiment_22/72.jpg,Experiments/experiment_22/73.jpg,Experiments/experiment_22/74.jpg,Experiments/experiment_22/75.jpg,367,1.0,2023-04-17_17h33.17.912,Occlusion_Psychophysics,2022.1.4,Linux x86_64,59.99880002,,,right,"[""right""]",[1.019300000011981],False,,0.0,0.0,18.0,18.0,18.0,1.0,,,,,,
,,,,,,,,,,,,,,,,,,,,,0.05,,,,,,,,,,Stimuli/psy_fixed_rotation_30_objects_occ0.7_0.9s/images/train/n04405907_5/n04379243_0/img_samsung_40_uhd_smart_tv_2011_17th_c._monastery_dining_table_2010_2007_gray.jpg,n04405907_5,n04379243_0,fixed,0.70261,n04379243_0,Stimuli/psy_fixed_rotation_30_objects_occ0.7_0.9s/images/train/n04405907_5/n04379243_0/img_samsung_40_uhd_smart_tv_2011_17th_c._monastery_dining_table_2010_2007-3_gray.png,foreground,same as foreground,n04405907_5,n04379243_-7,Stimuli/canonical view 2/img_n04405907_5_gray.jpg,Stimuli/canonical view 2/img_n04379243_-7_gray.jpg,random,right,Experiments/experiment_22/76.jpg,Experiments/experiment_22/77.jpg,Experiments/experiment_22/78.jpg,Experiments/experiment_22/79.jpg,367,1.0,2023-04-17_17h33.17.912,Occlusion_Psychophysics,2022.1.4,Linux x86_64,59.99880002,,,left,"[""left""]",[0.77699999999993],False,,0.0,0.0,19.0,19.0,19.0,1.0,,,,,,
,,,,,,,,,,,,,,,,,,,,,0.05,,,,,,,,,,Stimuli/psy_flexible_rotation_30_objects_occ0.7_0.9s/images/train/n02883344_0/n03928116_4/img_b03_box_dp_33_b_2013__vray_2004_gray.jpg,n02883344_0,n03928116_4,flexible,0.715939,n02818832_3,Stimuli/psy_flexible_rotation_30_objects_occ0.7_0.9s/images/train/n04405907_9/n02818832_3/img_vray_004_b05_ccm_contemporary_bed_max2013_2000-3_gray.png,random,flexible,n02883344_0,n03928116_4,Stimuli/canonical view 2/img_n02883344_0_gray.jpg,Stimuli/canonical view 2/img_n03928116_4_gray.jpg,foreground,left,Experiments/experiment_22/80.jpg,Experiments/experiment_22/81.jpg,Experiments/experiment_22/82.jpg,Experiments/experiment_22/83.jpg,367,1.0,2023-04-17_17h33.17.912,Occlusion_Psychophysics,2022.1.4,Linux x86_64,59.99880002,,,left,"[""right""]",[1.003099999994106],False,,0.0,0.0,20.0,20.0,20.0,1.0,,,,,,
,,,,,,,,,,,,,,,,,,,,,0.05,,,,,,,,,,Stimuli/psy_fixed_rotation_30_objects_occ0.7_0.9s/images/train/n03001627_8/n03928116_0/img_chair_billiani_doll_b02_piano_2004_gray.jpg,n03001627_8,n03928116_0,fixed,0.716972,n03928116_0,Stimuli/psy_fixed_rotation_30_objects_occ0.7_0.9s/images/train/n03001627_8/n03928116_0/img_chair_billiani_doll_b02_piano_2004-3_gray.png,foreground,same as foreground,n03001627_8,n03928116_4,Stimuli/canonical view 2/img_n03001627_8_gray.jpg,Stimuli/canonical view 2/img_n03928116_4_gray.jpg,random,left,Experiments/experiment_22/84.jpg,Experiments/experiment_22/85.jpg,Experiments/experiment_22/86.jpg,Experiments/experiment_22/87.jpg,367,1.0,2023-04-17_17h33.17.912,Occlusion_Psychophysics,2022.1.4,Linux x86_64,59.99880002,,,right,"[""left""]",[1.2373000000119418],False,,0.0,0.0,21.0,21.0,21.0,1.0,,,,,,
,,,,,,,,,,,,,,,,,,,,,0.025,,,,,,,,,,Stimuli/psy_fixed_rotation_30_objects_occ0.7_0.9s/images/train/n04379243_0/n04379243_8/img_17th_c._monastery_dining_table_2010_glass_table_2014_gray.jpg,n04379243_0,n04379243_8,fixed,0.739396,n02933112_-2,Stimuli/psy_fixed_rotation_30_objects_occ0.7_0.9s/images/train/n04256520_9/n02933112_-2/img_napoleon_iii_sofa_sink_base_white_wood_2006-3_gray.png,random,fixed,n04379243_0,n04379243_8,Stimuli/canonical view 2/img_n04379243_0_gray.jpg,Stimuli/canonical view 2/img_n04379243_8_gray.jpg,foreground,left,Experiments/experiment_22/88.jpg,Experiments/experiment_22/89.jpg,Experiments/experiment_22/90.jpg,Experiments/experiment_22/91.jpg,367,1.0,2023-04-17_17h33.17.912,Occlusion_Psychophysics,2022.1.4,Linux x86_64,59.99880002,,,right,"[""left""]",[0.786700000017845],False,,0.0,0.0,22.0,22.0,22.0,1.0,,,,,,
,,,,,,,,,,,,,,,,,,,,,0.05,,,,,,,,,,Stimuli/psy_fixed_rotation_30_objects_occ0.7_0.9s/images/train/n02818832_0/n04379243_0/img_b03_the_sofa_and_chair_company_-_stanley_bed_2014_17th_c._monastery_dining_table_2010_2013_gray.jpg,n02818832_0,n04379243_0,fixed,0.740627,n04379243_0,Stimuli/psy_fixed_rotation_30_objects_occ0.7_0.9s/images/train/n02818832_0/n04379243_0/img_b03_the_sofa_and_chair_company_-_stanley_bed_2014_17th_c._monastery_dining_table_2010_2013-3_gray.png,foreground,same as foreground,n02818832_0,n04379243_0,Stimuli/canonical view 2/img_n02818832_0_gray.jpg,Stimuli/canonical view 2/img_n04379243_0_gray.jpg,foreground,left,Experiments/experiment_22/92.jpg,Experiments/experiment_22/93.jpg,Experiments/experiment_22/94.jpg,Experiments/experiment_22/95.jpg,367,1.0,2023-04-17_17h33.17.912,Occlusion_Psychophysics,2022.1.4,Linux x86_64,59.99880002,,,left,"[""left""]",[0.8928000000119027],False,,0.0,0.0,23.0,23.0,23.0,1.0,,,,,,
,,,,,,,,,,,,,,,,,,,,,0.025,,,,,,,,,,Stimuli/psy_fixed_rotation_30_objects_occ0.7_0.9s/images/train/n03001627_-2/n04256520_9/img_wood_chair_napoleon_iii_sofa_2004_gray.jpg,n03001627_-2,n04256520_9,fixed,0.730769,n02883344_0,Stimuli/psy_fixed_rotation_30_objects_occ0.7_0.9s/images/train/n02883344_0/n02883344_0/img_b03_box_b03_box_2014-3_gray.png,random,fixed,n03001627_-2,n04256520_9,Stimuli/canonical view 2/img_n03001627_-2_gray.jpg,Stimuli/canonical view 2/img_n04256520_9_gray.jpg,foreground,right,Experiments/experiment_22/96.jpg,Experiments/experiment_22/97.jpg,Experiments/experiment_22/98.jpg,Experiments/experiment_22/99.jpg,367,1.0,2023-04-17_17h33.17.912,Occlusion_Psychophysics,2022.1.4,Linux x86_64,59.99880002,,,right,"[""right""]",[0.7630999999940968],False,,0.0,0.0,24.0,24.0,24.0,1.0,,,,,,
,,,,,,,,,,,,,,,,,,,,,0.025,,,,,,,,,,Stimuli/psy_flexible_rotation_30_objects_occ0.7_0.9s/images/train/n02933112_-18/n02883344_-1/img_cgaxis_models_48_26_vray_composite_woven_box_2001_gray.jpg,n02933112_-18,n02883344_-1,flexible,0.781794,n04379243_8,Stimuli/psy_flexible_rotation_30_objects_occ0.7_0.9s/images/train/n04379243_8/n04379243_8/img_glass_table_glass_table_2004-3_gray.png,random,flexible,n02933112_-18,n02883344_-1,Stimuli/canonical view 2/img_n02933112_-18_gray.jpg,Stimuli/canonical view 2/img_n02883344_-1_gray.jpg,foreground,left,Experiments/experiment_22/100.jpg,Experiments/experiment_22/101.jpg,Experiments/experiment_22/102.jpg,Experiments/experiment_22/103.jpg,367,1.0,2023-04-17_17h33.17.912,Occlusion_Psychophysics,2022.1.4,Linux x86_64,59.99880002,,,left,"[""left""]",[1.2047000000178514],True,right,1.0,0.0,25.0,25.0,25.0,1.0,2.037,,,,,
,,,,,,,,,,,,,,,,,,,,,0.05,,,,,,,,,,Stimuli/psy_flexible_rotation_30_objects_occ0.7_0.9s/images/train/n04405907_9/n04405907_5/img_vray_004_samsung_40_uhd_smart_tv_2011_2006_gray.jpg,n04405907_9,n04405907_5,flexible,0.820665,n04405907_5,Stimuli/psy_flexible_rotation_30_objects_occ0.7_0.9s/images/train/n04405907_9/n04405907_5/img_vray_004_samsung_40_uhd_smart_tv_2011_2006-3_gray.png,foreground,same as foreground,n04405907_9,n04405907_5,Stimuli/canonical view 2/img_n04405907_9_gray.jpg,Stimuli/canonical view 2/img_n04405907_5_gray.jpg,foreground,right,Experiments/experiment_22/104.jpg,Experiments/experiment_22/105.jpg,Experiments/experiment_22/106.jpg,Experiments/experiment_22/107.jpg,367,1.0,2023-04-17_17h33.17.912,Occlusion_Psychophysics,2022.1.4,Linux x86_64,59.99880002,,,left,"[""left""]",[1.1270999999940159],False,,0.0,0.0,26.0,26.0,26.0,1.0,,,,,,
,,,,,,,,,,,,,,,,,,,,,0.05,,,,,,,,,,Stimuli/psy_fixed_rotation_30_objects_occ0.7_0.9s/images/train/n02933112_4/n04405907_5/img_buffet_samsung_40_uhd_smart_tv_2011_2005_gray.jpg,n02933112_4,n04405907_5,fixed,0.787416,n04405907_5,Stimuli/psy_fixed_rotation_30_objects_occ0.7_0.9s/images/train/n02933112_4/n04405907_5/img_buffet_samsung_40_uhd_smart_tv_2011_2005-3_gray.png,foreground,same as foreground,n02933112_4,n03001627_9,Stimuli/canonical view 2/img_n02933112_4_gray.jpg,Stimuli/canonical view 2/img_n03001627_9_gray.jpg,random,right,Experiments/experiment_22/108.jpg,Experiments/experiment_22/109.jpg,Experiments/experiment_22/110.jpg,Experiments/experiment_22/111.jpg,367,1.0,2023-04-17_17h33.17.912,Occlusion_Psychophysics,2022.1.4,Linux x86_64,59.99880002,,,right,"[""right""]",[0.9163999999761927],False,,0.0,0.0,27.0,27.0,27.0,1.0,,,,,,
,,,,,,,,,,,,,,,,,,,,,0.05,,,,,,,,,,Stimuli/psy_flexible_rotation_30_objects_occ0.7_0.9s/images/train/n03928116_0/n04256520_5/img_b02_piano_meridiani_belmondo_bench_sofa_2007_gray.jpg,n03928116_0,n04256520_5,flexible,0.718459,n03928116_10,Stimuli/psy_flexible_rotation_30_objects_occ0.7_0.9s/images/train/n04256520_4/n03928116_10/img_club_house_italia_nautilus_sofa_ydp_103_r_2012__vray_2000-3_gray.png,random,flexible,n03928116_0,n04256520_5,Stimuli/canonical view 2/img_n03928116_0_gray.jpg,Stimuli/canonical view 2/img_n04256520_5_gray.jpg,foreground,left,Experiments/experiment_22/112.jpg,Experiments/experiment_22/113.jpg,Experiments/experiment_22/114.jpg,Experiments/experiment_22/115.jpg,367,1.0,2023-04-17_17h33.17.912,Occlusion_Psychophysics,2022.1.4,Linux x86_64,59.99880002,,,right,"[""right""]",[0.7598000000118645],False,,0.0,0.0,28.0,28.0,28.0,1.0,,,,,,
,,,,,,,,,,,,,,,,,,,,,0.05,,,,,,,,,,Stimuli/psy_flexible_rotation_30_objects_occ0.7_0.9s/images/train/n03928116_0/n04256520_5/img_b02_piano_meridiani_belmondo_bench_sofa_2014_gray.jpg,n03928116_0,n04256520_5,flexible,0.767616,n04256520_5,Stimuli/psy_flexible_rotation_30_objects_occ0.7_0.9s/images/train/n03928116_0/n04256520_5/img_b02_piano_meridiani_belmondo_bench_sofa_2014-3_gray.png,foreground,same as foreground,n03928116_0,n02828884_4,Stimuli/canonical view 2/img_n03928116_0_gray.jpg,Stimuli/canonical view 2/img_n02828884_4_gray.jpg,random,right,Experiments/experiment_22/116.jpg,Experiments/experiment_22/117.jpg,Experiments/experiment_22/118.jpg,Experiments/experiment_22/119.jpg,367,1.0,2023-04-17_17h33.17.912,Occlusion_Psychophysics,2022.1.4,Linux x86_64,59.99880002,,,right,"[""right""]",[0.7545999999940705],False,,0.0,0.0,29.0,29.0,29.0,1.0,,,,,,
,,,,,,,,,,,,,,,,,,,,,0.05,,,,,,,,,,Stimuli/psy_flexible_rotation_30_objects_occ0.7_0.9s/images/train/n02883344_0/n02828884_9/img_b03_box_cr-96_bench_2010_gray.jpg,n02883344_0,n02828884_9,flexible,0.708462,n02818832_9,Stimuli/psy_fixed_rotation_30_objects_occ0.7_0.9s/images/train/n02933112_-18/n02818832_9/img_cgaxis_models_48_26_vray_composite_bed01_blue_2005-3_gray.png,random,fixed,n02883344_0,n02828884_9,Stimuli/canonical view 2/img_n02883344_0_gray.jpg,Stimuli/canonical view 2/img_n02828884_9_gray.jpg,foreground,left,Experiments/experiment_22/120.jpg,Experiments/experiment_22/121.jpg,Experiments/experiment_22/122.jpg,Experiments/experiment_22/123.jpg,367,1.0,2023-04-17_17h33.17.912,Occlusion_Psychophysics,2022.1.4,Linux x86_64,59.99880002,,,right,"[""right""]",[1.1734000000059268],True,right,1.0,0.0,30.0,30.0,30.0,1.0,0.8964,,,,,
,,,,,,,,,,,,,,,,,,,,,0.025,,,,,,,,,,Stimuli/psy_flexible_rotation_30_objects_occ0.7_0.9s/images/train/n02818832_0/n04405907_9/img_b03_the_sofa_and_chair_company_-_stanley_bed_2014_vray_004_2006_gray.jpg,n02818832_0,n04405907_9,flexible,0.727535,n02818832_3,Stimuli/psy_flexible_rotation_30_objects_occ0.7_0.9s/images/train/n03928116_0/n02818832_3/img_b02_piano_b05_ccm_contemporary_bed_max2013_2003-3_gray.png,random,flexible,n02818832_0,n02818832_9,Stimuli/canonical view 2/img_n02818832_0_gray.jpg,Stimuli/canonical view 2/img_n02818832_9_gray.jpg,random,right,Experiments/experiment_22/124.jpg,Experiments/experiment_22/125.jpg,Experiments/experiment_22/126.jpg,Experiments/experiment_22/127.jpg,367,1.0,2023-04-17_17h33.17.912,Occlusion_Psychophysics,2022.1.4,Linux x86_64,59.99880002,,,right,"[""right""]",[0.9470000000000027],False,,0.0,0.0,31.0,31.0,31.0,1.0,,,,,,
,,,,,,,,,,,,,,,,,,,,,0.025,,,,,,,,,,Stimuli/psy_fixed_rotation_30_objects_occ0.7_0.9s/images/train/n04256520_4/n02818832_0/img_club_house_italia_nautilus_sofa_b03_the_sofa_and_chair_company_-_stanley_bed_2014_2012_gray.jpg,n04256520_4,n02818832_0,fixed,0.818476,n02933112_4,Stimuli/psy_fixed_rotation_30_objects_occ0.7_0.9s/images/train/n04256520_9/n02933112_4/img_napoleon_iii_sofa_buffet_2001-3_gray.png,random,fixed,n04256520_4,n02828884_9,Stimuli/canonical view 2/img_n04256520_4_gray.jpg,Stimuli/canonical view 2/img_n02828884_9_gray.jpg,random,left,Experiments/experiment_22/128.jpg,Experiments/experiment_22/129.jpg,Experiments/experiment_22/130.jpg,Experiments/experiment_22/131.jpg,367,1.0,2023-04-17_17h33.17.912,Occlusion_Psychophysics,2022.1.4,Linux x86_64,59.99880002,,,right,"[""right""]",[0.8345999999941114],False,,0.0,0.0,32.0,32.0,32.0,1.0,,,,,,
,,,,,,,,,,,,,,,,,,,,,0.025,,,,,,,,,,Stimuli/psy_flexible_rotation_30_objects_occ0.7_0.9s/images/train/n04405907_5/n04379243_-7/img_samsung_40_uhd_smart_tv_2011_quatre_dining_table_2004_gray.jpg,n04405907_5,n04379243_-7,flexible,0.753259,n04379243_8,Stimuli/psy_flexible_rotation_30_objects_occ0.7_0.9s/images/train/n04379243_0/n04379243_8/img_17th_c._monastery_dining_table_2010_glass_table_2010-3_gray.png,random,flexible,n04405907_5,n02818832_9,Stimuli/canonical view 2/img_n04405907_5_gray.jpg,Stimuli/canonical view 2/img_n02818832_9_gray.jpg,random,right,Experiments/experiment_22/132.jpg,Experiments/experiment_22/133.jpg,Experiments/experiment_22/134.jpg,Experiments/experiment_22/135.jpg,367,1.0,2023-04-17_17h33.17.912,Occlusion_Psychophysics,2022.1.4,Linux x86_64,59.99880002,,,right,"[""right""]",[0.8932000000178277],False,,0.0,0.0,33.0,33.0,33.0,1.0,,,,,,
,,,,,,,,,,,,,,,,,,,,,0.05,,,,,,,,,,Stimuli/psy_flexible_rotation_30_objects_occ0.7_0.9s/images/train/n03001627_9/n04256520_4/img_chair_eames_plastic_armchair_club_house_italia_nautilus_sofa_2012_gray.jpg,n03001627_9,n04256520_4,flexible,0.768886,n02883344_0,Stimuli/psy_flexible_rotation_30_objects_occ0.7_0.9s/images/train/n04256520_5/n02883344_0/img_meridiani_belmondo_bench_sofa_b03_box_2002-3_gray.png,random,flexible,n03001627_9,n02883344_0,Stimuli/canonical view 2/img_n03001627_9_gray.jpg,Stimuli/canonical view 2/img_n02883344_0_gray.jpg,random,right,Experiments/experiment_22/136.jpg,Experiments/experiment_22/137.jpg,Experiments/experiment_22/138.jpg,Experiments/experiment_22/139.jpg,367,1.0,2023-04-17_17h33.17.912,Occlusion_Psychophysics,2022.1.4,Linux x86_64,59.99880002,,,left,"[""left""]",[0.8256999999880463],False,,0.0,0.0,34.0,34.0,34.0,1.0,,,,,,
,,,,,,,,,,,,,,,,,,,,,0.05,,,,,,,,,,Stimuli/psy_fixed_rotation_30_objects_occ0.7_0.9s/images/train/n03001627_9/n02828884_3/img_chair_eames_plastic_armchair_b04_wood_metal_park_bench_2014_gray.jpg,n03001627_9,n02828884_3,fixed,0.718115,n02828884_3,Stimuli/psy_fixed_rotation_30_objects_occ0.7_0.9s/images/train/n03001627_9/n02828884_3/img_chair_eames_plastic_armchair_b04_wood_metal_park_bench_2014-3_gray.png,foreground,same as foreground,n03001627_9,n02818832_3,Stimuli/canonical view 2/img_n03001627_9_gray.jpg,Stimuli/canonical view 2/img_n02818832_3_gray.jpg,random,right,Experiments/experiment_22/140.jpg,Experiments/experiment_22/141.jpg,Experiments/experiment_22/142.jpg,Experiments/experiment_22/143.jpg,367,1.0,2023-04-17_17h33.17.912,Occlusion_Psychophysics,2022.1.4,Linux x86_64,59.99880002,,,right,"[""right""]",[0.8044000000060123],False,,0.0,0.0,35.0,35.0,35.0,1.0,,,,,,
,,,,,,,,,,,,,,,,,,,,,0.025,,,,,,,,,,Stimuli/psy_fixed_rotation_30_objects_occ0.7_0.9s/images/train/n02883344_0/n04379243_0/img_b03_box_17th_c._monastery_dining_table_2010_2003_gray.jpg,n02883344_0,n04379243_0,fixed,0.754645,n02933112_-18,Stimuli/psy_fixed_rotation_30_objects_occ0.7_0.9s/images/train/n02883344_-1/n02933112_-18/img_woven_box_cgaxis_models_48_26_vray_composite_2004-3_gray.png,random,fixed,n02883344_0,n04256520_9,Stimuli/canonical view 2/img_n02883344_0_gray.jpg,Stimuli/canonical view 2/img_n04256520_9_gray.jpg,random,right,Experiments/experiment_22/144.jpg,Experiments/experiment_22/145.jpg,Experiments/experiment_22/146.jpg,Experiments/experiment_22/147.jpg,367,1.0,2023-04-17_17h33.17.912,Occlusion_Psychophysics,2022.1.4,Linux x86_64,59.99880002,,,right,"[""right""]",[0.8722999999821468],False,,0.0,0.0,36.0,36.0,36.0,1.0,,,,,,
,,,,,,,,,,,,,,,,,,,,,0.025,,,,,,,,,,Stimuli/psy_flexible_rotation_30_objects_occ0.7_0.9s/images/train/n04405907_8/n04379243_-7/img_stylized_tv_quatre_dining_table_2013_gray.jpg,n04405907_8,n04379243_-7,flexible,0.756193,n02818832_0,Stimuli/psy_fixed_rotation_30_objects_occ0.7_0.9s/images/train/n02818832_9/n02818832_0/img_bed01_blue_b03_the_sofa_and_chair_company_-_stanley_bed_2014_2012-3_gray.png,random,fixed,n04405907_8,n04379243_-7,Stimuli/canonical view 2/img_n04405907_8_gray.jpg,Stimuli/canonical view 2/img_n04379243_-7_gray.jpg,foreground,left,Experiments/experiment_22/148.jpg,Experiments/experiment_22/149.jpg,Experiments/experiment_22/150.jpg,Experiments/experiment_22/151.jpg,367,1.0,2023-04-17_17h33.17.912,Occlusion_Psychophysics,2022.1.4,Linux x86_64,59.99880002,,,left,"[""left""]",[0.7112999999820886],False,,0.0,0.0,37.0,37.0,37.0,1.0,,,,,,
,,,,,,,,,,,,,,,,,,,,,0.025,,,,,,,,,,Stimuli/psy_flexible_rotation_30_objects_occ0.7_0.9s/images/train/n04405907_5/n04405907_9/img_samsung_40_uhd_smart_tv_2011_vray_004_2008_gray.jpg,n04405907_5,n04405907_9,flexible,0.751111,n02818832_0,Stimuli/psy_fixed_rotation_30_objects_occ0.7_0.9s/images/train/n04379243_-7/n02818832_0/img_quatre_dining_table_b03_the_sofa_and_chair_company_-_stanley_bed_2014_2012-3_gray.png,random,fixed,n04405907_5,n04405907_9,Stimuli/canonical view 2/img_n04405907_5_gray.jpg,Stimuli/canonical view 2/img_n04405907_9_gray.jpg,foreground,right,Experiments/experiment_22/152.jpg,Experiments/experiment_22/153.jpg,Experiments/experiment_22/154.jpg,Experiments/experiment_22/155.jpg,367,1.0,2023-04-17_17h33.17.912,Occlusion_Psychophysics,2022.1.4,Linux x86_64,59.99880002,,,left,"[""right""]",[1.2359000000059268],False,,0.0,0.0,38.0,38.0,38.0,1.0,,,,,,
,,,,,,,,,,,,,,,,,,,,,0.025,,,,,,,,,,Stimuli/psy_fixed_rotation_30_objects_occ0.7_0.9s/images/train/n03001627_9/n04405907_8/img_chair_eames_plastic_armchair_stylized_tv_2010_gray.jpg,n03001627_9,n04405907_8,fixed,0.776626,n04256520_5,Stimuli/psy_flexible_rotation_30_objects_occ0.7_0.9s/images/train/n04405907_9/n04256520_5/img_vray_004_meridiani_belmondo_bench_sofa_2007-3_gray.png,random,flexible,n03001627_9,n03001627_8,Stimuli/canonical view 2/img_n03001627_9_gray.jpg,Stimuli/canonical view 2/img_n03001627_8_gray.jpg,random,left,Experiments/experiment_22/156.jpg,Experiments/experiment_22/157.jpg,Experiments/experiment_22/158.jpg,Experiments/experiment_22/159.jpg,367,1.0,2023-04-17_17h33.17.912,Occlusion_Psychophysics,2022.1.4,Linux x86_64,59.99880002,,,right,"[""left""]",[1.04460000002382],False,,0.0,0.0,39.0,39.0,39.0,1.0,,,,,,
,,,,,,,,,,,,,,,,,,,,,0.025,,,,,,,,,,Stimuli/psy_flexible_rotation_30_objects_occ0.7_0.9s/images/train/n04405907_9/n02828884_3/img_vray_004_b04_wood_metal_park_bench_2007_gray.jpg,n04405907_9,n02828884_3,flexible,0.729452,n02828884_3,Stimuli/psy_flexible_rotation_30_objects_occ0.7_0.9s/images/train/n04405907_9/n02828884_3/img_vray_004_b04_wood_metal_park_bench_2007-3_gray.png,foreground,same as foreground,n04405907_9,n02828884_3,Stimuli/canonical view 2/img_n04405907_9_gray.jpg,Stimuli/canonical view 2/img_n02828884_3_gray.jpg,foreground,left,Experiments/experiment_22/160.jpg,Experiments/experiment_22/161.jpg,Experiments/experiment_22/162.jpg,Experiments/experiment_22/163.jpg,367,1.0,2023-04-17_17h33.17.912,Occlusion_Psychophysics,2022.1.4,Linux x86_64,59.99880002,,,left,"[""right""]",[1.038400000005936],False,,0.0,0.0,40.0,40.0,40.0,1.0,,,,,,
,,,,,,,,,,,,,,,,,,,,,0.05,,,,,,,,,,Stimuli/psy_flexible_rotation_30_objects_occ0.7_0.9s/images/train/n03928116_10/n03928116_4/img_ydp_103_r_2012__vray_dp_33_b_2013__vray_2006_gray.jpg,n03928116_10,n03928116_4,flexible,0.738315,n04405907_5,Stimuli/psy_fixed_rotation_30_objects_occ0.7_0.9s/images/train/n02818832_9/n04405907_5/img_bed01_blue_samsung_40_uhd_smart_tv_2011_2008-3_gray.png,random,fixed,n03928116_10,n03928116_4,Stimuli/canonical view 2/img_n03928116_10_gray.jpg,Stimuli/canonical view 2/img_n03928116_4_gray.jpg,foreground,left,Experiments/experiment_22/164.jpg,Experiments/experiment_22/165.jpg,Experiments/experiment_22/166.jpg,Experiments/experiment_22/167.jpg,367,1.0,2023-04-17_17h33.17.912,Occlusion_Psychophysics,2022.1.4,Linux x86_64,59.99880002,,,left,"[""left""]",[1.3439999999999372],False,,0.0,0.0,41.0,41.0,41.0,1.0,,,,,,
,,,,,,,,,,,,,,,,,,,,,0.025,,,,,,,,,,Stimuli/psy_fixed_rotation_30_objects_occ0.7_0.9s/images/train/n04405907_8/n03001627_8/img_stylized_tv_chair_billiani_doll_2001_gray.jpg,n04405907_8,n03001627_8,fixed,0.8129,n04256520_5,Stimuli/psy_flexible_rotation_30_objects_occ0.7_0.9s/images/train/n03928116_10/n04256520_5/img_ydp_103_r_2012__vray_meridiani_belmondo_bench_sofa_2001-3_gray.png,random,flexible,n04405907_8,n02818832_3,Stimuli/canonical view 2/img_n04405907_8_gray.jpg,Stimuli/canonical view 2/img_n02818832_3_gray.jpg,random,right,Experiments/experiment_22/168.jpg,Experiments/experiment_22/169.jpg,Experiments/experiment_22/170.jpg,Experiments/experiment_22/171.jpg,367,1.0,2023-04-17_17h33.17.912,Occlusion_Psychophysics,2022.1.4,Linux x86_64,59.99880002,,,right,"[""right""]",[0.9700999999940905],False,,0.0,0.0,42.0,42.0,42.0,1.0,,,,,,
,,,,,,,,,,,,,,,,,,,,,0.05,,,,,,,,,,Stimuli/psy_fixed_rotation_30_objects_occ0.7_0.9s/images/train/n04379243_8/n02818832_0/img_glass_table_b03_the_sofa_and_chair_company_-_stanley_bed_2014_2010_gray.jpg,n04379243_8,n02818832_0,fixed,0.82268,n04405907_9,Stimuli/psy_flexible_rotation_30_objects_occ0.7_0.9s/images/train/n04256520_9/n04405907_9/img_napoleon_iii_sofa_vray_004_2003-3_gray.png,random,flexible,n04379243_8,n02818832_3,Stimuli/canonical view 2/img_n04379243_8_gray.jpg,Stimuli/canonical view 2/img_n02818832_3_gray.jpg,random,right,Experiments/experiment_22/172.jpg,Experiments/experiment_22/173.jpg,Experiments/experiment_22/174.jpg,Experiments/experiment_22/175.jpg,367,1.0,2023-04-17_17h33.17.912,Occlusion_Psychophysics,2022.1.4,Linux x86_64,59.99880002,,,left,"[""left""]",[0.6464999999999463],False,,0.0,0.0,43.0,43.0,43.0,1.0,,,,,,
,,,,,,,,,,,,,,,,,,,,,0.025,,,,,,,,,,Stimuli/psy_fixed_rotation_30_objects_occ0.7_0.9s/images/train/n02818832_0/n02828884_3/img_b03_the_sofa_and_chair_company_-_stanley_bed_2014_b04_wood_metal_park_bench_2010_gray.jpg,n02818832_0,n02828884_3,fixed,0.722809,n04256520_5,Stimuli/psy_flexible_rotation_30_objects_occ0.7_0.9s/images/train/n04405907_9/n04256520_5/img_vray_004_meridiani_belmondo_bench_sofa_2015-3_gray.png,random,flexible,n02818832_0,n02883344_15,Stimuli/canonical view 2/img_n02818832_0_gray.jpg,Stimuli/canonical view 2/img_n02883344_15_gray.jpg,random,right,Experiments/experiment_22/176.jpg,Experiments/experiment_22/177.jpg,Experiments/experiment_22/178.jpg,Experiments/experiment_22/179.jpg,367,1.0,2023-04-17_17h33.17.912,Occlusion_Psychophysics,2022.1.4,Linux x86_64,59.99880002,,,left,"[""right""]",[0.9184999999999945],False,,0.0,0.0,44.0,44.0,44.0,1.0,,,,,,
,,,,,,,,,,,,,,,,,,,,,0.025,,,,,,,,,,Stimuli/psy_flexible_rotation_30_objects_occ0.7_0.9s/images/train/n02818832_9/n02883344_0/img_bed01_blue_b03_box_2005_gray.jpg,n02818832_9,n02883344_0,flexible,0.812216,n02883344_15,Stimuli/psy_flexible_rotation_30_objects_occ0.7_0.9s/images/train/n03001627_8/n02883344_15/img_chair_billiani_doll_microwave_box_2004-3_gray.png,random,flexible,n02818832_9,n02883344_0,Stimuli/canonical view 2/img_n02818832_9_gray.jpg,Stimuli/canonical view 2/img_n02883344_0_gray.jpg,foreground,right,Experiments/experiment_22/180.jpg,Experiments/experiment_22/181.jpg,Experiments/experiment_22/182.jpg,Experiments/experiment_22/183.jpg,367,1.0,2023-04-17_17h33.17.912,Occlusion_Psychophysics,2022.1.4,Linux x86_64,59.99880002,,,right,"[""right""]",[0.9050000000000864],False,,0.0,0.0,45.0,45.0,45.0,1.0,,,,,,
,,,,,,,,,,,,,,,,,,,,,0.05,,,,,,,,,,Stimuli/psy_fixed_rotation_30_objects_occ0.7_0.9s/images/train/n03001627_9/n02933112_4/img_chair_eames_plastic_armchair_buffet_2011_gray.jpg,n03001627_9,n02933112_4,fixed,0.706439,n04256520_4,Stimuli/psy_fixed_rotation_30_objects_occ0.7_0.9s/images/train/n02933112_4/n04256520_4/img_buffet_club_house_italia_nautilus_sofa_2003-3_gray.png,random,fixed,n03001627_9,n02933112_4,Stimuli/canonical view 2/img_n03001627_9_gray.jpg,Stimuli/canonical view 2/img_n02933112_4_gray.jpg,foreground,right,Experiments/experiment_22/184.jpg,Experiments/experiment_22/185.jpg,Experiments/experiment_22/186.jpg,Experiments/experiment_22/187.jpg,367,1.0,2023-04-17_17h33.17.912,Occlusion_Psychophysics,2022.1.4,Linux x86_64,59.99880002,,,right,"[""right""]",[1.0713999999761654],False,,0.0,0.0,46.0,46.0,46.0,1.0,,,,,,
,,,,,,,,,,,,,,,,,,,,,0.05,,,,,,,,,,Stimuli/psy_flexible_rotation_30_objects_occ0.7_0.9s/images/train/n04256520_5/n04405907_9/img_meridiani_belmondo_bench_sofa_vray_004_2007_gray.jpg,n04256520_5,n04405907_9,flexible,0.734846,n04256520_4,Stimuli/psy_flexible_rotation_30_objects_occ0.7_0.9s/images/train/n04256520_9/n04256520_4/img_napoleon_iii_sofa_club_house_italia_nautilus_sofa_2002-3_gray.png,random,flexible,n04256520_5,n02883344_-1,Stimuli/canonical view 2/img_n04256520_5_gray.jpg,Stimuli/canonical view 2/img_n02883344_-1_gray.jpg,random,left,Experiments/experiment_22/188.jpg,Experiments/experiment_22/189.jpg,Experiments/experiment_22/190.jpg,Experiments/experiment_22/191.jpg,367,1.0,2023-04-17_17h33.17.912,Occlusion_Psychophysics,2022.1.4,Linux x86_64,59.99880002,,,left,"[""right""]",[1.060800000011909],False,,0.0,0.0,47.0,47.0,47.0,1.0,,,,,,
,,,,,,,,,,,,,,,,,,,,,0.025,,,,,,,,,,Stimuli/psy_flexible_rotation_30_objects_occ0.7_0.9s/images/train/n04379243_-7/n02933112_4/img_quatre_dining_table_buffet_2000_gray.jpg,n04379243_-7,n02933112_4,flexible,0.748444,n02933112_4,Stimuli/psy_flexible_rotation_30_objects_occ0.7_0.9s/images/train/n04379243_-7/n02933112_4/img_quatre_dining_table_buffet_2000-3_gray.png,foreground,same as foreground,n04379243_-7,n03001627_-2,Stimuli/canonical view 2/img_n04379243_-7_gray.jpg,Stimuli/canonical view 2/img_n03001627_-2_gray.jpg,random,left,Experiments/experiment_22/192.jpg,Experiments/experiment_22/193.jpg,Experiments/experiment_22/194.jpg,Experiments/experiment_22/195.jpg,367,1.0,2023-04-17_17h33.17.912,Occlusion_Psychophysics,2022.1.4,Linux x86_64,59.99880002,,,left,"[""left""]",[1.280200000017885],False,,0.0,0.0,48.0,48.0,48.0,1.0,,,,,,
,,,,,,,,,,,,,,,,,,,,,0.025,,,,,,,,,,Stimuli/psy_flexible_rotation_30_objects_occ0.7_0.9s/images/train/n02933112_-2/n04256520_4/img_sink_base_white_wood_club_house_italia_nautilus_sofa_2002_gray.jpg,n02933112_-2,n04256520_4,flexible,0.791265,n04256520_4,Stimuli/psy_flexible_rotation_30_objects_occ0.7_0.9s/images/train/n02933112_-2/n04256520_4/img_sink_base_white_wood_club_house_italia_nautilus_sofa_2002-3_gray.png,foreground,same as foreground,n02933112_-2,n02828884_4,Stimuli/canonical view 2/img_n02933112_-2_gray.jpg,Stimuli/canonical view 2/img_n02828884_4_gray.jpg,random,right,Experiments/experiment_22/196.jpg,Experiments/experiment_22/197.jpg,Experiments/experiment_22/198.jpg,Experiments/experiment_22/199.jpg,367,1.0,2023-04-17_17h33.17.912,Occlusion_Psychophysics,2022.1.4,Linux x86_64,59.99880002,,,left,"[""left""]",[0.9734999999999445],False,,0.0,0.0,49.0,49.0,49.0,1.0,,,,,,
,,,,,,,,,,,,,,,,,,,,,0.025,,,,,,,,,,Stimuli/psy_fixed_rotation_30_objects_occ0.7_0.9s/images/train/n02883344_0/n02883344_15/img_b03_box_microwave_box_2014_gray.jpg,n02883344_0,n02883344_15,fixed,0.820172,n03928116_4,Stimuli/psy_fixed_rotation_30_objects_occ0.7_0.9s/images/train/n04379243_8/n03928116_4/img_glass_table_dp_33_b_2013__vray_2005-3_gray.png,random,fixed,n02883344_0,n02883344_15,Stimuli/canonical view 2/img_n02883344_0_gray.jpg,Stimuli/canonical view 2/img_n02883344_15_gray.jpg,foreground,left,Experiments/experiment_22/200.jpg,Experiments/experiment_22/201.jpg,Experiments/experiment_22/202.jpg,Experiments/experiment_22/203.jpg,367,1.0,2023-04-17_17h33.17.912,Occlusion_Psychophysics,2022.1.4,Linux x86_64,59.99880002,,,right,"[""right""]",[0.9560000000000173],False,,0.0,0.0,50.0,50.0,50.0,1.0,,,,,,
,,,,,,,,,,,,,,,,,,,,,0.025,,,,,,,,,,Stimuli/psy_flexible_rotation_30_objects_occ0.7_0.9s/images/train/n04256520_9/n02883344_15/img_napoleon_iii_sofa_microwave_box_2008_gray.jpg,n04256520_9,n02883344_15,flexible,0.724716,n02883344_15,Stimuli/psy_flexible_rotation_30_objects_occ0.7_0.9s/images/train/n04256520_9/n02883344_15/img_napoleon_iii_sofa_microwave_box_2008-3_gray.png,foreground,same as foreground,n04256520_9,n04405907_5,Stimuli/canonical view 2/img_n04256520_9_gray.jpg,Stimuli/canonical view 2/img_n04405907_5_gray.jpg,random,right,Experiments/experiment_22/204.jpg,Experiments/experiment_22/205.jpg,Experiments/experiment_22/206.jpg,Experiments/experiment_22/207.jpg,367,1.0,2023-04-17_17h33.17.912,Occlusion_Psychophysics,2022.1.4,Linux x86_64,59.99880002,,,right,"[""left""]",[0.9079000000059523],False,,0.0,0.0,51.0,51.0,51.0,1.0,,,,,,
,,,,,,,,,,,,,,,,,,,,,0.05,,,,,,,,,,Stimuli/psy_fixed_rotation_30_objects_occ0.7_0.9s/images/train/n03928116_4/n02818832_3/img_dp_33_b_2013__vray_b05_ccm_contemporary_bed_max2013_2010_gray.jpg,n03928116_4,n02818832_3,fixed,0.70008,n03001627_8,Stimuli/psy_flexible_rotation_30_objects_occ0.7_0.9s/images/train/n04379243_0/n03001627_8/img_17th_c._monastery_dining_table_2010_chair_billiani_doll_2007-3_gray.png,random,flexible,n03928116_4,n02828884_3,Stimuli/canonical view 2/img_n03928116_4_gray.jpg,Stimuli/canonical view 2/img_n02828884_3_gray.jpg,random,left,Experiments/experiment_22/208.jpg,Experiments/experiment_22/209.jpg,Experiments/experiment_22/210.jpg,Experiments/experiment_22/211.jpg,367,1.0,2023-04-17_17h33.17.912,Occlusion_Psychophysics,2022.1.4,Linux x86_64,59.99880002,,,right,"[""right""]",[1.469900000005964],False,,0.0,0.0,52.0,52.0,52.0,1.0,,,,,,
,,,,,,,,,,,,,,,,,,,,,0.025,,,,,,,,,,Stimuli/psy_fixed_rotation_30_objects_occ0.7_0.9s/images/train/n04405907_5/n03928116_0/img_samsung_40_uhd_smart_tv_2011_b02_piano_2008_gray.jpg,n04405907_5,n03928116_0,fixed,0.805247,n03928116_0,Stimuli/psy_fixed_rotation_30_objects_occ0.7_0.9s/images/train/n04405907_5/n03928116_0/img_samsung_40_uhd_smart_tv_2011_b02_piano_2008-3_gray.png,foreground,same as foreground,n04405907_5,n02883344_-1,Stimuli/canonical view 2/img_n04405907_5_gray.jpg,Stimuli/canonical view 2/img_n02883344_-1_gray.jpg,random,right,Experiments/experiment_22/212.jpg,Experiments/experiment_22/213.jpg,Experiments/experiment_22/214.jpg,Experiments/experiment_22/215.jpg,367,1.0,2023-04-17_17h33.17.912,Occlusion_Psychophysics,2022.1.4,Linux x86_64,59.99880002,,,left,"[""right""]",[1.3144000000060032],False,,0.0,0.0,53.0,53.0,53.0,1.0,,,,,,
,,,,,,,,,,,,,,,,,,,,,0.025,,,,,,,,,,Stimuli/psy_fixed_rotation_30_objects_occ0.7_0.9s/images/train/n04405907_9/n04256520_9/img_vray_004_napoleon_iii_sofa_2002_gray.jpg,n04405907_9,n04256520_9,fixed,0.800589,n04256520_9,Stimuli/psy_fixed_rotation_30_objects_occ0.7_0.9s/images/train/n04405907_9/n04256520_9/img_vray_004_napoleon_iii_sofa_2002-3_gray.png,foreground,same as foreground,n04405907_9,n04379243_0,Stimuli/canonical view 2/img_n04405907_9_gray.jpg,Stimuli/canonical view 2/img_n04379243_0_gray.jpg,random,right,Experiments/experiment_22/216.jpg,Experiments/experiment_22/217.jpg,Experiments/experiment_22/218.jpg,Experiments/experiment_22/219.jpg,367,1.0,2023-04-17_17h33.17.912,Occlusion_Psychophysics,2022.1.4,Linux x86_64,59.99880002,,,left,"[""left""]",[0.900000000000091],False,,0.0,0.0,54.0,54.0,54.0,1.0,,,,,,
,,,,,,,,,,,,,,,,,,,,,0.025,,,,,,,,,,Stimuli/psy_flexible_rotation_30_objects_occ0.7_0.9s/images/train/n02828884_3/n02933112_-18/img_b04_wood_metal_park_bench_cgaxis_models_48_26_vray_composite_2000_gray.jpg,n02828884_3,n02933112_-18,flexible,0.736628,n02933112_-18,Stimuli/psy_flexible_rotation_30_objects_occ0.7_0.9s/images/train/n02828884_3/n02933112_-18/img_b04_wood_metal_park_bench_cgaxis_models_48_26_vray_composite_2000-3_gray.png,foreground,same as foreground,n02828884_3,n02933112_-18,Stimuli/canonical view 2/img_n02828884_3_gray.jpg,Stimuli/canonical view 2/img_n02933112_-18_gray.jpg,foreground,left,Experiments/experiment_22/220.jpg,Experiments/experiment_22/221.jpg,Experiments/experiment_22/222.jpg,Experiments/experiment_22/223.jpg,367,1.0,2023-04-17_17h33.17.912,Occlusion_Psychophysics,2022.1.4,Linux x86_64,59.99880002,,,right,"[""right""]",[0.8908000000118363],False,,0.0,0.0,55.0,55.0,55.0,1.0,,,,,,
,,,,,,,,,,,,,,,,,,,,,0.05,,,,,,,,,,Stimuli/psy_flexible_rotation_30_objects_occ0.7_0.9s/images/train/n03928116_4/n04379243_-7/img_dp_33_b_2013__vray_quatre_dining_table_2012_gray.jpg,n03928116_4,n04379243_-7,flexible,0.855771,n04379243_-7,Stimuli/psy_flexible_rotation_30_objects_occ0.7_0.9s/images/train/n03928116_4/n04379243_-7/img_dp_33_b_2013__vray_quatre_dining_table_2012-3_gray.png,foreground,same as foreground,n03928116_4,n04379243_-7,Stimuli/canonical view 2/img_n03928116_4_gray.jpg,Stimuli/canonical view 2/img_n04379243_-7_gray.jpg,foreground,right,Experiments/experiment_22/224.jpg,Experiments/experiment_22/225.jpg,Experiments/experiment_22/226.jpg,Experiments/experiment_22/227.jpg,367,1.0,2023-04-17_17h33.17.912,Occlusion_Psychophysics,2022.1.4,Linux x86_64,59.99880002,,,left,"[""right""]",[1.3215999999940777],False,,0.0,0.0,56.0,56.0,56.0,1.0,,,,,,
,,,,,,,,,,,,,,,,,,,,,0.025,,,,,,,,,,Stimuli/psy_flexible_rotation_30_objects_occ0.7_0.9s/images/train/n04405907_9/n02883344_-1/img_vray_004_woven_box_2015_gray.jpg,n04405907_9,n02883344_-1,flexible,0.803014,n03928116_0,Stimuli/psy_flexible_rotation_30_objects_occ0.7_0.9s/images/train/n04405907_5/n03928116_0/img_samsung_40_uhd_smart_tv_2011_b02_piano_2010-3_gray.png,random,flexible,n04405907_9,n02828884_9,Stimuli/canonical view 2/img_n04405907_9_gray.jpg,Stimuli/canonical view 2/img_n02828884_9_gray.jpg,random,left,Experiments/experiment_22/228.jpg,Experiments/experiment_22/229.jpg,Experiments/experiment_22/230.jpg,Experiments/experiment_22/231.jpg,367,1.0,2023-04-17_17h33.17.912,Occlusion_Psychophysics,2022.1.4,Linux x86_64,59.99880002,,,left,"[""left""]",[1.56899999999996],False,,0.0,0.0,57.0,57.0,57.0,1.0,,,,,,
,,,,,,,,,,,,,,,,,,,,,0.05,,,,,,,,,,Stimuli/psy_flexible_rotation_30_objects_occ0.7_0.9s/images/train/n04256520_9/n02818832_0/img_napoleon_iii_sofa_b03_the_sofa_and_chair_company_-_stanley_bed_2014_2009_gray.jpg,n04256520_9,n02818832_0,flexible,0.780148,n02818832_0,Stimuli/psy_flexible_rotation_30_objects_occ0.7_0.9s/images/train/n04256520_9/n02818832_0/img_napoleon_iii_sofa_b03_the_sofa_and_chair_company_-_stanley_bed_2014_2009-3_gray.png,foreground,same as foreground,n04256520_9,n02818832_0,Stimuli/canonical view 2/img_n04256520_9_gray.jpg,Stimuli/canonical view 2/img_n02818832_0_gray.jpg,foreground,right,Experiments/experiment_22/232.jpg,Experiments/experiment_22/233.jpg,Experiments/experiment_22/234.jpg,Experiments/experiment_22/235.jpg,367,1.0,2023-04-17_17h33.17.912,Occlusion_Psychophysics,2022.1.4,Linux x86_64,59.99880002,,,left,"[""left""]",[1.0622999999820877],False,,0.0,0.0,58.0,58.0,58.0,1.0,,,,,,
,,,,,,,,,,,,,,,,,,,,,0.025,,,,,,,,,,Stimuli/psy_fixed_rotation_30_objects_occ0.7_0.9s/images/train/n02818832_3/n02883344_0/img_b05_ccm_contemporary_bed_max2013_b03_box_2007_gray.jpg,n02818832_3,n02883344_0,fixed,0.75675,n02883344_0,Stimuli/psy_fixed_rotation_30_objects_occ0.7_0.9s/images/train/n02818832_3/n02883344_0/img_b05_ccm_contemporary_bed_max2013_b03_box_2007-3_gray.png,foreground,same as foreground,n02818832_3,n04379243_-7,Stimuli/canonical view 2/img_n02818832_3_gray.jpg,Stimuli/canonical view 2/img_n04379243_-7_gray.jpg,random,left,Experiments/experiment_22/236.jpg,Experiments/experiment_22/237.jpg,Experiments/experiment_22/238.jpg,Experiments/experiment_22/239.jpg,367,1.0,2023-04-17_17h33.17.912,Occlusion_Psychophysics,2022.1.4,Linux x86_64,59.99880002,,,right,"[""left""]",[0.9868000000119537],False,,0.0,0.0,59.0,59.0,59.0,1.0,,,,,,
,,,,,,,,,,,,,,,,,,,,,0.05,,,,,,,,,,Stimuli/psy_fixed_rotation_30_objects_occ0.7_0.9s/images/train/n02883344_0/n04405907_9/img_b03_box_vray_004_2014_gray.jpg,n02883344_0,n04405907_9,fixed,0.736364,n04379243_0,Stimuli/psy_flexible_rotation_30_objects_occ0.7_0.9s/images/train/n02818832_3/n04379243_0/img_b05_ccm_contemporary_bed_max2013_17th_c._monastery_dining_table_2010_2001-3_gray.png,random,flexible,n02883344_0,n02933112_4,Stimuli/canonical view 2/img_n02883344_0_gray.jpg,Stimuli/canonical view 2/img_n02933112_4_gray.jpg,random,left,Experiments/experiment_22/240.jpg,Experiments/experiment_22/241.jpg,Experiments/experiment_22/242.jpg,Experiments/experiment_22/243.jpg,367,1.0,2023-04-17_17h33.17.912,Occlusion_Psychophysics,2022.1.4,Linux x86_64,59.99880002,,,left,"[""left""]",[0.9199999999999591],False,,0.0,0.0,60.0,60.0,60.0,1.0,,,,,,
,,,,,,,,,,,,,,,,,,,,,0.025,,,,,,,,,,Stimuli/psy_flexible_rotation_30_objects_occ0.7_0.9s/images/train/n02883344_0/n02828884_3/img_b03_box_b04_wood_metal_park_bench_2000_gray.jpg,n02883344_0,n02828884_3,flexible,0.729097,n04379243_-7,Stimuli/psy_flexible_rotation_30_objects_occ0.7_0.9s/images/train/n02933112_-18/n04379243_-7/img_cgaxis_models_48_26_vray_composite_quatre_dining_table_2011-3_gray.png,random,flexible,n02883344_0,n03001627_8,Stimuli/canonical view 2/img_n02883344_0_gray.jpg,Stimuli/canonical view 2/img_n03001627_8_gray.jpg,random,right,Experiments/experiment_22/244.jpg,Experiments/experiment_22/245.jpg,Experiments/experiment_22/246.jpg,Experiments/experiment_22/247.jpg,367,1.0,2023-04-17_17h33.17.912,Occlusion_Psychophysics,2022.1.4,Linux x86_64,59.99880002,,,left,"[""left""]",[1.1213000000119564],False,,0.0,0.0,61.0,61.0,61.0,1.0,,,,,,
,,,,,,,,,,,,,,,,,,,,,0.025,,,,,,,,,,Stimuli/psy_fixed_rotation_30_objects_occ0.7_0.9s/images/train/n04256520_9/n04405907_8/img_napoleon_iii_sofa_stylized_tv_2003_gray.jpg,n04256520_9,n04405907_8,fixed,0.756381,n04256520_5,Stimuli/psy_flexible_rotation_30_objects_occ0.7_0.9s/images/train/n04405907_9/n04256520_5/img_vray_004_meridiani_belmondo_bench_sofa_2004-3_gray.png,random,flexible,n04256520_9,n04405907_8,Stimuli/canonical view 2/img_n04256520_9_gray.jpg,Stimuli/canonical view 2/img_n04405907_8_gray.jpg,foreground,right,Experiments/experiment_22/248.jpg,Experiments/experiment_22/249.jpg,Experiments/experiment_22/250.jpg,Experiments/experiment_22/251.jpg,367,1.0,2023-04-17_17h33.17.912,Occlusion_Psychophysics,2022.1.4,Linux x86_64,59.99880002,,,right,"[""right""]",[1.0690999999940232],False,,0.0,0.0,62.0,62.0,62.0,1.0,,,,,,
,,,,,,,,,,,,,,,,,,,,,0.05,,,,,,,,,,Stimuli/psy_flexible_rotation_30_objects_occ0.7_0.9s/images/train/n03001627_9/n04405907_8/img_chair_eames_plastic_armchair_stylized_tv_2014_gray.jpg,n03001627_9,n04405907_8,flexible,0.834049,n04256520_9,Stimuli/psy_fixed_rotation_30_objects_occ0.7_0.9s/images/train/n02828884_3/n04256520_9/img_b04_wood_metal_park_bench_napoleon_iii_sofa_2000-3_gray.png,random,fixed,n03001627_9,n02828884_3,Stimuli/canonical view 2/img_n03001627_9_gray.jpg,Stimuli/canonical view 2/img_n02828884_3_gray.jpg,random,left,Experiments/experiment_22/252.jpg,Experiments/experiment_22/253.jpg,Experiments/experiment_22/254.jpg,Experiments/experiment_22/255.jpg,367,1.0,2023-04-17_17h33.17.912,Occlusion_Psychophysics,2022.1.4,Linux x86_64,59.99880002,,,left,"[""left""]",[1.0203000000119573],False,,0.0,0.0,63.0,63.0,63.0,1.0,,,,,,
,,,,,,,,,,,,,,,,,,,,,0.05,,,,,,,,,,Stimuli/psy_fixed_rotation_30_objects_occ0.7_0.9s/images/train/n02933112_4/n04405907_5/img_buffet_samsung_40_uhd_smart_tv_2011_2011_gray.jpg,n02933112_4,n04405907_5,fixed,0.711345,n02818832_9,Stimuli/psy_fixed_rotation_30_objects_occ0.7_0.9s/images/train/n02933112_-18/n02818832_9/img_cgaxis_models_48_26_vray_composite_bed01_blue_2003-3_gray.png,random,fixed,n02933112_4,n03928116_10,Stimuli/canonical view 2/img_n02933112_4_gray.jpg,Stimuli/canonical view 2/img_n03928116_10_gray.jpg,random,right,Experiments/experiment_22/256.jpg,Experiments/experiment_22/257.jpg,Experiments/experiment_22/258.jpg,Experiments/experiment_22/259.jpg,367,1.0,2023-04-17_17h33.17.912,Occlusion_Psychophysics,2022.1.4,Linux x86_64,59.99880002,,,left,"[""right""]",[1.4101999999880945],False,,0.0,0.0,64.0,64.0,64.0,1.0,,,,,,
,,,,,,,,,,,,,,,,,,,,,0.05,,,,,,,,,,Stimuli/psy_fixed_rotation_30_objects_occ0.7_0.9s/images/train/n04256520_5/n03928116_0/img_meridiani_belmondo_bench_sofa_b02_piano_2015_gray.jpg,n04256520_5,n03928116_0,fixed,0.709256,n03928116_0,Stimuli/psy_fixed_rotation_30_objects_occ0.7_0.9s/images/train/n04256520_5/n03928116_0/img_meridiani_belmondo_bench_sofa_b02_piano_2015-3_gray.png,foreground,same as foreground,n04256520_5,n03001627_8,Stimuli/canonical view 2/img_n04256520_5_gray.jpg,Stimuli/canonical view 2/img_n03001627_8_gray.jpg,random,right,Experiments/experiment_22/260.jpg,Experiments/experiment_22/261.jpg,Experiments/experiment_22/262.jpg,Experiments/experiment_22/263.jpg,367,1.0,2023-04-17_17h33.17.912,Occlusion_Psychophysics,2022.1.4,Linux x86_64,59.99880002,,,right,"[""right""]",[0.965900000005945],False,,0.0,0.0,65.0,65.0,65.0,1.0,,,,,,
,,,,,,,,,,,,,,,,,,,,,0.05,,,,,,,,,,Stimuli/psy_flexible_rotation_30_objects_occ0.7_0.9s/images/train/n02818832_0/n04405907_9/img_b03_the_sofa_and_chair_company_-_stanley_bed_2014_vray_004_2000_gray.jpg,n02818832_0,n04405907_9,flexible,0.723857,n04379243_-7,Stimuli/psy_fixed_rotation_30_objects_occ0.7_0.9s/images/train/n02828884_3/n04379243_-7/img_b04_wood_metal_park_bench_quatre_dining_table_2004-3_gray.png,random,fixed,n02818832_0,n02818832_3,Stimuli/canonical view 2/img_n02818832_0_gray.jpg,Stimuli/canonical view 2/img_n02818832_3_gray.jpg,random,left,Experiments/experiment_22/264.jpg,Experiments/experiment_22/265.jpg,Experiments/experiment_22/266.jpg,Experiments/experiment_22/267.jpg,367,1.0,2023-04-17_17h33.17.912,Occlusion_Psychophysics,2022.1.4,Linux x86_64,59.99880002,,,right,"[""left""]",[1.380200000017794],False,,0.0,0.0,66.0,66.0,66.0,1.0,,,,,,
,,,,,,,,,,,,,,,,,,,,,0.025,,,,,,,,,,Stimuli/psy_fixed_rotation_30_objects_occ0.7_0.9s/images/train/n02818832_0/n02828884_4/img_b03_the_sofa_and_chair_company_-_stanley_bed_2014_b05_c-5_classic_series_bench-2012_2006_gray.jpg,n02818832_0,n02828884_4,fixed,0.707039,n02828884_4,Stimuli/psy_fixed_rotation_30_objects_occ0.7_0.9s/images/train/n02818832_0/n02828884_4/img_b03_the_sofa_and_chair_company_-_stanley_bed_2014_b05_c-5_classic_series_bench-2012_2006-3_gray.png,foreground,same as foreground,n02818832_0,n02828884_4,Stimuli/canonical view 2/img_n02818832_0_gray.jpg,Stimuli/canonical view 2/img_n02828884_4_gray.jpg,foreground,left,Experiments/experiment_22/268.jpg,Experiments/experiment_22/269.jpg,Experiments/experiment_22/270.jpg,Experiments/experiment_22/271.jpg,367,1.0,2023-04-17_17h33.17.912,Occlusion_Psychophysics,2022.1.4,Linux x86_64,59.99880002,,,left,"[""left""]",[1.1395999999939477],False,,0.0,0.0,67.0,67.0,67.0,1.0,,,,,,
,,,,,,,,,,,,,,,,,,,,,0.025,,,,,,,,,,Stimuli/psy_fixed_rotation_30_objects_occ0.7_0.9s/images/train/n02933112_-2/n04405907_9/img_sink_base_white_wood_vray_004_2008_gray.jpg,n02933112_-2,n04405907_9,fixed,0.737404,n04405907_9,Stimuli/psy_fixed_rotation_30_objects_occ0.7_0.9s/images/train/n02933112_-2/n04405907_9/img_sink_base_white_wood_vray_004_2008-3_gray.png,foreground,same as foreground,n02933112_-2,n04405907_9,Stimuli/canonical view 2/img_n02933112_-2_gray.jpg,Stimuli/canonical view 2/img_n04405907_9_gray.jpg,foreground,left,Experiments/experiment_22/272.jpg,Experiments/experiment_22/273.jpg,Experiments/experiment_22/274.jpg,Experiments/experiment_22/275.jpg,367,1.0,2023-04-17_17h33.17.912,Occlusion_Psychophysics,2022.1.4,Linux x86_64,59.99880002,,,right,"[""right""]",[0.9424999999999955],False,,0.0,0.0,68.0,68.0,68.0,1.0,,,,,,
,,,,,,,,,,,,,,,,,,,,,0.05,,,,,,,,,,Stimuli/psy_fixed_rotation_30_objects_occ0.7_0.9s/images/train/n02933112_-2/n02883344_-1/img_sink_base_white_wood_woven_box_2001_gray.jpg,n02933112_-2,n02883344_-1,fixed,0.851413,n04256520_5,Stimuli/psy_flexible_rotation_30_objects_occ0.7_0.9s/images/train/n03928116_0/n04256520_5/img_b02_piano_meridiani_belmondo_bench_sofa_2015-3_gray.png,random,flexible,n02933112_-2,n03001627_9,Stimuli/canonical view 2/img_n02933112_-2_gray.jpg,Stimuli/canonical view 2/img_n03001627_9_gray.jpg,random,left,Experiments/experiment_22/276.jpg,Experiments/experiment_22/277.jpg,Experiments/experiment_22/278.jpg,Experiments/experiment_22/279.jpg,367,1.0,2023-04-17_17h33.17.912,Occlusion_Psychophysics,2022.1.4,Linux x86_64,59.99880002,,,left,"[""left""]",[0.7865000000000464],False,,0.0,0.0,69.0,69.0,69.0,1.0,,,,,,
,,,,,,,,,,,,,,,,,,,,,0.025,,,,,,,,,,Stimuli/psy_flexible_rotation_30_objects_occ0.7_0.9s/images/train/n04379243_-7/n03928116_10/img_quatre_dining_table_ydp_103_r_2012__vray_2008_gray.jpg,n04379243_-7,n03928116_10,flexible,0.71147,n04405907_8,Stimuli/psy_flexible_rotation_30_objects_occ0.7_0.9s/images/train/n04256520_4/n04405907_8/img_club_house_italia_nautilus_sofa_stylized_tv_2007-3_gray.png,random,flexible,n04379243_-7,n03928116_10,Stimuli/canonical view 2/img_n04379243_-7_gray.jpg,Stimuli/canonical view 2/img_n03928116_10_gray.jpg,foreground,right,Experiments/experiment_22/280.jpg,Experiments/experiment_22/281.jpg,Experiments/experiment_22/282.jpg,Experiments/experiment_22/283.jpg,367,1.0,2023-04-17_17h33.17.912,Occlusion_Psychophysics,2022.1.4,Linux x86_64,59.99880002,,,left,"[""right""]",[0.8985000000000127],False,,0.0,0.0,70.0,70.0,70.0,1.0,,,,,,
,,,,,,,,,,,,,,,,,,,,,0.025,,,,,,,,,,Stimuli/psy_fixed_rotation_30_objects_occ0.7_0.9s/images/train/n04405907_5/n04405907_9/img_samsung_40_uhd_smart_tv_2011_vray_004_2010_gray.jpg,n04405907_5,n04405907_9,fixed,0.788045,n02933112_-2,Stimuli/psy_flexible_rotation_30_objects_occ0.7_0.9s/images/train/n02818832_0/n02933112_-2/img_b03_the_sofa_and_chair_company_-_stanley_bed_2014_sink_base_white_wood_2005-3_gray.png,random,flexible,n04405907_5,n02883344_-1,Stimuli/canonical view 2/img_n04405907_5_gray.jpg,Stimuli/canonical view 2/img_n02883344_-1_gray.jpg,random,left,Experiments/experiment_22/284.jpg,Experiments/experiment_22/285.jpg,Experiments/experiment_22/286.jpg,Experiments/experiment_22/287.jpg,367,1.0,2023-04-17_17h33.17.912,Occlusion_Psychophysics,2022.1.4,Linux x86_64,59.99880002,,,right,"[""left""]",[1.0430000000000064],False,,0.0,0.0,71.0,71.0,71.0,1.0,,,,,,
,,,,,,,,,,,,,,,,,,,,,0.05,,,,,,,,,,Stimuli/psy_fixed_rotation_30_objects_occ0.7_0.9s/images/train/n02933112_-2/n02818832_9/img_sink_base_white_wood_bed01_blue_2011_gray.jpg,n02933112_-2,n02818832_9,fixed,0.752517,n02818832_3,Stimuli/psy_fixed_rotation_30_objects_occ0.7_0.9s/images/train/n02828884_3/n02818832_3/img_b04_wood_metal_park_bench_b05_ccm_contemporary_bed_max2013_2012-3_gray.png,random,fixed,n02933112_-2,n02818832_9,Stimuli/canonical view 2/img_n02933112_-2_gray.jpg,Stimuli/canonical view 2/img_n02818832_9_gray.jpg,foreground,left,Experiments/experiment_22/288.jpg,Experiments/experiment_22/289.jpg,Experiments/experiment_22/290.jpg,Experiments/experiment_22/291.jpg,367,1.0,2023-04-17_17h33.17.912,Occlusion_Psychophysics,2022.1.4,Linux x86_64,59.99880002,,,right,"[""right""]",[0.9504000000059705],False,,0.0,0.0,72.0,72.0,72.0,1.0,,,,,,
,,,,,,,,,,,,,,,,,,,,,0.05,,,,,,,,,,Stimuli/psy_flexible_rotation_30_objects_occ0.7_0.9s/images/train/n04405907_8/n04256520_4/img_stylized_tv_club_house_italia_nautilus_sofa_2006_gray.jpg,n04405907_8,n04256520_4,flexible,0.732538,n04256520_5,Stimuli/psy_flexible_rotation_30_objects_occ0.7_0.9s/images/train/n02818832_0/n04256520_5/img_b03_the_sofa_and_chair_company_-_stanley_bed_2014_meridiani_belmondo_bench_sofa_2005-3_gray.png,random,flexible,n04405907_8,n02883344_15,Stimuli/canonical view 2/img_n04405907_8_gray.jpg,Stimuli/canonical view 2/img_n02883344_15_gray.jpg,random,left,Experiments/experiment_22/292.jpg,Experiments/experiment_22/293.jpg,Experiments/experiment_22/294.jpg,Experiments/experiment_22/295.jpg,367,1.0,2023-04-17_17h33.17.912,Occlusion_Psychophysics,2022.1.4,Linux x86_64,59.99880002,,,right,"[""right""]",[1.0858999999761636],False,,0.0,0.0,73.0,73.0,73.0,1.0,,,,,,
,,,,,,,,,,,,,,,,,,,,,0.025,,,,,,,,,,Stimuli/psy_flexible_rotation_30_objects_occ0.7_0.9s/images/train/n03001627_-2/n02818832_0/img_wood_chair_b03_the_sofa_and_chair_company_-_stanley_bed_2014_2004_gray.jpg,n03001627_-2,n02818832_0,flexible,0.740159,n02818832_3,Stimuli/psy_flexible_rotation_30_objects_occ0.7_0.9s/images/train/n04405907_8/n02818832_3/img_stylized_tv_b05_ccm_contemporary_bed_max2013_2014-3_gray.png,random,flexible,n03001627_-2,n02818832_0,Stimuli/canonical view 2/img_n03001627_-2_gray.jpg,Stimuli/canonical view 2/img_n02818832_0_gray.jpg,foreground,right,Experiments/experiment_22/296.jpg,Experiments/experiment_22/297.jpg,Experiments/experiment_22/298.jpg,Experiments/experiment_22/299.jpg,367,1.0,2023-04-17_17h33.17.912,Occlusion_Psychophysics,2022.1.4,Linux x86_64,59.99880002,,,right,"[""right""]",[1.1032999999821413],False,,0.0,0.0,74.0,74.0,74.0,1.0,,,,,,
,,,,,,,,,,,,,,,,,,,,,0.025,,,,,,,,,,Stimuli/psy_fixed_rotation_30_objects_occ0.7_0.9s/images/train/n02818832_9/n02828884_4/img_bed01_blue_b05_c-5_classic_series_bench-2012_2008_gray.jpg,n02818832_9,n02828884_4,fixed,0.780215,n02883344_-1,Stimuli/psy_flexible_rotation_30_objects_occ0.7_0.9s/images/train/n02818832_9/n02883344_-1/img_bed01_blue_woven_box_2014-3_gray.png,random,flexible,n02818832_9,n04256520_5,Stimuli/canonical view 2/img_n02818832_9_gray.jpg,Stimuli/canonical view 2/img_n04256520_5_gray.jpg,random,right,Experiments/experiment_22/300.jpg,Experiments/experiment_22/301.jpg,Experiments/experiment_22/302.jpg,Experiments/experiment_22/303.jpg,367,1.0,2023-04-17_17h33.17.912,Occlusion_Psychophysics,2022.1.4,Linux x86_64,59.99880002,,,right,"[""left""]",[1.0117000000178678],False,,0.0,0.0,75.0,75.0,75.0,1.0,,,,,,
,,,,,,,,,,,,,,,,,,,,,0.025,,,,,,,,,,Stimuli/psy_flexible_rotation_30_objects_occ0.7_0.9s/images/train/n03001627_9/n02828884_3/img_chair_eames_plastic_armchair_b04_wood_metal_park_bench_2008_gray.jpg,n03001627_9,n02828884_3,flexible,0.822515,n02828884_3,Stimuli/psy_flexible_rotation_30_objects_occ0.7_0.9s/images/train/n03001627_9/n02828884_3/img_chair_eames_plastic_armchair_b04_wood_metal_park_bench_2008-3_gray.png,foreground,same as foreground,n03001627_9,n02818832_0,Stimuli/canonical view 2/img_n03001627_9_gray.jpg,Stimuli/canonical view 2/img_n02818832_0_gray.jpg,random,left,Experiments/experiment_22/304.jpg,Experiments/experiment_22/305.jpg,Experiments/experiment_22/306.jpg,Experiments/experiment_22/307.jpg,367,1.0,2023-04-17_17h33.17.912,Occlusion_Psychophysics,2022.1.4,Linux x86_64,59.99880002,,,left,"[""right""]",[1.1312999999821614],False,,0.0,0.0,76.0,76.0,76.0,1.0,,,,,,
,,,,,,,,,,,,,,,,,,,,,0.05,,,,,,,,,,Stimuli/psy_flexible_rotation_30_objects_occ0.7_0.9s/images/train/n02883344_0/n04379243_0/img_b03_box_17th_c._monastery_dining_table_2010_2004_gray.jpg,n02883344_0,n04379243_0,flexible,0.845936,n04379243_0,Stimuli/psy_flexible_rotation_30_objects_occ0.7_0.9s/images/train/n02883344_0/n04379243_0/img_b03_box_17th_c._monastery_dining_table_2010_2004-3_gray.png,foreground,same as foreground,n02883344_0,n04379243_0,Stimuli/canonical view 2/img_n02883344_0_gray.jpg,Stimuli/canonical view 2/img_n04379243_0_gray.jpg,foreground,right,Experiments/experiment_22/308.jpg,Experiments/experiment_22/309.jpg,Experiments/experiment_22/310.jpg,Experiments/experiment_22/311.jpg,367,1.0,2023-04-17_17h33.17.912,Occlusion_Psychophysics,2022.1.4,Linux x86_64,59.99880002,,,right,"[""right""]",[1.4020999999941068],False,,0.0,0.0,77.0,77.0,77.0,1.0,,,,,,
,,,,,,,,,,,,,,,,,,,,,0.025,,,,,,,,,,Stimuli/psy_flexible_rotation_30_objects_occ0.7_0.9s/images/train/n02933112_4/n02883344_0/img_buffet_b03_box_2013_gray.jpg,n02933112_4,n02883344_0,flexible,0.714542,n03001627_9,Stimuli/psy_flexible_rotation_30_objects_occ0.7_0.9s/images/train/n03001627_8/n03001627_9/img_chair_billiani_doll_chair_eames_plastic_armchair_2009-3_gray.png,random,flexible,n02933112_4,n02883344_0,Stimuli/canonical view 2/img_n02933112_4_gray.jpg,Stimuli/canonical view 2/img_n02883344_0_gray.jpg,foreground,right,Experiments/experiment_22/312.jpg,Experiments/experiment_22/313.jpg,Experiments/experiment_22/314.jpg,Experiments/experiment_22/315.jpg,367,1.0,2023-04-17_17h33.17.912,Occlusion_Psychophysics,2022.1.4,Linux x86_64,59.99880002,,,right,"[""left""]",[1.1642000000178996],False,,0.0,0.0,78.0,78.0,78.0,1.0,,,,,,
,,,,,,,,,,,,,,,,,,,,,0.025,,,,,,,,,,Stimuli/psy_flexible_rotation_30_objects_occ0.7_0.9s/images/train/n04379243_0/n04256520_5/img_17th_c._monastery_dining_table_2010_meridiani_belmondo_bench_sofa_2013_gray.jpg,n04379243_0,n04256520_5,flexible,0.85731,n02883344_15,Stimuli/psy_fixed_rotation_30_objects_occ0.7_0.9s/images/train/n02828884_3/n02883344_15/img_b04_wood_metal_park_bench_microwave_box_2001-3_gray.png,random,fixed,n04379243_0,n04256520_5,Stimuli/canonical view 2/img_n04379243_0_gray.jpg,Stimuli/canonical view 2/img_n04256520_5_gray.jpg,foreground,right,Experiments/experiment_22/316.jpg,Experiments/experiment_22/317.jpg,Experiments/experiment_22/318.jpg,Experiments/experiment_22/319.jpg,367,1.0,2023-04-17_17h33.17.912,Occlusion_Psychophysics,2022.1.4,Linux x86_64,59.99880002,,,right,"[""right""]",[1.091900000006035],False,,0.0,0.0,79.0,79.0,79.0,1.0,,,,,,
,,,,,,,,,,,,,,,,,,,,,0.05,,,,,,,,,,Stimuli/psy_fixed_rotation_30_objects_occ0.7_0.9s/images/train/n02883344_-1/n04405907_9/img_woven_box_vray_004_2000_gray.jpg,n02883344_-1,n04405907_9,fixed,0.719341,n04405907_9,Stimuli/psy_fixed_rotation_30_objects_occ0.7_0.9s/images/train/n02883344_-1/n04405907_9/img_woven_box_vray_004_2000-3_gray.png,foreground,same as foreground,n02883344_-1,n02883344_15,Stimuli/canonical view 2/img_n02883344_-1_gray.jpg,Stimuli/canonical view 2/img_n02883344_15_gray.jpg,random,left,Experiments/experiment_22/320.jpg,Experiments/experiment_22/321.jpg,Experiments/experiment_22/322.jpg,Experiments/experiment_22/323.jpg,367,1.0,2023-04-17_17h33.17.912,Occlusion_Psychophysics,2022.1.4,Linux x86_64,59.99880002,,,right,"[""left""]",[1.1394999999999982],False,,0.0,0.0,80.0,80.0,80.0,1.0,,,,,,
,,,,,,,,,,,,,,,,,,,,,0.05,,,,,,,,,,Stimuli/psy_flexible_rotation_30_objects_occ0.7_0.9s/images/train/n03001627_9/n03928116_10/img_chair_eames_plastic_armchair_ydp_103_r_2012__vray_2000_gray.jpg,n03001627_9,n03928116_10,flexible,0.740673,n04405907_5,Stimuli/psy_fixed_rotation_30_objects_occ0.7_0.9s/images/train/n02883344_-1/n04405907_5/img_woven_box_samsung_40_uhd_smart_tv_2011_2000-3_gray.png,random,fixed,n03001627_9,n04405907_8,Stimuli/canonical view 2/img_n03001627_9_gray.jpg,Stimuli/canonical view 2/img_n04405907_8_gray.jpg,random,left,Experiments/experiment_22/324.jpg,Experiments/experiment_22/325.jpg,Experiments/experiment_22/326.jpg,Experiments/experiment_22/327.jpg,367,1.0,2023-04-17_17h33.17.912,Occlusion_Psychophysics,2022.1.4,Linux x86_64,59.99880002,,,right,"[""left""]",[1.4894000000059577],False,,0.0,0.0,81.0,81.0,81.0,1.0,,,,,,
,,,,,,,,,,,,,,,,,,,,,0.025,,,,,,,,,,Stimuli/psy_flexible_rotation_30_objects_occ0.7_0.9s/images/train/n03928116_4/n04256520_9/img_dp_33_b_2013__vray_napoleon_iii_sofa_2004_gray.jpg,n03928116_4,n04256520_9,flexible,0.72631,n04256520_9,Stimuli/psy_flexible_rotation_30_objects_occ0.7_0.9s/images/train/n03928116_4/n04256520_9/img_dp_33_b_2013__vray_napoleon_iii_sofa_2004-3_gray.png,foreground,same as foreground,n03928116_4,n04256520_9,Stimuli/canonical view 2/img_n03928116_4_gray.jpg,Stimuli/canonical view 2/img_n04256520_9_gray.jpg,foreground,left,Experiments/experiment_22/328.jpg,Experiments/experiment_22/329.jpg,Experiments/experiment_22/330.jpg,Experiments/experiment_22/331.jpg,367,1.0,2023-04-17_17h33.17.912,Occlusion_Psychophysics,2022.1.4,Linux x86_64,59.99880002,,,right,"[""right""]",[0.8903000000119619],False,,0.0,0.0,82.0,82.0,82.0,1.0,,,,,,
,,,,,,,,,,,,,,,,,,,,,0.025,,,,,,,,,,Stimuli/psy_fixed_rotation_30_objects_occ0.7_0.9s/images/train/n04256520_4/n02883344_-1/img_club_house_italia_nautilus_sofa_woven_box_2004_gray.jpg,n04256520_4,n02883344_-1,fixed,0.715658,n02883344_-1,Stimuli/psy_fixed_rotation_30_objects_occ0.7_0.9s/images/train/n04256520_4/n02883344_-1/img_club_house_italia_nautilus_sofa_woven_box_2004-3_gray.png,foreground,same as foreground,n04256520_4,n02883344_-1,Stimuli/canonical view 2/img_n04256520_4_gray.jpg,Stimuli/canonical view 2/img_n02883344_-1_gray.jpg,foreground,left,Experiments/experiment_22/332.jpg,Experiments/experiment_22/333.jpg,Experiments/experiment_22/334.jpg,Experiments/experiment_22/335.jpg,367,1.0,2023-04-17_17h33.17.912,Occlusion_Psychophysics,2022.1.4,Linux x86_64,59.99880002,,,right,"[""left""]",[0.6705999999940104],False,,0.0,0.0,83.0,83.0,83.0,1.0,,,,,,
,,,,,,,,,,,,,,,,,,,,,0.025,,,,,,,,,,Stimuli/psy_flexible_rotation_30_objects_occ0.7_0.9s/images/train/n02883344_-1/n02933112_4/img_woven_box_buffet_2004_gray.jpg,n02883344_-1,n02933112_4,flexible,0.704636,n04405907_9,Stimuli/psy_fixed_rotation_30_objects_occ0.7_0.9s/images/train/n04379243_-7/n04405907_9/img_quatre_dining_table_vray_004_2005-3_gray.png,random,fixed,n02883344_-1,n04379243_0,Stimuli/canonical view 2/img_n02883344_-1_gray.jpg,Stimuli/canonical view 2/img_n04379243_0_gray.jpg,random,right,Experiments/experiment_22/336.jpg,Experiments/experiment_22/337.jpg,Experiments/experiment_22/338.jpg,Experiments/experiment_22/339.jpg,367,1.0,2023-04-17_17h33.17.912,Occlusion_Psychophysics,2022.1.4,Linux x86_64,59.99880002,,,right,"[""left""]",[1.0290999999940595],False,,0.0,0.0,84.0,84.0,84.0,1.0,,,,,,
,,,,,,,,,,,,,,,,,,,,,0.05,,,,,,,,,,Stimuli/psy_flexible_rotation_30_objects_occ0.7_0.9s/images/train/n02818832_9/n02883344_-1/img_bed01_blue_woven_box_2014_gray.jpg,n02818832_9,n02883344_-1,flexible,0.763115,n02818832_3,Stimuli/psy_fixed_rotation_30_objects_occ0.7_0.9s/images/train/n03001627_8/n02818832_3/img_chair_billiani_doll_b05_ccm_contemporary_bed_max2013_2014-3_gray.png,random,fixed,n02818832_9,n02818832_3,Stimuli/canonical view 2/img_n02818832_9_gray.jpg,Stimuli/canonical view 2/img_n02818832_3_gray.jpg,random,right,Experiments/experiment_22/340.jpg,Experiments/experiment_22/341.jpg,Experiments/experiment_22/342.jpg,Experiments/experiment_22/343.jpg,367,1.0,2023-04-17_17h33.17.912,Occlusion_Psychophysics,2022.1.4,Linux x86_64,59.99880002,,,right,"[""right""]",[1.0700999999941132],False,,0.0,0.0,85.0,85.0,85.0,1.0,,,,,,
,,,,,,,,,,,,,,,,,,,,,0.025,,,,,,,,,,Stimuli/psy_fixed_rotation_30_objects_occ0.7_0.9s/images/train/n03001627_8/n04405907_5/img_chair_billiani_doll_samsung_40_uhd_smart_tv_2011_2008_gray.jpg,n03001627_8,n04405907_5,fixed,0.73334,n02883344_-1,Stimuli/psy_fixed_rotation_30_objects_occ0.7_0.9s/images/train/n02818832_0/n02883344_-1/img_b03_the_sofa_and_chair_company_-_stanley_bed_2014_woven_box_2010-3_gray.png,random,fixed,n03001627_8,n04405907_5,Stimuli/canonical view 2/img_n03001627_8_gray.jpg,Stimuli/canonical view 2/img_n04405907_5_gray.jpg,foreground,right,Experiments/experiment_22/344.jpg,Experiments/experiment_22/345.jpg,Experiments/experiment_22/346.jpg,Experiments/experiment_22/347.jpg,367,1.0,2023-04-17_17h33.17.912,Occlusion_Psychophysics,2022.1.4,Linux x86_64,59.99880002,,,left,"[""left""]",[1.1063000000118564],False,,0.0,0.0,86.0,86.0,86.0,1.0,,,,,,
,,,,,,,,,,,,,,,,,,,,,0.05,,,,,,,,,,Stimuli/psy_fixed_rotation_30_objects_occ0.7_0.9s/images/train/n04405907_5/n02828884_3/img_samsung_40_uhd_smart_tv_2011_b04_wood_metal_park_bench_2009_gray.jpg,n04405907_5,n02828884_3,fixed,0.747164,n02818832_3,Stimuli/psy_fixed_rotation_30_objects_occ0.7_0.9s/images/train/n03928116_0/n02818832_3/img_b02_piano_b05_ccm_contemporary_bed_max2013_2010-3_gray.png,random,fixed,n04405907_5,n02933112_-2,Stimuli/canonical view 2/img_n04405907_5_gray.jpg,Stimuli/canonical view 2/img_n02933112_-2_gray.jpg,random,left,Experiments/experiment_22/348.jpg,Experiments/experiment_22/349.jpg,Experiments/experiment_22/350.jpg,Experiments/experiment_22/351.jpg,367,1.0,2023-04-17_17h33.17.912,Occlusion_Psychophysics,2022.1.4,Linux x86_64,59.99880002,,,right,"[""left""]",[1.2551999999880081],False,,0.0,0.0,87.0,87.0,87.0,1.0,,,,,,
,,,,,,,,,,,,,,,,,,,,,0.025,,,,,,,,,,Stimuli/psy_flexible_rotation_30_objects_occ0.7_0.9s/images/train/n03001627_-2/n02818832_0/img_wood_chair_b03_the_sofa_and_chair_company_-_stanley_bed_2014_2008_gray.jpg,n03001627_-2,n02818832_0,flexible,0.755763,n04379243_8,Stimuli/psy_fixed_rotation_30_objects_occ0.7_0.9s/images/train/n02828884_3/n04379243_8/img_b04_wood_metal_park_bench_glass_table_2001-3_gray.png,random,fixed,n03001627_-2,n02818832_9,Stimuli/canonical view 2/img_n03001627_-2_gray.jpg,Stimuli/canonical view 2/img_n02818832_9_gray.jpg,random,left,Experiments/experiment_22/352.jpg,Experiments/experiment_22/353.jpg,Experiments/experiment_22/354.jpg,Experiments/experiment_22/355.jpg,367,1.0,2023-04-17_17h33.17.912,Occlusion_Psychophysics,2022.1.4,Linux x86_64,59.99880002,,,left,"[""right""]",[1.7745999999940523],False,,0.0,0.0,88.0,88.0,88.0,1.0,,,,,,
,,,,,,,,,,,,,,,,,,,,,0.025,,,,,,,,,,Stimuli/psy_flexible_rotation_30_objects_occ0.7_0.9s/images/train/n02883344_-1/n02828884_3/img_woven_box_b04_wood_metal_park_bench_2014_gray.jpg,n02883344_-1,n02828884_3,flexible,0.829216,n02828884_3,Stimuli/psy_flexible_rotation_30_objects_occ0.7_0.9s/images/train/n02883344_-1/n02828884_3/img_woven_box_b04_wood_metal_park_bench_2014-3_gray.png,foreground,same as foreground,n02883344_-1,n04405907_8,Stimuli/canonical view 2/img_n02883344_-1_gray.jpg,Stimuli/canonical view 2/img_n04405907_8_gray.jpg,random,left,Experiments/experiment_22/356.jpg,Experiments/experiment_22/357.jpg,Experiments/experiment_22/358.jpg,Experiments/experiment_22/359.jpg,367,1.0,2023-04-17_17h33.17.912,Occlusion_Psychophysics,2022.1.4,Linux x86_64,59.99880002,,,right,"[""left""]",[0.7142000000178541],False,,0.0,0.0,89.0,89.0,89.0,1.0,,,,,,
,,,,,,,,,,,,,,,,,,,,,0.05,,,,,,,,,,Stimuli/psy_fixed_rotation_30_objects_occ0.7_0.9s/images/train/n03928116_10/n04379243_-7/img_ydp_103_r_2012__vray_quatre_dining_table_2011_gray.jpg,n03928116_10,n04379243_-7,fixed,0.821594,n04256520_4,Stimuli/psy_fixed_rotation_30_objects_occ0.7_0.9s/images/train/n02828884_3/n04256520_4/img_b04_wood_metal_park_bench_club_house_italia_nautilus_sofa_2010-3_gray.png,random,fixed,n03928116_10,n04379243_-7,Stimuli/canonical view 2/img_n03928116_10_gray.jpg,Stimuli/canonical view 2/img_n04379243_-7_gray.jpg,foreground,left,Experiments/experiment_22/360.jpg,Experiments/experiment_22/361.jpg,Experiments/experiment_22/362.jpg,Experiments/experiment_22/363.jpg,367,1.0,2023-04-17_17h33.17.912,Occlusion_Psychophysics,2022.1.4,Linux x86_64,59.99880002,,,right,"[""right""]",[0.5760000000000218],False,,0.0,0.0,90.0,90.0,90.0,1.0,,,,,,
,,,,,,,,,,,,,,,,,,,,,0.025,,,,,,,,,,Stimuli/psy_fixed_rotation_30_objects_occ0.7_0.9s/images/train/n03928116_0/n02933112_-2/img_b02_piano_sink_base_white_wood_2008_gray.jpg,n03928116_0,n02933112_-2,fixed,0.827609,n04379243_0,Stimuli/psy_flexible_rotation_30_objects_occ0.7_0.9s/images/train/n02818832_0/n04379243_0/img_b03_the_sofa_and_chair_company_-_stanley_bed_2014_17th_c._monastery_dining_table_2010_2015-3_gray.png,random,flexible,n03928116_0,n02933112_-2,Stimuli/canonical view 2/img_n03928116_0_gray.jpg,Stimuli/canonical view 2/img_n02933112_-2_gray.jpg,foreground,right,Experiments/experiment_22/364.jpg,Experiments/experiment_22/365.jpg,Experiments/experiment_22/366.jpg,Experiments/experiment_22/367.jpg,367,1.0,2023-04-17_17h33.17.912,Occlusion_Psychophysics,2022.1.4,Linux x86_64,59.99880002,,,left,"[""left""]",[0.6316999999880863],False,,0.0,0.0,91.0,91.0,91.0,1.0,,,,,,
,,,,,,,,,,,,,,,,,,,,,0.05,,,,,,,,,,Stimuli/psy_fixed_rotation_30_objects_occ0.7_0.9s/images/train/n04256520_9/n04405907_8/img_napoleon_iii_sofa_stylized_tv_2004_gray.jpg,n04256520_9,n04405907_8,fixed,0.71115,n04405907_8,Stimuli/psy_fixed_rotation_30_objects_occ0.7_0.9s/images/train/n04256520_9/n04405907_8/img_napoleon_iii_sofa_stylized_tv_2004-3_gray.png,foreground,same as foreground,n04256520_9,n04405907_8,Stimuli/canonical view 2/img_n04256520_9_gray.jpg,Stimuli/canonical view 2/img_n04405907_8_gray.jpg,foreground,right,Experiments/experiment_22/368.jpg,Experiments/experiment_22/369.jpg,Experiments/experiment_22/370.jpg,Experiments/experiment_22/371.jpg,367,1.0,2023-04-17_17h33.17.912,Occlusion_Psychophysics,2022.1.4,Linux x86_64,59.99880002,,,right,"[""right""]",[0.6720999999940886],True,right,1.0,0.0,92.0,92.0,92.0,1.0,1.0904,,,,,
,,,,,,,,,,,,,,,,,,,,,0.05,,,,,,,,,,Stimuli/psy_fixed_rotation_30_objects_occ0.7_0.9s/images/train/n02933112_-18/n04405907_8/img_cgaxis_models_48_26_vray_composite_stylized_tv_2006_gray.jpg,n02933112_-18,n04405907_8,fixed,0.705039,n02828884_3,Stimuli/psy_fixed_rotation_30_objects_occ0.7_0.9s/images/train/n04405907_9/n02828884_3/img_vray_004_b04_wood_metal_park_bench_2015-3_gray.png,random,fixed,n02933112_-18,n03928116_10,Stimuli/canonical view 2/img_n02933112_-18_gray.jpg,Stimuli/canonical view 2/img_n03928116_10_gray.jpg,random,left,Experiments/experiment_22/372.jpg,Experiments/experiment_22/373.jpg,Experiments/experiment_22/374.jpg,Experiments/experiment_22/375.jpg,367,1.0,2023-04-17_17h33.17.912,Occlusion_Psychophysics,2022.1.4,Linux x86_64,59.99880002,,,left,"[""left""]",[0.8582000000178596],True,left,1.0,0.0,93.0,93.0,93.0,1.0,0.9035,,,,,
,,,,,,,,,,,,,,,,,,,,,0.05,,,,,,,,,,Stimuli/psy_flexible_rotation_30_objects_occ0.7_0.9s/images/train/n02828884_4/n04379243_8/img_b05_c-5_classic_series_bench-2012_glass_table_2015_gray.jpg,n02828884_4,n04379243_8,flexible,0.70564,n04379243_8,Stimuli/psy_flexible_rotation_30_objects_occ0.7_0.9s/images/train/n02828884_4/n04379243_8/img_b05_c-5_classic_series_bench-2012_glass_table_2015-3_gray.png,foreground,same as foreground,n02828884_4,n04379243_8,Stimuli/canonical view 2/img_n02828884_4_gray.jpg,Stimuli/canonical view 2/img_n04379243_8_gray.jpg,foreground,right,Experiments/experiment_22/376.jpg,Experiments/experiment_22/377.jpg,Experiments/experiment_22/378.jpg,Experiments/experiment_22/379.jpg,367,1.0,2023-04-17_17h33.17.912,Occlusion_Psychophysics,2022.1.4,Linux x86_64,59.99880002,,,left,"[""right""]",[0.7037000000177613],False,,0.0,0.0,94.0,94.0,94.0,1.0,,,,,,
,,,,,,,,,,,,,,,,,,,,,0.05,,,,,,,,,,Stimuli/psy_flexible_rotation_30_objects_occ0.7_0.9s/images/train/n03928116_0/n02883344_15/img_b02_piano_microwave_box_2004_gray.jpg,n03928116_0,n02883344_15,flexible,0.785458,n02883344_15,Stimuli/psy_flexible_rotation_30_objects_occ0.7_0.9s/images/train/n03928116_0/n02883344_15/img_b02_piano_microwave_box_2004-3_gray.png,foreground,same as foreground,n03928116_0,n02883344_15,Stimuli/canonical view 2/img_n03928116_0_gray.jpg,Stimuli/canonical view 2/img_n02883344_15_gray.jpg,foreground,right,Experiments/experiment_22/380.jpg,Experiments/experiment_22/381.jpg,Experiments/experiment_22/382.jpg,Experiments/experiment_22/383.jpg,367,1.0,2023-04-17_17h33.17.912,Occlusion_Psychophysics,2022.1.4,Linux x86_64,59.99880002,,,right,"[""right""]",[0.8534000000058768],False,,0.0,0.0,95.0,95.0,95.0,1.0,,,,,,
,,,,,,,,,,,,,,,,,,,,,0.05,,,,,,,,,,Stimuli/psy_flexible_rotation_30_objects_occ0.7_0.9s/images/train/n04256520_9/n03928116_10/img_napoleon_iii_sofa_ydp_103_r_2012__vray_2012_gray.jpg,n04256520_9,n03928116_10,flexible,0.749858,n04405907_9,Stimuli/psy_flexible_rotation_30_objects_occ0.7_0.9s/images/train/n04256520_4/n04405907_9/img_club_house_italia_nautilus_sofa_vray_004_2005-3_gray.png,random,flexible,n04256520_9,n03928116_10,Stimuli/canonical view 2/img_n04256520_9_gray.jpg,Stimuli/canonical view 2/img_n03928116_10_gray.jpg,foreground,left,Experiments/experiment_22/384.jpg,Experiments/experiment_22/385.jpg,Experiments/experiment_22/386.jpg,Experiments/experiment_22/387.jpg,367,1.0,2023-04-17_17h33.17.912,Occlusion_Psychophysics,2022.1.4,Linux x86_64,59.99880002,,,left,"[""left""]",[0.8972999999821241],False,,0.0,0.0,96.0,96.0,96.0,1.0,,,,,,
,,,,,,,,,,,,,,,,,,,,,0.05,,,,,,,,,,Stimuli/psy_flexible_rotation_30_objects_occ0.7_0.9s/images/train/n02828884_4/n04379243_0/img_b05_c-5_classic_series_bench-2012_17th_c._monastery_dining_table_2010_2003_gray.jpg,n02828884_4,n04379243_0,flexible,0.706212,n04379243_0,Stimuli/psy_flexible_rotation_30_objects_occ0.7_0.9s/images/train/n02828884_4/n04379243_0/img_b05_c-5_classic_series_bench-2012_17th_c._monastery_dining_table_2010_2003-3_gray.png,foreground,same as foreground,n02828884_4,n03928116_4,Stimuli/canonical view 2/img_n02828884_4_gray.jpg,Stimuli/canonical view 2/img_n03928116_4_gray.jpg,random,right,Experiments/experiment_22/388.jpg,Experiments/experiment_22/389.jpg,Experiments/experiment_22/390.jpg,Experiments/experiment_22/391.jpg,367,1.0,2023-04-17_17h33.17.912,Occlusion_Psychophysics,2022.1.4,Linux x86_64,59.99880002,,,left,"[""left""]",[0.9247999999822696],False,,0.0,0.0,97.0,97.0,97.0,1.0,,,,,,
,,,,,,,,,,,,,,,,,,,,,0.05,,,,,,,,,,Stimuli/psy_fixed_rotation_30_objects_occ0.7_0.9s/images/train/n03001627_9/n04405907_8/img_chair_eames_plastic_armchair_stylized_tv_2006_gray.jpg,n03001627_9,n04405907_8,fixed,0.777699,n04405907_8,Stimuli/psy_fixed_rotation_30_objects_occ0.7_0.9s/images/train/n03001627_9/n04405907_8/img_chair_eames_plastic_armchair_stylized_tv_2006-3_gray.png,foreground,same as foreground,n03001627_9,n04379243_-7,Stimuli/canonical view 2/img_n03001627_9_gray.jpg,Stimuli/canonical view 2/img_n04379243_-7_gray.jpg,random,right,Experiments/experiment_22/392.jpg,Experiments/experiment_22/393.jpg,Experiments/experiment_22/394.jpg,Experiments/experiment_22/395.jpg,367,1.0,2023-04-17_17h33.17.912,Occlusion_Psychophysics,2022.1.4,Linux x86_64,59.99880002,,,left,"[""left""]",[1.3534000000058768],False,,0.0,0.0,98.0,98.0,98.0,1.0,,,,,,
,,,,,,,,,,,,,,,,,,,,,0.05,,,,,,,,,,Stimuli/psy_flexible_rotation_30_objects_occ0.7_0.9s/images/train/n04405907_9/n04405907_5/img_vray_004_samsung_40_uhd_smart_tv_2011_2005_gray.jpg,n04405907_9,n04405907_5,flexible,0.745712,n02818832_0,Stimuli/psy_flexible_rotation_30_objects_occ0.7_0.9s/images/train/n04070727_3/n02818832_0/img_b05_db_apps_tech_06_02_2_composite_b03_the_sofa_and_chair_company_-_stanley_bed_2014_2005-3_gray.png,random,flexible,n04405907_9,n04405907_5,Stimuli/canonical view 2/img_n04405907_9_gray.jpg,Stimuli/canonical view 2/img_n04405907_5_gray.jpg,foreground,left,Experiments/experiment_22/396.jpg,Experiments/experiment_22/397.jpg,Experiments/experiment_22/398.jpg,Experiments/experiment_22/399.jpg,367,1.0,2023-04-17_17h33.17.912,Occlusion_Psychophysics,2022.1.4,Linux x86_64,59.99880002,,,left,"[""left""]",[1.0224000000059732],False,,0.0,0.0,99.0,99.0,99.0,1.0,,,,,,
,,,,,,,,,,,,,,,,,,,,,,,,,,,,,,,,,,,,,,,,,,,,,,,,,,367,1.0,2023-04-17_17h33.17.912,Occlusion_Psychophysics,2022.1.4,Linux x86_64,59.99880002,,,,,,,,,,,,,,,0.0,0.0,0.0,0.0,1.0
,,,,,,,,,,,,,,,,,,,,,0.05,,,,,,,,,,Stimuli/psy_flexible_rotation_30_objects_occ0.7_0.9s/images/train/n03001627_-2/n04405907_9/img_wood_chair_vray_004_2000_gray.jpg,n03001627_-2,n04405907_9,flexible,0.704156,n04405907_9,Stimuli/psy_flexible_rotation_30_objects_occ0.7_0.9s/images/train/n03001627_-2/n04405907_9/img_wood_chair_vray_004_2000-3_gray.png,foreground,same as foreground,n03001627_-2,n04405907_5,Stimuli/canonical view 2/img_n03001627_-2_gray.jpg,Stimuli/canonical view 2/img_n04405907_5_gray.jpg,random,right,Experiments/experiment_22/400.jpg,Experiments/experiment_22/401.jpg,Experiments/experiment_22/402.jpg,Experiments/experiment_22/403.jpg,367,1.0,2023-04-17_17h33.17.912,Occlusion_Psychophysics,2022.1.4,Linux x86_64,59.99880002,,,right,"[""right""]",[0.9700999999940905],False,,0.0,0.0,0.0,0.0,0.0,1.0,,,,,,
,,,,,,,,,,,,,,,,,,,,,0.025,,,,,,,,,,Stimuli/psy_fixed_rotation_30_objects_occ0.7_0.9s/images/train/n04405907_8/n04256520_4/img_stylized_tv_club_house_italia_nautilus_sofa_2000_gray.jpg,n04405907_8,n04256520_4,fixed,0.836616,n04256520_4,Stimuli/psy_fixed_rotation_30_objects_occ0.7_0.9s/images/train/n04405907_8/n04256520_4/img_stylized_tv_club_house_italia_nautilus_sofa_2000-3_gray.png,foreground,same as foreground,n04405907_8,n02828884_3,Stimuli/canonical view 2/img_n04405907_8_gray.jpg,Stimuli/canonical view 2/img_n02828884_3_gray.jpg,random,right,Experiments/experiment_22/404.jpg,Experiments/experiment_22/405.jpg,Experiments/experiment_22/406.jpg,Experiments/experiment_22/407.jpg,367,1.0,2023-04-17_17h33.17.912,Occlusion_Psychophysics,2022.1.4,Linux x86_64,59.99880002,,,right,"[""right""]",[0.8634999999999309],False,,0.0,0.0,1.0,1.0,1.0,1.0,,,,,,
,,,,,,,,,,,,,,,,,,,,,0.05,,,,,,,,,,Stimuli/psy_fixed_rotation_30_objects_occ0.7_0.9s/images/train/n04405907_9/n04405907_8/img_vray_004_stylized_tv_2007_gray.jpg,n04405907_9,n04405907_8,fixed,0.730211,n04256520_4,Stimuli/psy_fixed_rotation_30_objects_occ0.7_0.9s/images/train/n02883344_15/n04256520_4/img_microwave_box_club_house_italia_nautilus_sofa_2009-3_gray.png,random,fixed,n04405907_9,n03001627_9,Stimuli/canonical view 2/img_n04405907_9_gray.jpg,Stimuli/canonical view 2/img_n03001627_9_gray.jpg,random,left,Experiments/experiment_22/408.jpg,Experiments/experiment_22/409.jpg,Experiments/experiment_22/410.jpg,Experiments/experiment_22/411.jpg,367,1.0,2023-04-17_17h33.17.912,Occlusion_Psychophysics,2022.1.4,Linux x86_64,59.99880002,,,right,"[""right""]",[0.9170000000001437],False,,0.0,0.0,2.0,2.0,2.0,1.0,,,,,,
,,,,,,,,,,,,,,,,,,,,,0.025,,,,,,,,,,Stimuli/psy_flexible_rotation_30_objects_occ0.7_0.9s/images/train/n04379243_0/n04405907_5/img_17th_c._monastery_dining_table_2010_samsung_40_uhd_smart_tv_2011_2001_gray.jpg,n04379243_0,n04405907_5,flexible,0.729303,n03928116_0,Stimuli/psy_fixed_rotation_30_objects_occ0.7_0.9s/images/train/n04379243_-7/n03928116_0/img_quatre_dining_table_b02_piano_2001-3_gray.png,random,fixed,n04379243_0,n02883344_-1,Stimuli/canonical view 2/img_n04379243_0_gray.jpg,Stimuli/canonical view 2/img_n02883344_-1_gray.jpg,random,right,Experiments/experiment_22/412.jpg,Experiments/experiment_22/413.jpg,Experiments/experiment_22/414.jpg,Experiments/experiment_22/415.jpg,367,1.0,2023-04-17_17h33.17.912,Occlusion_Psychophysics,2022.1.4,Linux x86_64,59.99880002,,,left,"[""left""]",[0.7569999999998345],False,,0.0,0.0,3.0,3.0,3.0,1.0,,,,,,
,,,,,,,,,,,,,,,,,,,,,0.025,,,,,,,,,,Stimuli/psy_fixed_rotation_30_objects_occ0.7_0.9s/images/train/n04379243_-7/n02933112_4/img_quatre_dining_table_buffet_2011_gray.jpg,n04379243_-7,n02933112_4,fixed,0.846625,n02933112_4,Stimuli/psy_fixed_rotation_30_objects_occ0.7_0.9s/images/train/n04379243_-7/n02933112_4/img_quatre_dining_table_buffet_2011-3_gray.png,foreground,same as foreground,n04379243_-7,n02933112_4,Stimuli/canonical view 2/img_n04379243_-7_gray.jpg,Stimuli/canonical view 2/img_n02933112_4_gray.jpg,foreground,right,Experiments/experiment_22/416.jpg,Experiments/experiment_22/417.jpg,Experiments/experiment_22/418.jpg,Experiments/experiment_22/419.jpg,367,1.0,2023-04-17_17h33.17.912,Occlusion_Psychophysics,2022.1.4,Linux x86_64,59.99880002,,,left,"[""right""]",[0.7085999999940213],False,,0.0,0.0,4.0,4.0,4.0,1.0,,,,,,
,,,,,,,,,,,,,,,,,,,,,0.05,,,,,,,,,,Stimuli/psy_fixed_rotation_30_objects_occ0.7_0.9s/images/train/n02883344_0/n02828884_3/img_b03_box_b04_wood_metal_park_bench_2015_gray.jpg,n02883344_0,n02828884_3,fixed,0.843312,n02883344_15,Stimuli/psy_flexible_rotation_30_objects_occ0.7_0.9s/images/train/n04405907_8/n02883344_15/img_stylized_tv_microwave_box_2007-3_gray.png,random,flexible,n02883344_0,n02828884_3,Stimuli/canonical view 2/img_n02883344_0_gray.jpg,Stimuli/canonical view 2/img_n02828884_3_gray.jpg,foreground,right,Experiments/experiment_22/420.jpg,Experiments/experiment_22/421.jpg,Experiments/experiment_22/422.jpg,Experiments/experiment_22/423.jpg,367,1.0,2023-04-17_17h33.17.912,Occlusion_Psychophysics,2022.1.4,Linux x86_64,59.99880002,,,right,"[""right""]",[0.9419000000059441],False,,0.0,0.0,5.0,5.0,5.0,1.0,,,,,,
,,,,,,,,,,,,,,,,,,,,,0.05,,,,,,,,,,Stimuli/psy_flexible_rotation_30_objects_occ0.7_0.9s/images/train/n04379243_-7/n02883344_15/img_quatre_dining_table_microwave_box_2005_gray.jpg,n04379243_-7,n02883344_15,flexible,0.71404,n04405907_5,Stimuli/psy_flexible_rotation_30_objects_occ0.7_0.9s/images/train/n04256520_9/n04405907_5/img_napoleon_iii_sofa_samsung_40_uhd_smart_tv_2011_2008-3_gray.png,random,flexible,n04379243_-7,n04256520_4,Stimuli/canonical view 2/img_n04379243_-7_gray.jpg,Stimuli/canonical view 2/img_n04256520_4_gray.jpg,random,right,Experiments/experiment_22/424.jpg,Experiments/experiment_22/425.jpg,Experiments/experiment_22/426.jpg,Experiments/experiment_22/427.jpg,367,1.0,2023-04-17_17h33.17.912,Occlusion_Psychophysics,2022.1.4,Linux x86_64,59.99880002,,,left,"[""left""]",[1.423900000005915],False,,0.0,0.0,6.0,6.0,6.0,1.0,,,,,,
,,,,,,,,,,,,,,,,,,,,,0.05,,,,,,,,,,Stimuli/psy_fixed_rotation_30_objects_occ0.7_0.9s/images/train/n02818832_0/n04405907_8/img_b03_the_sofa_and_chair_company_-_stanley_bed_2014_stylized_tv_2009_gray.jpg,n02818832_0,n04405907_8,fixed,0.771066,n04405907_8,Stimuli/psy_fixed_rotation_30_objects_occ0.7_0.9s/images/train/n02818832_0/n04405907_8/img_b03_the_sofa_and_chair_company_-_stanley_bed_2014_stylized_tv_2009-3_gray.png,foreground,same as foreground,n02818832_0,n04379243_-7,Stimuli/canonical view 2/img_n02818832_0_gray.jpg,Stimuli/canonical view 2/img_n04379243_-7_gray.jpg,random,right,Experiments/experiment_22/428.jpg,Experiments/experiment_22/429.jpg,Experiments/experiment_22/430.jpg,Experiments/experiment_22/431.jpg,367,1.0,2023-04-17_17h33.17.912,Occlusion_Psychophysics,2022.1.4,Linux x86_64,59.99880002,,,left,"[""left""]",[1.004900000006046],True,right,1.0,0.0,7.0,7.0,7.0,1.0,0.9385,,,,,
,,,,,,,,,,,,,,,,,,,,,0.025,,,,,,,,,,Stimuli/psy_flexible_rotation_30_objects_occ0.7_0.9s/images/train/n03928116_4/n04405907_5/img_dp_33_b_2013__vray_samsung_40_uhd_smart_tv_2011_2002_gray.jpg,n03928116_4,n04405907_5,flexible,0.710363,n04405907_5,Stimuli/psy_flexible_rotation_30_objects_occ0.7_0.9s/images/train/n03928116_4/n04405907_5/img_dp_33_b_2013__vray_samsung_40_uhd_smart_tv_2011_2002-3_gray.png,foreground,same as foreground,n03928116_4,n04405907_5,Stimuli/canonical view 2/img_n03928116_4_gray.jpg,Stimuli/canonical view 2/img_n04405907_5_gray.jpg,foreground,left,Experiments/experiment_22/432.jpg,Experiments/experiment_22/433.jpg,Experiments/experiment_22/434.jpg,Experiments/experiment_22/435.jpg,367,1.0,2023-04-17_17h33.17.912,Occlusion_Psychophysics,2022.1.4,Linux x86_64,59.99880002,,,left,"[""right""]",[0.9678999999759981],False,,0.0,0.0,8.0,8.0,8.0,1.0,,,,,,
,,,,,,,,,,,,,,,,,,,,,0.05,,,,,,,,,,Stimuli/psy_flexible_rotation_30_objects_occ0.7_0.9s/images/train/n03001627_9/n04256520_4/img_chair_eames_plastic_armchair_club_house_italia_nautilus_sofa_2014_gray.jpg,n03001627_9,n04256520_4,flexible,0.757036,n04256520_4,Stimuli/psy_flexible_rotation_30_objects_occ0.7_0.9s/images/train/n03001627_9/n04256520_4/img_chair_eames_plastic_armchair_club_house_italia_nautilus_sofa_2014-3_gray.png,foreground,same as foreground,n03001627_9,n04256520_4,Stimuli/canonical view 2/img_n03001627_9_gray.jpg,Stimuli/canonical view 2/img_n04256520_4_gray.jpg,foreground,right,Experiments/experiment_22/436.jpg,Experiments/experiment_22/437.jpg,Experiments/experiment_22/438.jpg,Experiments/experiment_22/439.jpg,367,1.0,2023-04-17_17h33.17.912,Occlusion_Psychophysics,2022.1.4,Linux x86_64,59.99880002,,,right,"[""left""]",[0.7567000000178723],False,,0.0,0.0,9.0,9.0,9.0,1.0,,,,,,
,,,,,,,,,,,,,,,,,,,,,0.025,,,,,,,,,,Stimuli/psy_fixed_rotation_30_objects_occ0.7_0.9s/images/train/n04379243_-7/n04405907_9/img_quatre_dining_table_vray_004_2013_gray.jpg,n04379243_-7,n04405907_9,fixed,0.734444,n04405907_9,Stimuli/psy_fixed_rotation_30_objects_occ0.7_0.9s/images/train/n04379243_-7/n04405907_9/img_quatre_dining_table_vray_004_2013-3_gray.png,foreground,same as foreground,n04379243_-7,n04405907_9,Stimuli/canonical view 2/img_n04379243_-7_gray.jpg,Stimuli/canonical view 2/img_n04405907_9_gray.jpg,foreground,right,Experiments/experiment_22/440.jpg,Experiments/experiment_22/441.jpg,Experiments/experiment_22/442.jpg,Experiments/experiment_22/443.jpg,367,1.0,2023-04-17_17h33.17.912,Occlusion_Psychophysics,2022.1.4,Linux x86_64,59.99880002,,,right,"[""left""]",[0.9685999999940123],False,,0.0,0.0,10.0,10.0,10.0,1.0,,,,,,
,,,,,,,,,,,,,,,,,,,,,0.05,,,,,,,,,,Stimuli/psy_flexible_rotation_30_objects_occ0.7_0.9s/images/train/n03001627_9/n02933112_-18/img_chair_eames_plastic_armchair_cgaxis_models_48_26_vray_composite_2007_gray.jpg,n03001627_9,n02933112_-18,flexible,0.793787,n03001627_8,Stimuli/psy_fixed_rotation_30_objects_occ0.7_0.9s/images/train/n04070727_5/n03001627_8/img_b05_db_apps_tech_06_13_composite_chair_billiani_doll_2003-3_gray.png,random,fixed,n03001627_9,n02828884_3,Stimuli/canonical view 2/img_n03001627_9_gray.jpg,Stimuli/canonical view 2/img_n02828884_3_gray.jpg,random,left,Experiments/experiment_22/444.jpg,Experiments/experiment_22/445.jpg,Experiments/experiment_22/446.jpg,Experiments/experiment_22/447.jpg,367,1.0,2023-04-17_17h33.17.912,Occlusion_Psychophysics,2022.1.4,Linux x86_64,59.99880002,,,right,"[""right""]",[1.2051999999880536],True,right,1.0,0.0,11.0,11.0,11.0,1.0,0.6688,,,,,
,,,,,,,,,,,,,,,,,,,,,0.05,,,,,,,,,,Stimuli/psy_flexible_rotation_30_objects_occ0.7_0.9s/images/train/n04379243_8/n04256520_5/img_glass_table_meridiani_belmondo_bench_sofa_2000_gray.jpg,n04379243_8,n04256520_5,flexible,0.751882,n02883344_15,Stimuli/psy_flexible_rotation_30_objects_occ0.7_0.9s/images/train/n03001627_9/n02883344_15/img_chair_eames_plastic_armchair_microwave_box_2005-3_gray.png,random,flexible,n04379243_8,n02828884_9,Stimuli/canonical view 2/img_n04379243_8_gray.jpg,Stimuli/canonical view 2/img_n02828884_9_gray.jpg,random,left,Experiments/experiment_22/448.jpg,Experiments/experiment_22/449.jpg,Experiments/experiment_22/450.jpg,Experiments/experiment_22/451.jpg,367,1.0,2023-04-17_17h33.17.912,Occlusion_Psychophysics,2022.1.4,Linux x86_64,59.99880002,,,left,"[""left""]",[1.0313000000119246],False,,0.0,0.0,12.0,12.0,12.0,1.0,,,,,,
