in_color,Instructions_key.keys,Instructions_key.rt,Tutorial_instruction_key.keys,Tutorial_instruction_key.rt,Tutorial_fixation_ley.keys,Tutorial_fixation_ley.rt,Tutorial_single_img_key.keys,Tutorial_single_img_key.rt,Tutorial_intra_trial_fixation_key.keys,Tutorial_intra_trial_fixation_key.rt,Tutorial_stimulus_key.keys,Tutorial_stimulus_key.rt,Tutorial_response_key.keys,Tutorial_response_key.rt,Tutorial_attention_check_key.keys,Tutorial_attention_check_key.rt,advance_or_repeat.keys,advance_or_repeat.rt,Practice_instructions_key.keys,Practice_instructions_key.rt,intra_trial_duration,Practice_key_response.keys,Practice_key_response.rt,Practice_react_key.keys,Practice_react_key.rt,Practice_loop.thisRepN,Practice_loop.thisTrialN,Practice_loop.thisN,Practice_loop.thisIndex,Practice_loop.ran,multi_object_filepath,background_id,foreground_id,multi_object_rotation,occlusion_level,single_object_id,single_object_filepath,single_is_foreground_or_random,single_object_rotation,background_choice_id,alt_choice_id,background_option_filepath,alternative_option_filepath,alternative_is_foreground_or_random,location_of_correct_answer,multi_object_exp_filename,single_object_exp_filename,background_option_exp_filename,alternative_option_exp_filename,participant,session,date,expName,psychopyVersion,OS,frameRate,Practice_end_key.keys,Practice_end_key.rt,correct_answer,Input_selection.keys,Input_selection.rt,Was_attention_check,Attention_check.keys,Attention_check.corr,Each_session_loop.thisRepN,Each_session_loop.thisTrialN,Each_session_loop.thisN,Each_session_loop.thisIndex,Each_session_loop.ran,Attention_check.rt,Num_sessions.thisRepN,Num_sessions.thisTrialN,Num_sessions.thisN,Num_sessions.thisIndex,Num_sessions.ran
False,space,2.2544,space,0.432,space,0.6234,space,0.3294,space,0.2988,space,0.247,space,0.3285,space,0.3289,a,4.8503,right,3.1534,0.05,right,1.2488,r,3.5882,0.0,0.0,0.0,0.0,1.0,Stimuli/psy_fixed_rotation_30_objects_occ0.7_0.9s/images/train/n04379243_8/n02818832_9/img_glass_table_bed01_blue_2003_gray.jpg,n04379243_8,n02818832_9,fixed,0.724335,n02933112_4,Stimuli/psy_flexible_rotation_30_objects_occ0.7_0.9s/images/train/n02883344_15/n02933112_4/img_microwave_box_buffet_2000-3_gray.png,random,flexible,n04379243_8,n04405907_8,Stimuli/canonical view 2/img_n04379243_8_gray.jpg,Stimuli/canonical view 2/img_n04405907_8_gray.jpg,random,left,Experiments/experiment_23/1000.jpg,Experiments/experiment_23/1001.jpg,Experiments/experiment_23/1002.jpg,Experiments/experiment_23/1003.jpg,430,1,2023-06-28_11h29.19.969,Occlusion_Psychophysics,2022.1.4,Win32,59.94125757,,,,,,,,,,,,,,,,,,,
,,,,,,,,,,,,,,,,,,,,,0.05,left,0.9463,r,1.5717,0.0,1.0,1.0,1.0,1.0,Stimuli/psy_flexible_rotation_30_objects_occ0.7_0.9s/images/train/n02933112_4/n02828884_3/img_buffet_b04_wood_metal_park_bench_2005_gray.jpg,n02933112_4,n02828884_3,flexible,0.720611,n04405907_9,Stimuli/psy_flexible_rotation_30_objects_occ0.7_0.9s/images/train/n03928116_4/n04405907_9/img_dp_33_b_2013__vray_vray_004_2009-3_gray.png,random,flexible,n02933112_4,n02828884_3,Stimuli/canonical view 2/img_n02933112_4_gray.jpg,Stimuli/canonical view 2/img_n02828884_3_gray.jpg,foreground,left,Experiments/experiment_23/1004.jpg,Experiments/experiment_23/1005.jpg,Experiments/experiment_23/1006.jpg,Experiments/experiment_23/1007.jpg,430,1,2023-06-28_11h29.19.969,Occlusion_Psychophysics,2022.1.4,Win32,59.94125757,,,,,,,,,,,,,,,,,,,
,,,,,,,,,,,,,,,,,,,,,0.05,right,0.7838,a,3.1838,0.0,2.0,2.0,2.0,1.0,Stimuli/psy_fixed_rotation_30_objects_occ0.7_0.9s/images/train/n04256520_5/n02883344_0/img_meridiani_belmondo_bench_sofa_b03_box_2009_gray.jpg,n04256520_5,n02883344_0,fixed,0.730066,n02883344_0,Stimuli/psy_fixed_rotation_30_objects_occ0.7_0.9s/images/train/n04256520_5/n02883344_0/img_meridiani_belmondo_bench_sofa_b03_box_2009-3_gray.png,foreground,same as foreground,n04256520_5,n02828884_9,Stimuli/canonical view 2/img_n04256520_5_gray.jpg,Stimuli/canonical view 2/img_n02828884_9_gray.jpg,random,right,Experiments/experiment_23/1008.jpg,Experiments/experiment_23/1009.jpg,Experiments/experiment_23/1010.jpg,Experiments/experiment_23/1011.jpg,430,1,2023-06-28_11h29.19.969,Occlusion_Psychophysics,2022.1.4,Win32,59.94125757,,,,,,,,,,,,,,,,,,,
,,,,,,,,,,,,,,,,,,,,,0.05,,,,,,,,,,Stimuli/psy_flexible_rotation_30_objects_occ0.7_0.9s/images/train/n03928116_10/n02828884_3/img_ydp_103_r_2012__vray_b04_wood_metal_park_bench_2000_gray.jpg,n03928116_10,n02828884_3,flexible,0.754867,n02828884_3,Stimuli/psy_flexible_rotation_30_objects_occ0.7_0.9s/images/train/n03928116_10/n02828884_3/img_ydp_103_r_2012__vray_b04_wood_metal_park_bench_2000-3_gray.png,foreground,same as foreground,n03928116_10,n02828884_3,Stimuli/canonical view 2/img_n03928116_10_gray.jpg,Stimuli/canonical view 2/img_n02828884_3_gray.jpg,foreground,right,Experiments/experiment_23/0.jpg,Experiments/experiment_23/1.jpg,Experiments/experiment_23/2.jpg,Experiments/experiment_23/3.jpg,430,1,2023-06-28_11h29.19.969,Occlusion_Psychophysics,2022.1.4,Win32,59.94125757,right,2.0386,right,"[""right""]",[1.1557999999523076],False,,0.0,0.0,0.0,0.0,0.0,1.0,,,,,,
,,,,,,,,,,,,,,,,,,,,,0.05,,,,,,,,,,Stimuli/psy_fixed_rotation_30_objects_occ0.7_0.9s/images/train/n03001627_-2/n04256520_9/img_wood_chair_napoleon_iii_sofa_2014_gray.jpg,n03001627_-2,n04256520_9,fixed,0.729222,n04256520_9,Stimuli/psy_fixed_rotation_30_objects_occ0.7_0.9s/images/train/n03001627_-2/n04256520_9/img_wood_chair_napoleon_iii_sofa_2014-3_gray.png,foreground,same as foreground,n03001627_-2,n04256520_9,Stimuli/canonical view 2/img_n03001627_-2_gray.jpg,Stimuli/canonical view 2/img_n04256520_9_gray.jpg,foreground,right,Experiments/experiment_23/4.jpg,Experiments/experiment_23/5.jpg,Experiments/experiment_23/6.jpg,Experiments/experiment_23/7.jpg,430,1,2023-06-28_11h29.19.969,Occlusion_Psychophysics,2022.1.4,Win32,59.94125757,,,right,"[""right""]",[1.2602000000476892],False,,0.0,0.0,1.0,1.0,1.0,1.0,,,,,,
,,,,,,,,,,,,,,,,,,,,,0.025,,,,,,,,,,Stimuli/psy_fixed_rotation_30_objects_occ0.7_0.9s/images/train/n02883344_15/n03928116_4/img_microwave_box_dp_33_b_2013__vray_2010_gray.jpg,n02883344_15,n03928116_4,fixed,0.744941,n02828884_3,Stimuli/psy_flexible_rotation_30_objects_occ0.7_0.9s/images/train/n04070727_0/n02828884_3/img_b03_ka90ivi20r_2013__vray_b04_wood_metal_park_bench_2014-3_gray.png,random,flexible,n02883344_15,n02828884_9,Stimuli/canonical view 2/img_n02883344_15_gray.jpg,Stimuli/canonical view 2/img_n02828884_9_gray.jpg,random,left,Experiments/experiment_23/8.jpg,Experiments/experiment_23/9.jpg,Experiments/experiment_23/10.jpg,Experiments/experiment_23/11.jpg,430,1,2023-06-28_11h29.19.969,Occlusion_Psychophysics,2022.1.4,Win32,59.94125757,,,right,"[""right""]",[2.000799999952335],False,,0.0,0.0,2.0,2.0,2.0,1.0,,,,,,
,,,,,,,,,,,,,,,,,,,,,0.025,,,,,,,,,,Stimuli/psy_fixed_rotation_30_objects_occ0.7_0.9s/images/train/n02828884_4/n04405907_8/img_b05_c-5_classic_series_bench-2012_stylized_tv_2002_gray.jpg,n02828884_4,n04405907_8,fixed,0.701316,n04405907_8,Stimuli/psy_fixed_rotation_30_objects_occ0.7_0.9s/images/train/n02828884_4/n04405907_8/img_b05_c-5_classic_series_bench-2012_stylized_tv_2002-3_gray.png,foreground,same as foreground,n02828884_4,n02883344_0,Stimuli/canonical view 2/img_n02828884_4_gray.jpg,Stimuli/canonical view 2/img_n02883344_0_gray.jpg,random,left,Experiments/experiment_23/12.jpg,Experiments/experiment_23/13.jpg,Experiments/experiment_23/14.jpg,Experiments/experiment_23/15.jpg,430,1,2023-06-28_11h29.19.969,Occlusion_Psychophysics,2022.1.4,Win32,59.94125757,,,left,"[""left""]",[0.8120999999046035],False,,0.0,0.0,3.0,3.0,3.0,1.0,,,,,,
,,,,,,,,,,,,,,,,,,,,,0.025,,,,,,,,,,Stimuli/psy_fixed_rotation_30_objects_occ0.7_0.9s/images/train/n02828884_3/n02883344_15/img_b04_wood_metal_park_bench_microwave_box_2004_gray.jpg,n02828884_3,n02883344_15,fixed,0.755204,n04405907_8,Stimuli/psy_fixed_rotation_30_objects_occ0.7_0.9s/images/train/n04070727_0/n04405907_8/img_b03_ka90ivi20r_2013__vray_stylized_tv_2003-3_gray.png,random,fixed,n02828884_3,n02883344_-1,Stimuli/canonical view 2/img_n02828884_3_gray.jpg,Stimuli/canonical view 2/img_n02883344_-1_gray.jpg,random,left,Experiments/experiment_23/16.jpg,Experiments/experiment_23/17.jpg,Experiments/experiment_23/18.jpg,Experiments/experiment_23/19.jpg,430,1,2023-06-28_11h29.19.969,Occlusion_Psychophysics,2022.1.4,Win32,59.94125757,,,right,"[""right""]",[0.8532999999522985],False,,0.0,0.0,4.0,4.0,4.0,1.0,,,,,,
,,,,,,,,,,,,,,,,,,,,,0.05,,,,,,,,,,Stimuli/psy_fixed_rotation_30_objects_occ0.7_0.9s/images/train/n04379243_-7/n02883344_15/img_quatre_dining_table_microwave_box_2015_gray.jpg,n04379243_-7,n02883344_15,fixed,0.703013,n02883344_-1,Stimuli/psy_flexible_rotation_30_objects_occ0.7_0.9s/images/train/n04070727_5/n02883344_-1/img_b05_db_apps_tech_06_13_composite_woven_box_2006-3_gray.png,random,flexible,n04379243_-7,n02828884_3,Stimuli/canonical view 2/img_n04379243_-7_gray.jpg,Stimuli/canonical view 2/img_n02828884_3_gray.jpg,random,left,Experiments/experiment_23/20.jpg,Experiments/experiment_23/21.jpg,Experiments/experiment_23/22.jpg,Experiments/experiment_23/23.jpg,430,1,2023-06-28_11h29.19.969,Occlusion_Psychophysics,2022.1.4,Win32,59.94125757,,,left,"[""left""]",[0.948399999976175],True,right,1.0,0.0,5.0,5.0,5.0,1.0,0.7973,,,,,
,,,,,,,,,,,,,,,,,,,,,0.025,,,,,,,,,,Stimuli/psy_flexible_rotation_30_objects_occ0.7_0.9s/images/train/n04405907_9/n02818832_3/img_vray_004_b05_ccm_contemporary_bed_max2013_2012_gray.jpg,n04405907_9,n02818832_3,flexible,0.759311,n02818832_3,Stimuli/psy_flexible_rotation_30_objects_occ0.7_0.9s/images/train/n04405907_9/n02818832_3/img_vray_004_b05_ccm_contemporary_bed_max2013_2012-3_gray.png,foreground,same as foreground,n04405907_9,n04379243_-7,Stimuli/canonical view 2/img_n04405907_9_gray.jpg,Stimuli/canonical view 2/img_n04379243_-7_gray.jpg,random,right,Experiments/experiment_23/24.jpg,Experiments/experiment_23/25.jpg,Experiments/experiment_23/26.jpg,Experiments/experiment_23/27.jpg,430,1,2023-06-28_11h29.19.969,Occlusion_Psychophysics,2022.1.4,Win32,59.94125757,,,right,"[""right""]",[1.0205000000000268],False,,0.0,0.0,6.0,6.0,6.0,1.0,,,,,,
,,,,,,,,,,,,,,,,,,,,,0.05,,,,,,,,,,Stimuli/psy_flexible_rotation_30_objects_occ0.7_0.9s/images/train/n02818832_3/n03928116_4/img_b05_ccm_contemporary_bed_max2013_dp_33_b_2013__vray_2005_gray.jpg,n02818832_3,n03928116_4,flexible,0.767728,n03928116_4,Stimuli/psy_flexible_rotation_30_objects_occ0.7_0.9s/images/train/n02818832_3/n03928116_4/img_b05_ccm_contemporary_bed_max2013_dp_33_b_2013__vray_2005-3_gray.png,foreground,same as foreground,n02818832_3,n02828884_9,Stimuli/canonical view 2/img_n02818832_3_gray.jpg,Stimuli/canonical view 2/img_n02828884_9_gray.jpg,random,left,Experiments/experiment_23/28.jpg,Experiments/experiment_23/29.jpg,Experiments/experiment_23/30.jpg,Experiments/experiment_23/31.jpg,430,1,2023-06-28_11h29.19.969,Occlusion_Psychophysics,2022.1.4,Win32,59.94125757,,,right,"[""right""]",[1.1693000000715301],False,,0.0,0.0,7.0,7.0,7.0,1.0,,,,,,
,,,,,,,,,,,,,,,,,,,,,0.025,,,,,,,,,,Stimuli/psy_fixed_rotation_30_objects_occ0.7_0.9s/images/train/n04405907_5/n04379243_-7/img_samsung_40_uhd_smart_tv_2011_quatre_dining_table_2000_gray.jpg,n04405907_5,n04379243_-7,fixed,0.734652,n04256520_4,Stimuli/psy_flexible_rotation_30_objects_occ0.7_0.9s/images/train/n02883344_15/n04256520_4/img_microwave_box_club_house_italia_nautilus_sofa_2005-3_gray.png,random,flexible,n04405907_5,n02818832_9,Stimuli/canonical view 2/img_n04405907_5_gray.jpg,Stimuli/canonical view 2/img_n02818832_9_gray.jpg,random,right,Experiments/experiment_23/32.jpg,Experiments/experiment_23/33.jpg,Experiments/experiment_23/34.jpg,Experiments/experiment_23/35.jpg,430,1,2023-06-28_11h29.19.969,Occlusion_Psychophysics,2022.1.4,Win32,59.94125757,,,right,"[""left""]",[1.2873999999761168],False,,0.0,0.0,8.0,8.0,8.0,1.0,,,,,,
,,,,,,,,,,,,,,,,,,,,,0.05,,,,,,,,,,Stimuli/psy_fixed_rotation_30_objects_occ0.7_0.9s/images/train/n04379243_-7/n02883344_15/img_quatre_dining_table_microwave_box_2010_gray.jpg,n04379243_-7,n02883344_15,fixed,0.706124,n02818832_3,Stimuli/psy_flexible_rotation_30_objects_occ0.7_0.9s/images/train/n03928116_4/n02818832_3/img_dp_33_b_2013__vray_b05_ccm_contemporary_bed_max2013_2008-3_gray.png,random,flexible,n04379243_-7,n02828884_3,Stimuli/canonical view 2/img_n04379243_-7_gray.jpg,Stimuli/canonical view 2/img_n02828884_3_gray.jpg,random,right,Experiments/experiment_23/36.jpg,Experiments/experiment_23/37.jpg,Experiments/experiment_23/38.jpg,Experiments/experiment_23/39.jpg,430,1,2023-06-28_11h29.19.969,Occlusion_Psychophysics,2022.1.4,Win32,59.94125757,,,right,"[""right""]",[0.9759999999999991],False,,0.0,0.0,9.0,9.0,9.0,1.0,,,,,,
,,,,,,,,,,,,,,,,,,,,,0.05,,,,,,,,,,Stimuli/psy_fixed_rotation_30_objects_occ0.7_0.9s/images/train/n02818832_0/n04256520_5/img_b03_the_sofa_and_chair_company_-_stanley_bed_2014_meridiani_belmondo_bench_sofa_2009_gray.jpg,n02818832_0,n04256520_5,fixed,0.730464,n04256520_5,Stimuli/psy_fixed_rotation_30_objects_occ0.7_0.9s/images/train/n02818832_0/n04256520_5/img_b03_the_sofa_and_chair_company_-_stanley_bed_2014_meridiani_belmondo_bench_sofa_2009-3_gray.png,foreground,same as foreground,n02818832_0,n04256520_5,Stimuli/canonical view 2/img_n02818832_0_gray.jpg,Stimuli/canonical view 2/img_n04256520_5_gray.jpg,foreground,right,Experiments/experiment_23/40.jpg,Experiments/experiment_23/41.jpg,Experiments/experiment_23/42.jpg,Experiments/experiment_23/43.jpg,430,1,2023-06-28_11h29.19.969,Occlusion_Psychophysics,2022.1.4,Win32,59.94125757,,,right,"[""right""]",[0.8376999999284749],False,,0.0,0.0,10.0,10.0,10.0,1.0,,,,,,
,,,,,,,,,,,,,,,,,,,,,0.025,,,,,,,,,,Stimuli/psy_flexible_rotation_30_objects_occ0.7_0.9s/images/train/n03928116_0/n04256520_5/img_b02_piano_meridiani_belmondo_bench_sofa_2015_gray.jpg,n03928116_0,n04256520_5,flexible,0.762418,n04405907_9,Stimuli/psy_fixed_rotation_30_objects_occ0.7_0.9s/images/train/n04256520_4/n04405907_9/img_club_house_italia_nautilus_sofa_vray_004_2005-3_gray.png,random,fixed,n03928116_0,n04256520_5,Stimuli/canonical view 2/img_n03928116_0_gray.jpg,Stimuli/canonical view 2/img_n04256520_5_gray.jpg,foreground,right,Experiments/experiment_23/44.jpg,Experiments/experiment_23/45.jpg,Experiments/experiment_23/46.jpg,Experiments/experiment_23/47.jpg,430,1,2023-06-28_11h29.19.969,Occlusion_Psychophysics,2022.1.4,Win32,59.94125757,,,right,"[""right""]",[0.7220000000000368],False,,0.0,0.0,11.0,11.0,11.0,1.0,,,,,,
,,,,,,,,,,,,,,,,,,,,,0.025,,,,,,,,,,Stimuli/psy_flexible_rotation_30_objects_occ0.7_0.9s/images/train/n04379243_-7/n04256520_4/img_quatre_dining_table_club_house_italia_nautilus_sofa_2013_gray.jpg,n04379243_-7,n04256520_4,flexible,0.796046,n04256520_5,Stimuli/psy_flexible_rotation_30_objects_occ0.7_0.9s/images/train/n03928116_0/n04256520_5/img_b02_piano_meridiani_belmondo_bench_sofa_2004-3_gray.png,random,flexible,n04379243_-7,n02883344_0,Stimuli/canonical view 2/img_n04379243_-7_gray.jpg,Stimuli/canonical view 2/img_n02883344_0_gray.jpg,random,left,Experiments/experiment_23/48.jpg,Experiments/experiment_23/49.jpg,Experiments/experiment_23/50.jpg,Experiments/experiment_23/51.jpg,430,1,2023-06-28_11h29.19.969,Occlusion_Psychophysics,2022.1.4,Win32,59.94125757,,,right,"[""right""]",[0.7141000000238478],False,,0.0,0.0,12.0,12.0,12.0,1.0,,,,,,
,,,,,,,,,,,,,,,,,,,,,0.05,,,,,,,,,,Stimuli/psy_flexible_rotation_30_objects_occ0.7_0.9s/images/train/n02883344_15/n03928116_4/img_microwave_box_dp_33_b_2013__vray_2002_gray.jpg,n02883344_15,n03928116_4,flexible,0.752122,n04379243_0,Stimuli/psy_flexible_rotation_30_objects_occ0.7_0.9s/images/train/n04379243_0/n04379243_0/img_17th_c._monastery_dining_table_2010_17th_c._monastery_dining_table_2010_2010-3_gray.png,random,flexible,n02883344_15,n02828884_3,Stimuli/canonical view 2/img_n02883344_15_gray.jpg,Stimuli/canonical view 2/img_n02828884_3_gray.jpg,random,right,Experiments/experiment_23/52.jpg,Experiments/experiment_23/53.jpg,Experiments/experiment_23/54.jpg,Experiments/experiment_23/55.jpg,430,1,2023-06-28_11h29.19.969,Occlusion_Psychophysics,2022.1.4,Win32,59.94125757,,,left,"[""left""]",[0.6906999999284267],False,,0.0,0.0,13.0,13.0,13.0,1.0,,,,,,
,,,,,,,,,,,,,,,,,,,,,0.05,,,,,,,,,,Stimuli/psy_fixed_rotation_30_objects_occ0.7_0.9s/images/train/n03928116_4/n02818832_0/img_dp_33_b_2013__vray_b03_the_sofa_and_chair_company_-_stanley_bed_2014_2015_gray.jpg,n03928116_4,n02818832_0,fixed,0.716377,n02818832_0,Stimuli/psy_fixed_rotation_30_objects_occ0.7_0.9s/images/train/n03928116_4/n02818832_0/img_dp_33_b_2013__vray_b03_the_sofa_and_chair_company_-_stanley_bed_2014_2015-3_gray.png,foreground,same as foreground,n03928116_4,n04405907_8,Stimuli/canonical view 2/img_n03928116_4_gray.jpg,Stimuli/canonical view 2/img_n04405907_8_gray.jpg,random,left,Experiments/experiment_23/56.jpg,Experiments/experiment_23/57.jpg,Experiments/experiment_23/58.jpg,Experiments/experiment_23/59.jpg,430,1,2023-06-28_11h29.19.969,Occlusion_Psychophysics,2022.1.4,Win32,59.94125757,,,right,"[""right""]",[0.5716999999284553],False,,0.0,0.0,14.0,14.0,14.0,1.0,,,,,,
,,,,,,,,,,,,,,,,,,,,,0.025,,,,,,,,,,Stimuli/psy_flexible_rotation_30_objects_occ0.7_0.9s/images/train/n04379243_-7/n04256520_4/img_quatre_dining_table_club_house_italia_nautilus_sofa_2003_gray.jpg,n04379243_-7,n04256520_4,flexible,0.881815,n04256520_4,Stimuli/psy_flexible_rotation_30_objects_occ0.7_0.9s/images/train/n04379243_-7/n04256520_4/img_quatre_dining_table_club_house_italia_nautilus_sofa_2003-3_gray.png,foreground,same as foreground,n04379243_-7,n04256520_4,Stimuli/canonical view 2/img_n04379243_-7_gray.jpg,Stimuli/canonical view 2/img_n04256520_4_gray.jpg,foreground,right,Experiments/experiment_23/60.jpg,Experiments/experiment_23/61.jpg,Experiments/experiment_23/62.jpg,Experiments/experiment_23/63.jpg,430,1,2023-06-28_11h29.19.969,Occlusion_Psychophysics,2022.1.4,Win32,59.94125757,,,left,"[""left""]",[0.5703000000715406],False,,0.0,0.0,15.0,15.0,15.0,1.0,,,,,,
,,,,,,,,,,,,,,,,,,,,,0.025,,,,,,,,,,Stimuli/psy_flexible_rotation_30_objects_occ0.7_0.9s/images/train/n03001627_9/n02828884_3/img_chair_eames_plastic_armchair_b04_wood_metal_park_bench_2004_gray.jpg,n03001627_9,n02828884_3,flexible,0.755208,n02933112_-18,Stimuli/psy_flexible_rotation_30_objects_occ0.7_0.9s/images/train/n03001627_-2/n02933112_-18/img_wood_chair_cgaxis_models_48_26_vray_composite_2013-3_gray.png,random,flexible,n03001627_9,n02828884_3,Stimuli/canonical view 2/img_n03001627_9_gray.jpg,Stimuli/canonical view 2/img_n02828884_3_gray.jpg,foreground,right,Experiments/experiment_23/64.jpg,Experiments/experiment_23/65.jpg,Experiments/experiment_23/66.jpg,Experiments/experiment_23/67.jpg,430,1,2023-06-28_11h29.19.969,Occlusion_Psychophysics,2022.1.4,Win32,59.94125757,,,left,"[""left""]",[0.569500000000005],False,,0.0,0.0,16.0,16.0,16.0,1.0,,,,,,
,,,,,,,,,,,,,,,,,,,,,0.05,,,,,,,,,,Stimuli/psy_flexible_rotation_30_objects_occ0.7_0.9s/images/train/n04256520_9/n04405907_8/img_napoleon_iii_sofa_stylized_tv_2012_gray.jpg,n04256520_9,n04405907_8,flexible,0.721387,n04405907_8,Stimuli/psy_flexible_rotation_30_objects_occ0.7_0.9s/images/train/n04256520_9/n04405907_8/img_napoleon_iii_sofa_stylized_tv_2012-3_gray.png,foreground,same as foreground,n04256520_9,n04405907_8,Stimuli/canonical view 2/img_n04256520_9_gray.jpg,Stimuli/canonical view 2/img_n04405907_8_gray.jpg,foreground,right,Experiments/experiment_23/68.jpg,Experiments/experiment_23/69.jpg,Experiments/experiment_23/70.jpg,Experiments/experiment_23/71.jpg,430,1,2023-06-28_11h29.19.969,Occlusion_Psychophysics,2022.1.4,Win32,59.94125757,,,right,"[""right""]",[1.0012000000477315],False,,0.0,0.0,17.0,17.0,17.0,1.0,,,,,,
,,,,,,,,,,,,,,,,,,,,,0.025,,,,,,,,,,Stimuli/psy_flexible_rotation_30_objects_occ0.7_0.9s/images/train/n02933112_-18/n04405907_8/img_cgaxis_models_48_26_vray_composite_stylized_tv_2013_gray.jpg,n02933112_-18,n04405907_8,flexible,0.75416,n04405907_8,Stimuli/psy_flexible_rotation_30_objects_occ0.7_0.9s/images/train/n02933112_-18/n04405907_8/img_cgaxis_models_48_26_vray_composite_stylized_tv_2013-3_gray.png,foreground,same as foreground,n02933112_-18,n02883344_0,Stimuli/canonical view 2/img_n02933112_-18_gray.jpg,Stimuli/canonical view 2/img_n02883344_0_gray.jpg,random,right,Experiments/experiment_23/72.jpg,Experiments/experiment_23/73.jpg,Experiments/experiment_23/74.jpg,Experiments/experiment_23/75.jpg,430,1,2023-06-28_11h29.19.969,Occlusion_Psychophysics,2022.1.4,Win32,59.94125757,,,left,"[""right""]",[0.8760000000000332],False,,0.0,0.0,18.0,18.0,18.0,1.0,,,,,,
,,,,,,,,,,,,,,,,,,,,,0.05,,,,,,,,,,Stimuli/psy_fixed_rotation_30_objects_occ0.7_0.9s/images/train/n04405907_5/n03928116_10/img_samsung_40_uhd_smart_tv_2011_ydp_103_r_2012__vray_2005_gray.jpg,n04405907_5,n03928116_10,fixed,0.702597,n03928116_10,Stimuli/psy_fixed_rotation_30_objects_occ0.7_0.9s/images/train/n04405907_5/n03928116_10/img_samsung_40_uhd_smart_tv_2011_ydp_103_r_2012__vray_2005-3_gray.png,foreground,same as foreground,n04405907_5,n02883344_0,Stimuli/canonical view 2/img_n04405907_5_gray.jpg,Stimuli/canonical view 2/img_n02883344_0_gray.jpg,random,left,Experiments/experiment_23/76.jpg,Experiments/experiment_23/77.jpg,Experiments/experiment_23/78.jpg,Experiments/experiment_23/79.jpg,430,1,2023-06-28_11h29.19.969,Occlusion_Psychophysics,2022.1.4,Win32,59.94125757,,,right,"[""right""]",[0.6931999999284244],False,,0.0,0.0,19.0,19.0,19.0,1.0,,,,,,
,,,,,,,,,,,,,,,,,,,,,0.05,,,,,,,,,,Stimuli/psy_flexible_rotation_30_objects_occ0.7_0.9s/images/train/n04256520_5/n04405907_8/img_meridiani_belmondo_bench_sofa_stylized_tv_2015_gray.jpg,n04256520_5,n04405907_8,flexible,0.7493,n04405907_8,Stimuli/psy_flexible_rotation_30_objects_occ0.7_0.9s/images/train/n04256520_5/n04405907_8/img_meridiani_belmondo_bench_sofa_stylized_tv_2015-3_gray.png,foreground,same as foreground,n04256520_5,n04405907_8,Stimuli/canonical view 2/img_n04256520_5_gray.jpg,Stimuli/canonical view 2/img_n04405907_8_gray.jpg,foreground,right,Experiments/experiment_23/80.jpg,Experiments/experiment_23/81.jpg,Experiments/experiment_23/82.jpg,Experiments/experiment_23/83.jpg,430,1,2023-06-28_11h29.19.969,Occlusion_Psychophysics,2022.1.4,Win32,59.94125757,,,right,"[""right""]",[0.7357999999522917],False,,0.0,0.0,20.0,20.0,20.0,1.0,,,,,,
,,,,,,,,,,,,,,,,,,,,,0.05,,,,,,,,,,Stimuli/psy_flexible_rotation_30_objects_occ0.7_0.9s/images/train/n04405907_9/n02828884_3/img_vray_004_b04_wood_metal_park_bench_2003_gray.jpg,n04405907_9,n02828884_3,flexible,0.792878,n04256520_4,Stimuli/psy_flexible_rotation_30_objects_occ0.7_0.9s/images/train/n02818832_9/n04256520_4/img_bed01_blue_club_house_italia_nautilus_sofa_2004-3_gray.png,random,flexible,n04405907_9,n02883344_0,Stimuli/canonical view 2/img_n04405907_9_gray.jpg,Stimuli/canonical view 2/img_n02883344_0_gray.jpg,random,left,Experiments/experiment_23/84.jpg,Experiments/experiment_23/85.jpg,Experiments/experiment_23/86.jpg,Experiments/experiment_23/87.jpg,430,1,2023-06-28_11h29.19.969,Occlusion_Psychophysics,2022.1.4,Win32,59.94125757,,,left,"[""left""]",[1.6546000000238337],False,,0.0,0.0,21.0,21.0,21.0,1.0,,,,,,
,,,,,,,,,,,,,,,,,,,,,0.025,,,,,,,,,,Stimuli/psy_fixed_rotation_30_objects_occ0.7_0.9s/images/train/n04405907_9/n04405907_8/img_vray_004_stylized_tv_2008_gray.jpg,n04405907_9,n04405907_8,fixed,0.772439,n03928116_0,Stimuli/psy_fixed_rotation_30_objects_occ0.7_0.9s/images/train/n02933112_4/n03928116_0/img_buffet_b02_piano_2003-3_gray.png,random,fixed,n04405907_9,n04405907_8,Stimuli/canonical view 2/img_n04405907_9_gray.jpg,Stimuli/canonical view 2/img_n04405907_8_gray.jpg,foreground,left,Experiments/experiment_23/88.jpg,Experiments/experiment_23/89.jpg,Experiments/experiment_23/90.jpg,Experiments/experiment_23/91.jpg,430,1,2023-06-28_11h29.19.969,Occlusion_Psychophysics,2022.1.4,Win32,59.94125757,,,left,"[""left""]",[0.9210999999046408],False,,0.0,0.0,22.0,22.0,22.0,1.0,,,,,,
,,,,,,,,,,,,,,,,,,,,,0.05,,,,,,,,,,Stimuli/psy_fixed_rotation_30_objects_occ0.7_0.9s/images/train/n04256520_5/n04379243_8/img_meridiani_belmondo_bench_sofa_glass_table_2014_gray.jpg,n04256520_5,n04379243_8,fixed,0.725726,n03928116_10,Stimuli/psy_fixed_rotation_30_objects_occ0.7_0.9s/images/train/n04256520_9/n03928116_10/img_napoleon_iii_sofa_ydp_103_r_2012__vray_2004-3_gray.png,random,fixed,n04256520_5,n04379243_8,Stimuli/canonical view 2/img_n04256520_5_gray.jpg,Stimuli/canonical view 2/img_n04379243_8_gray.jpg,foreground,right,Experiments/experiment_23/92.jpg,Experiments/experiment_23/93.jpg,Experiments/experiment_23/94.jpg,Experiments/experiment_23/95.jpg,430,1,2023-06-28_11h29.19.969,Occlusion_Psychophysics,2022.1.4,Win32,59.94125757,,,left,"[""left""]",[0.7220000000000368],False,,0.0,0.0,23.0,23.0,23.0,1.0,,,,,,
,,,,,,,,,,,,,,,,,,,,,0.05,,,,,,,,,,Stimuli/psy_flexible_rotation_30_objects_occ0.7_0.9s/images/train/n04256520_9/n04256520_4/img_napoleon_iii_sofa_club_house_italia_nautilus_sofa_2004_gray.jpg,n04256520_9,n04256520_4,flexible,0.742212,n02828884_4,Stimuli/psy_fixed_rotation_30_objects_occ0.7_0.9s/images/train/n04379243_8/n02828884_4/img_glass_table_b05_c-5_classic_series_bench-2012_2009-3_gray.png,random,fixed,n04256520_9,n04379243_0,Stimuli/canonical view 2/img_n04256520_9_gray.jpg,Stimuli/canonical view 2/img_n04379243_0_gray.jpg,random,right,Experiments/experiment_23/96.jpg,Experiments/experiment_23/97.jpg,Experiments/experiment_23/98.jpg,Experiments/experiment_23/99.jpg,430,1,2023-06-28_11h29.19.969,Occlusion_Psychophysics,2022.1.4,Win32,59.94125757,,,left,"[""left""]",[0.8029999999999973],False,,0.0,0.0,24.0,24.0,24.0,1.0,,,,,,
,,,,,,,,,,,,,,,,,,,,,0.025,,,,,,,,,,Stimuli/psy_flexible_rotation_30_objects_occ0.7_0.9s/images/train/n04256520_4/n04405907_5/img_club_house_italia_nautilus_sofa_samsung_40_uhd_smart_tv_2011_2015_gray.jpg,n04256520_4,n04405907_5,flexible,0.744147,n04405907_5,Stimuli/psy_flexible_rotation_30_objects_occ0.7_0.9s/images/train/n04256520_4/n04405907_5/img_club_house_italia_nautilus_sofa_samsung_40_uhd_smart_tv_2011_2015-3_gray.png,foreground,same as foreground,n04256520_4,n04379243_8,Stimuli/canonical view 2/img_n04256520_4_gray.jpg,Stimuli/canonical view 2/img_n04379243_8_gray.jpg,random,right,Experiments/experiment_23/100.jpg,Experiments/experiment_23/101.jpg,Experiments/experiment_23/102.jpg,Experiments/experiment_23/103.jpg,430,1,2023-06-28_11h29.19.969,Occlusion_Psychophysics,2022.1.4,Win32,59.94125757,,,right,"[""right""]",[0.846600000023841],False,,0.0,0.0,25.0,25.0,25.0,1.0,,,,,,
,,,,,,,,,,,,,,,,,,,,,0.025,,,,,,,,,,Stimuli/psy_fixed_rotation_30_objects_occ0.7_0.9s/images/train/n04256520_5/n04405907_9/img_meridiani_belmondo_bench_sofa_vray_004_2008_gray.jpg,n04256520_5,n04405907_9,fixed,0.803969,n04405907_9,Stimuli/psy_fixed_rotation_30_objects_occ0.7_0.9s/images/train/n04256520_5/n04405907_9/img_meridiani_belmondo_bench_sofa_vray_004_2008-3_gray.png,foreground,same as foreground,n04256520_5,n02933112_-18,Stimuli/canonical view 2/img_n04256520_5_gray.jpg,Stimuli/canonical view 2/img_n02933112_-18_gray.jpg,random,left,Experiments/experiment_23/104.jpg,Experiments/experiment_23/105.jpg,Experiments/experiment_23/106.jpg,Experiments/experiment_23/107.jpg,430,1,2023-06-28_11h29.19.969,Occlusion_Psychophysics,2022.1.4,Win32,59.94125757,,,right,"[""right""]",[0.58689999997614],False,,0.0,0.0,26.0,26.0,26.0,1.0,,,,,,
,,,,,,,,,,,,,,,,,,,,,0.05,,,,,,,,,,Stimuli/psy_flexible_rotation_30_objects_occ0.7_0.9s/images/train/n04379243_8/n02933112_-2/img_glass_table_sink_base_white_wood_2011_gray.jpg,n04379243_8,n02933112_-2,flexible,0.737572,n02883344_15,Stimuli/psy_flexible_rotation_30_objects_occ0.7_0.9s/images/train/n04379243_0/n02883344_15/img_17th_c._monastery_dining_table_2010_microwave_box_2010-3_gray.png,random,flexible,n04379243_8,n02933112_-2,Stimuli/canonical view 2/img_n04379243_8_gray.jpg,Stimuli/canonical view 2/img_n02933112_-2_gray.jpg,foreground,left,Experiments/experiment_23/108.jpg,Experiments/experiment_23/109.jpg,Experiments/experiment_23/110.jpg,Experiments/experiment_23/111.jpg,430,1,2023-06-28_11h29.19.969,Occlusion_Psychophysics,2022.1.4,Win32,59.94125757,,,right,"[""right""]",[0.5849999999999795],False,,0.0,0.0,27.0,27.0,27.0,1.0,,,,,,
,,,,,,,,,,,,,,,,,,,,,0.05,,,,,,,,,,Stimuli/psy_fixed_rotation_30_objects_occ0.7_0.9s/images/train/n02933112_-2/n04379243_0/img_sink_base_white_wood_17th_c._monastery_dining_table_2010_2005_gray.jpg,n02933112_-2,n04379243_0,fixed,0.758903,n02828884_9,Stimuli/psy_flexible_rotation_30_objects_occ0.7_0.9s/images/train/n02883344_0/n02828884_9/img_b03_box_cr-96_bench_2006-3_gray.png,random,flexible,n02933112_-2,n03001627_9,Stimuli/canonical view 2/img_n02933112_-2_gray.jpg,Stimuli/canonical view 2/img_n03001627_9_gray.jpg,random,right,Experiments/experiment_23/112.jpg,Experiments/experiment_23/113.jpg,Experiments/experiment_23/114.jpg,Experiments/experiment_23/115.jpg,430,1,2023-06-28_11h29.19.969,Occlusion_Psychophysics,2022.1.4,Win32,59.94125757,,,right,"[""right""]",[0.5736999999285217],False,,0.0,0.0,28.0,28.0,28.0,1.0,,,,,,
,,,,,,,,,,,,,,,,,,,,,0.025,,,,,,,,,,Stimuli/psy_fixed_rotation_30_objects_occ0.7_0.9s/images/train/n04379243_-7/n04379243_8/img_quatre_dining_table_glass_table_2010_gray.jpg,n04379243_-7,n04379243_8,fixed,0.85343,n02933112_4,Stimuli/psy_fixed_rotation_30_objects_occ0.7_0.9s/images/train/n03001627_-2/n02933112_4/img_wood_chair_buffet_2004-3_gray.png,random,fixed,n04379243_-7,n04379243_8,Stimuli/canonical view 2/img_n04379243_-7_gray.jpg,Stimuli/canonical view 2/img_n04379243_8_gray.jpg,foreground,left,Experiments/experiment_23/116.jpg,Experiments/experiment_23/117.jpg,Experiments/experiment_23/118.jpg,Experiments/experiment_23/119.jpg,430,1,2023-06-28_11h29.19.969,Occlusion_Psychophysics,2022.1.4,Win32,59.94125757,,,right,"[""left""]",[0.6038999999761927],False,,0.0,0.0,29.0,29.0,29.0,1.0,,,,,,
,,,,,,,,,,,,,,,,,,,,,0.05,,,,,,,,,,Stimuli/psy_flexible_rotation_30_objects_occ0.7_0.9s/images/train/n04256520_4/n02933112_-2/img_club_house_italia_nautilus_sofa_sink_base_white_wood_2007_gray.jpg,n04256520_4,n02933112_-2,flexible,0.738513,n02933112_-2,Stimuli/psy_flexible_rotation_30_objects_occ0.7_0.9s/images/train/n04256520_4/n02933112_-2/img_club_house_italia_nautilus_sofa_sink_base_white_wood_2007-3_gray.png,foreground,same as foreground,n04256520_4,n02933112_-2,Stimuli/canonical view 2/img_n04256520_4_gray.jpg,Stimuli/canonical view 2/img_n02933112_-2_gray.jpg,foreground,right,Experiments/experiment_23/120.jpg,Experiments/experiment_23/121.jpg,Experiments/experiment_23/122.jpg,Experiments/experiment_23/123.jpg,430,1,2023-06-28_11h29.19.969,Occlusion_Psychophysics,2022.1.4,Win32,59.94125757,,,left,"[""left""]",[0.5922000000476828],False,,0.0,0.0,30.0,30.0,30.0,1.0,,,,,,
,,,,,,,,,,,,,,,,,,,,,0.05,,,,,,,,,,Stimuli/psy_fixed_rotation_30_objects_occ0.7_0.9s/images/train/n02818832_9/n04256520_5/img_bed01_blue_meridiani_belmondo_bench_sofa_2002_gray.jpg,n02818832_9,n04256520_5,fixed,0.761597,n04256520_5,Stimuli/psy_fixed_rotation_30_objects_occ0.7_0.9s/images/train/n02818832_9/n04256520_5/img_bed01_blue_meridiani_belmondo_bench_sofa_2002-3_gray.png,foreground,same as foreground,n02818832_9,n02818832_0,Stimuli/canonical view 2/img_n02818832_9_gray.jpg,Stimuli/canonical view 2/img_n02818832_0_gray.jpg,random,right,Experiments/experiment_23/124.jpg,Experiments/experiment_23/125.jpg,Experiments/experiment_23/126.jpg,Experiments/experiment_23/127.jpg,430,1,2023-06-28_11h29.19.969,Occlusion_Psychophysics,2022.1.4,Win32,59.94125757,,,right,"[""right""]",[0.5697999999523518],False,,0.0,0.0,31.0,31.0,31.0,1.0,,,,,,
,,,,,,,,,,,,,,,,,,,,,0.025,,,,,,,,,,Stimuli/psy_flexible_rotation_30_objects_occ0.7_0.9s/images/train/n02818832_9/n02933112_-2/img_bed01_blue_sink_base_white_wood_2001_gray.jpg,n02818832_9,n02933112_-2,flexible,0.73449,n02933112_-2,Stimuli/psy_flexible_rotation_30_objects_occ0.7_0.9s/images/train/n02818832_9/n02933112_-2/img_bed01_blue_sink_base_white_wood_2001-3_gray.png,foreground,same as foreground,n02818832_9,n02933112_-2,Stimuli/canonical view 2/img_n02818832_9_gray.jpg,Stimuli/canonical view 2/img_n02933112_-2_gray.jpg,foreground,right,Experiments/experiment_23/128.jpg,Experiments/experiment_23/129.jpg,Experiments/experiment_23/130.jpg,Experiments/experiment_23/131.jpg,430,1,2023-06-28_11h29.19.969,Occlusion_Psychophysics,2022.1.4,Win32,59.94125757,,,left,"[""left""]",[0.4917999999523204],False,,0.0,0.0,32.0,32.0,32.0,1.0,,,,,,
,,,,,,,,,,,,,,,,,,,,,0.025,,,,,,,,,,Stimuli/psy_fixed_rotation_30_objects_occ0.7_0.9s/images/train/n04405907_5/n02818832_0/img_samsung_40_uhd_smart_tv_2011_b03_the_sofa_and_chair_company_-_stanley_bed_2014_2009_gray.jpg,n04405907_5,n02818832_0,fixed,0.732815,n02933112_4,Stimuli/psy_fixed_rotation_30_objects_occ0.7_0.9s/images/train/n03928116_10/n02933112_4/img_ydp_103_r_2012__vray_buffet_2013-3_gray.png,random,fixed,n04405907_5,n03001627_9,Stimuli/canonical view 2/img_n04405907_5_gray.jpg,Stimuli/canonical view 2/img_n03001627_9_gray.jpg,random,right,Experiments/experiment_23/132.jpg,Experiments/experiment_23/133.jpg,Experiments/experiment_23/134.jpg,Experiments/experiment_23/135.jpg,430,1,2023-06-28_11h29.19.969,Occlusion_Psychophysics,2022.1.4,Win32,59.94125757,,,right,"[""right""]",[0.7418999999761695],False,,0.0,0.0,33.0,33.0,33.0,1.0,,,,,,
,,,,,,,,,,,,,,,,,,,,,0.05,,,,,,,,,,Stimuli/psy_flexible_rotation_30_objects_occ0.7_0.9s/images/train/n04379243_-7/n04256520_5/img_quatre_dining_table_meridiani_belmondo_bench_sofa_2014_gray.jpg,n04379243_-7,n04256520_5,flexible,0.774063,n04256520_5,Stimuli/psy_flexible_rotation_30_objects_occ0.7_0.9s/images/train/n04379243_-7/n04256520_5/img_quatre_dining_table_meridiani_belmondo_bench_sofa_2014-3_gray.png,foreground,same as foreground,n04379243_-7,n04256520_5,Stimuli/canonical view 2/img_n04379243_-7_gray.jpg,Stimuli/canonical view 2/img_n04256520_5_gray.jpg,foreground,left,Experiments/experiment_23/136.jpg,Experiments/experiment_23/137.jpg,Experiments/experiment_23/138.jpg,Experiments/experiment_23/139.jpg,430,1,2023-06-28_11h29.19.969,Occlusion_Psychophysics,2022.1.4,Win32,59.94125757,,,left,"[""left""]",[0.6368000000715028],False,,0.0,0.0,34.0,34.0,34.0,1.0,,,,,,
,,,,,,,,,,,,,,,,,,,,,0.05,,,,,,,,,,Stimuli/psy_fixed_rotation_30_objects_occ0.7_0.9s/images/train/n02883344_-1/n02828884_3/img_woven_box_b04_wood_metal_park_bench_2002_gray.jpg,n02883344_-1,n02828884_3,fixed,0.73879,n02828884_3,Stimuli/psy_fixed_rotation_30_objects_occ0.7_0.9s/images/train/n02883344_-1/n02828884_3/img_woven_box_b04_wood_metal_park_bench_2002-3_gray.png,foreground,same as foreground,n02883344_-1,n04405907_9,Stimuli/canonical view 2/img_n02883344_-1_gray.jpg,Stimuli/canonical view 2/img_n04405907_9_gray.jpg,random,right,Experiments/experiment_23/140.jpg,Experiments/experiment_23/141.jpg,Experiments/experiment_23/142.jpg,Experiments/experiment_23/143.jpg,430,1,2023-06-28_11h29.19.969,Occlusion_Psychophysics,2022.1.4,Win32,59.94125757,,,right,"[""right""]",[0.624600000023861],False,,0.0,0.0,35.0,35.0,35.0,1.0,,,,,,
,,,,,,,,,,,,,,,,,,,,,0.05,,,,,,,,,,Stimuli/psy_flexible_rotation_30_objects_occ0.7_0.9s/images/train/n03001627_9/n03928116_10/img_chair_eames_plastic_armchair_ydp_103_r_2012__vray_2010_gray.jpg,n03001627_9,n03928116_10,flexible,0.745205,n04256520_9,Stimuli/psy_flexible_rotation_30_objects_occ0.7_0.9s/images/train/n02933112_4/n04256520_9/img_buffet_napoleon_iii_sofa_2003-3_gray.png,random,flexible,n03001627_9,n04256520_5,Stimuli/canonical view 2/img_n03001627_9_gray.jpg,Stimuli/canonical view 2/img_n04256520_5_gray.jpg,random,right,Experiments/experiment_23/144.jpg,Experiments/experiment_23/145.jpg,Experiments/experiment_23/146.jpg,Experiments/experiment_23/147.jpg,430,1,2023-06-28_11h29.19.969,Occlusion_Psychophysics,2022.1.4,Win32,59.94125757,,,right,"[""left""]",[1.5362999999523481],False,,0.0,0.0,36.0,36.0,36.0,1.0,,,,,,
,,,,,,,,,,,,,,,,,,,,,0.025,,,,,,,,,,Stimuli/psy_fixed_rotation_30_objects_occ0.7_0.9s/images/train/n04379243_8/n04405907_9/img_glass_table_vray_004_2000_gray.jpg,n04379243_8,n04405907_9,fixed,0.725997,n02818832_9,Stimuli/psy_flexible_rotation_30_objects_occ0.7_0.9s/images/train/n04256520_9/n02818832_9/img_napoleon_iii_sofa_bed01_blue_2004-3_gray.png,random,flexible,n04379243_8,n04405907_9,Stimuli/canonical view 2/img_n04379243_8_gray.jpg,Stimuli/canonical view 2/img_n04405907_9_gray.jpg,foreground,left,Experiments/experiment_23/148.jpg,Experiments/experiment_23/149.jpg,Experiments/experiment_23/150.jpg,Experiments/experiment_23/151.jpg,430,1,2023-06-28_11h29.19.969,Occlusion_Psychophysics,2022.1.4,Win32,59.94125757,,,right,"[""right""]",[0.5368000000714801],False,,0.0,0.0,37.0,37.0,37.0,1.0,,,,,,
,,,,,,,,,,,,,,,,,,,,,0.025,,,,,,,,,,Stimuli/psy_fixed_rotation_30_objects_occ0.7_0.9s/images/train/n04405907_8/n04256520_4/img_stylized_tv_club_house_italia_nautilus_sofa_2006_gray.jpg,n04405907_8,n04256520_4,fixed,0.720147,n04256520_4,Stimuli/psy_fixed_rotation_30_objects_occ0.7_0.9s/images/train/n04405907_8/n04256520_4/img_stylized_tv_club_house_italia_nautilus_sofa_2006-3_gray.png,foreground,same as foreground,n04405907_8,n04256520_4,Stimuli/canonical view 2/img_n04405907_8_gray.jpg,Stimuli/canonical view 2/img_n04256520_4_gray.jpg,foreground,right,Experiments/experiment_23/152.jpg,Experiments/experiment_23/153.jpg,Experiments/experiment_23/154.jpg,Experiments/experiment_23/155.jpg,430,1,2023-06-28_11h29.19.969,Occlusion_Psychophysics,2022.1.4,Win32,59.94125757,,,left,"[""right""]",[0.7194999999999823],False,,0.0,0.0,38.0,38.0,38.0,1.0,,,,,,
,,,,,,,,,,,,,,,,,,,,,0.025,,,,,,,,,,Stimuli/psy_fixed_rotation_30_objects_occ0.7_0.9s/images/train/n04379243_-7/n04256520_5/img_quatre_dining_table_meridiani_belmondo_bench_sofa_2012_gray.jpg,n04379243_-7,n04256520_5,fixed,0.749968,n04256520_5,Stimuli/psy_fixed_rotation_30_objects_occ0.7_0.9s/images/train/n04379243_-7/n04256520_5/img_quatre_dining_table_meridiani_belmondo_bench_sofa_2012-3_gray.png,foreground,same as foreground,n04379243_-7,n04256520_5,Stimuli/canonical view 2/img_n04379243_-7_gray.jpg,Stimuli/canonical view 2/img_n04256520_5_gray.jpg,foreground,left,Experiments/experiment_23/156.jpg,Experiments/experiment_23/157.jpg,Experiments/experiment_23/158.jpg,Experiments/experiment_23/159.jpg,430,1,2023-06-28_11h29.19.969,Occlusion_Psychophysics,2022.1.4,Win32,59.94125757,,,right,"[""right""]",[0.717700000047671],False,,0.0,0.0,39.0,39.0,39.0,1.0,,,,,,
,,,,,,,,,,,,,,,,,,,,,0.05,,,,,,,,,,Stimuli/psy_fixed_rotation_30_objects_occ0.7_0.9s/images/train/n02828884_3/n04405907_5/img_b04_wood_metal_park_bench_samsung_40_uhd_smart_tv_2011_2005_gray.jpg,n02828884_3,n04405907_5,fixed,0.785732,n04379243_0,Stimuli/psy_flexible_rotation_30_objects_occ0.7_0.9s/images/train/n04405907_8/n04379243_0/img_stylized_tv_17th_c._monastery_dining_table_2010_2012-3_gray.png,random,flexible,n02828884_3,n04256520_4,Stimuli/canonical view 2/img_n02828884_3_gray.jpg,Stimuli/canonical view 2/img_n04256520_4_gray.jpg,random,left,Experiments/experiment_23/160.jpg,Experiments/experiment_23/161.jpg,Experiments/experiment_23/162.jpg,Experiments/experiment_23/163.jpg,430,1,2023-06-28_11h29.19.969,Occlusion_Psychophysics,2022.1.4,Win32,59.94125757,,,left,"[""left""]",[0.627200000047651],False,,0.0,0.0,40.0,40.0,40.0,1.0,,,,,,
,,,,,,,,,,,,,,,,,,,,,0.025,,,,,,,,,,Stimuli/psy_flexible_rotation_30_objects_occ0.7_0.9s/images/train/n04405907_5/n02818832_0/img_samsung_40_uhd_smart_tv_2011_b03_the_sofa_and_chair_company_-_stanley_bed_2014_2003_gray.jpg,n04405907_5,n02818832_0,flexible,0.821935,n02818832_0,Stimuli/psy_flexible_rotation_30_objects_occ0.7_0.9s/images/train/n04405907_5/n02818832_0/img_samsung_40_uhd_smart_tv_2011_b03_the_sofa_and_chair_company_-_stanley_bed_2014_2003-3_gray.png,foreground,same as foreground,n04405907_5,n02818832_0,Stimuli/canonical view 2/img_n04405907_5_gray.jpg,Stimuli/canonical view 2/img_n02818832_0_gray.jpg,foreground,right,Experiments/experiment_23/164.jpg,Experiments/experiment_23/165.jpg,Experiments/experiment_23/166.jpg,Experiments/experiment_23/167.jpg,430,1,2023-06-28_11h29.19.969,Occlusion_Psychophysics,2022.1.4,Win32,59.94125757,,,right,"[""right""]",[0.6075000000000159],False,,0.0,0.0,41.0,41.0,41.0,1.0,,,,,,
,,,,,,,,,,,,,,,,,,,,,0.05,,,,,,,,,,Stimuli/psy_fixed_rotation_30_objects_occ0.7_0.9s/images/train/n04379243_0/n02883344_-1/img_17th_c._monastery_dining_table_2010_woven_box_2001_gray.jpg,n04379243_0,n02883344_-1,fixed,0.717356,n02818832_0,Stimuli/psy_fixed_rotation_30_objects_occ0.7_0.9s/images/train/n02933112_-2/n02818832_0/img_sink_base_white_wood_b03_the_sofa_and_chair_company_-_stanley_bed_2014_2000-3_gray.png,random,fixed,n04379243_0,n02883344_-1,Stimuli/canonical view 2/img_n04379243_0_gray.jpg,Stimuli/canonical view 2/img_n02883344_-1_gray.jpg,foreground,right,Experiments/experiment_23/168.jpg,Experiments/experiment_23/169.jpg,Experiments/experiment_23/170.jpg,Experiments/experiment_23/171.jpg,430,1,2023-06-28_11h29.19.969,Occlusion_Psychophysics,2022.1.4,Win32,59.94125757,,,right,"[""right""]",[0.517799999952274],False,,0.0,0.0,42.0,42.0,42.0,1.0,,,,,,
,,,,,,,,,,,,,,,,,,,,,0.025,,,,,,,,,,Stimuli/psy_flexible_rotation_30_objects_occ0.7_0.9s/images/train/n04256520_5/n03928116_0/img_meridiani_belmondo_bench_sofa_b02_piano_2012_gray.jpg,n04256520_5,n03928116_0,flexible,0.826196,n03928116_0,Stimuli/psy_flexible_rotation_30_objects_occ0.7_0.9s/images/train/n04256520_5/n03928116_0/img_meridiani_belmondo_bench_sofa_b02_piano_2012-3_gray.png,foreground,same as foreground,n04256520_5,n03001627_-2,Stimuli/canonical view 2/img_n04256520_5_gray.jpg,Stimuli/canonical view 2/img_n03001627_-2_gray.jpg,random,left,Experiments/experiment_23/172.jpg,Experiments/experiment_23/173.jpg,Experiments/experiment_23/174.jpg,Experiments/experiment_23/175.jpg,430,1,2023-06-28_11h29.19.969,Occlusion_Psychophysics,2022.1.4,Win32,59.94125757,,,left,"[""left""]",[0.6870999999046603],False,,0.0,0.0,43.0,43.0,43.0,1.0,,,,,,
,,,,,,,,,,,,,,,,,,,,,0.05,,,,,,,,,,Stimuli/psy_flexible_rotation_30_objects_occ0.7_0.9s/images/train/n04256520_9/n02818832_9/img_napoleon_iii_sofa_bed01_blue_2007_gray.jpg,n04256520_9,n02818832_9,flexible,0.751718,n02818832_9,Stimuli/psy_flexible_rotation_30_objects_occ0.7_0.9s/images/train/n04256520_9/n02818832_9/img_napoleon_iii_sofa_bed01_blue_2007-3_gray.png,foreground,same as foreground,n04256520_9,n02883344_15,Stimuli/canonical view 2/img_n04256520_9_gray.jpg,Stimuli/canonical view 2/img_n02883344_15_gray.jpg,random,right,Experiments/experiment_23/176.jpg,Experiments/experiment_23/177.jpg,Experiments/experiment_23/178.jpg,Experiments/experiment_23/179.jpg,430,1,2023-06-28_11h29.19.969,Occlusion_Psychophysics,2022.1.4,Win32,59.94125757,,,right,"[""right""]",[0.5702000000476914],True,right,1.0,0.0,44.0,44.0,44.0,1.0,0.6368,,,,,
,,,,,,,,,,,,,,,,,,,,,0.05,,,,,,,,,,Stimuli/psy_fixed_rotation_30_objects_occ0.7_0.9s/images/train/n02828884_3/n02818832_3/img_b04_wood_metal_park_bench_b05_ccm_contemporary_bed_max2013_2008_gray.jpg,n02828884_3,n02818832_3,fixed,0.7592,n02818832_3,Stimuli/psy_fixed_rotation_30_objects_occ0.7_0.9s/images/train/n02828884_3/n02818832_3/img_b04_wood_metal_park_bench_b05_ccm_contemporary_bed_max2013_2008-3_gray.png,foreground,same as foreground,n02828884_3,n04405907_9,Stimuli/canonical view 2/img_n02828884_3_gray.jpg,Stimuli/canonical view 2/img_n04405907_9_gray.jpg,random,left,Experiments/experiment_23/180.jpg,Experiments/experiment_23/181.jpg,Experiments/experiment_23/182.jpg,Experiments/experiment_23/183.jpg,430,1,2023-06-28_11h29.19.969,Occlusion_Psychophysics,2022.1.4,Win32,59.94125757,,,left,"[""left""]",[0.5794999999999959],False,,0.0,0.0,45.0,45.0,45.0,1.0,,,,,,
,,,,,,,,,,,,,,,,,,,,,0.025,,,,,,,,,,Stimuli/psy_fixed_rotation_30_objects_occ0.7_0.9s/images/train/n02818832_0/n02933112_4/img_b03_the_sofa_and_chair_company_-_stanley_bed_2014_buffet_2003_gray.jpg,n02818832_0,n02933112_4,fixed,0.782059,n02933112_4,Stimuli/psy_fixed_rotation_30_objects_occ0.7_0.9s/images/train/n02818832_0/n02933112_4/img_b03_the_sofa_and_chair_company_-_stanley_bed_2014_buffet_2003-3_gray.png,foreground,same as foreground,n02818832_0,n02933112_4,Stimuli/canonical view 2/img_n02818832_0_gray.jpg,Stimuli/canonical view 2/img_n02933112_4_gray.jpg,foreground,right,Experiments/experiment_23/184.jpg,Experiments/experiment_23/185.jpg,Experiments/experiment_23/186.jpg,Experiments/experiment_23/187.jpg,430,1,2023-06-28_11h29.19.969,Occlusion_Psychophysics,2022.1.4,Win32,59.94125757,,,left,"[""left""]",[0.6533000000715106],False,,0.0,0.0,46.0,46.0,46.0,1.0,,,,,,
,,,,,,,,,,,,,,,,,,,,,0.05,,,,,,,,,,Stimuli/psy_fixed_rotation_30_objects_occ0.7_0.9s/images/train/n04405907_9/n04256520_4/img_vray_004_club_house_italia_nautilus_sofa_2014_gray.jpg,n04405907_9,n04256520_4,fixed,0.743277,n04256520_4,Stimuli/psy_fixed_rotation_30_objects_occ0.7_0.9s/images/train/n04405907_9/n04256520_4/img_vray_004_club_house_italia_nautilus_sofa_2014-3_gray.png,foreground,same as foreground,n04405907_9,n03928116_4,Stimuli/canonical view 2/img_n04405907_9_gray.jpg,Stimuli/canonical view 2/img_n03928116_4_gray.jpg,random,right,Experiments/experiment_23/188.jpg,Experiments/experiment_23/189.jpg,Experiments/experiment_23/190.jpg,Experiments/experiment_23/191.jpg,430,1,2023-06-28_11h29.19.969,Occlusion_Psychophysics,2022.1.4,Win32,59.94125757,,,right,"[""right""]",[0.719799999952329],False,,0.0,0.0,47.0,47.0,47.0,1.0,,,,,,
,,,,,,,,,,,,,,,,,,,,,0.05,,,,,,,,,,Stimuli/psy_flexible_rotation_30_objects_occ0.7_0.9s/images/train/n04256520_9/n02933112_-2/img_napoleon_iii_sofa_sink_base_white_wood_2012_gray.jpg,n04256520_9,n02933112_-2,flexible,0.735136,n02933112_-2,Stimuli/psy_flexible_rotation_30_objects_occ0.7_0.9s/images/train/n04256520_9/n02933112_-2/img_napoleon_iii_sofa_sink_base_white_wood_2012-3_gray.png,foreground,same as foreground,n04256520_9,n04379243_-7,Stimuli/canonical view 2/img_n04256520_9_gray.jpg,Stimuli/canonical view 2/img_n04379243_-7_gray.jpg,random,left,Experiments/experiment_23/192.jpg,Experiments/experiment_23/193.jpg,Experiments/experiment_23/194.jpg,Experiments/experiment_23/195.jpg,430,1,2023-06-28_11h29.19.969,Occlusion_Psychophysics,2022.1.4,Win32,59.94125757,,,left,"[""left""]",[0.5970000000000368],False,,0.0,0.0,48.0,48.0,48.0,1.0,,,,,,
,,,,,,,,,,,,,,,,,,,,,0.025,,,,,,,,,,Stimuli/psy_fixed_rotation_30_objects_occ0.7_0.9s/images/train/n03928116_4/n02818832_3/img_dp_33_b_2013__vray_b05_ccm_contemporary_bed_max2013_2004_gray.jpg,n03928116_4,n02818832_3,fixed,0.728103,n02818832_3,Stimuli/psy_fixed_rotation_30_objects_occ0.7_0.9s/images/train/n03928116_4/n02818832_3/img_dp_33_b_2013__vray_b05_ccm_contemporary_bed_max2013_2004-3_gray.png,foreground,same as foreground,n03928116_4,n02818832_3,Stimuli/canonical view 2/img_n03928116_4_gray.jpg,Stimuli/canonical view 2/img_n02818832_3_gray.jpg,foreground,right,Experiments/experiment_23/196.jpg,Experiments/experiment_23/197.jpg,Experiments/experiment_23/198.jpg,Experiments/experiment_23/199.jpg,430,1,2023-06-28_11h29.19.969,Occlusion_Psychophysics,2022.1.4,Win32,59.94125757,,,left,"[""right""]",[0.6030000000000086],False,,0.0,0.0,49.0,49.0,49.0,1.0,,,,,,
,,,,,,,,,,,,,,,,,,,,,0.025,,,,,,,,,,Stimuli/psy_fixed_rotation_30_objects_occ0.7_0.9s/images/train/n04379243_-7/n02818832_0/img_quatre_dining_table_b03_the_sofa_and_chair_company_-_stanley_bed_2014_2002_gray.jpg,n04379243_-7,n02818832_0,fixed,0.733004,n02933112_4,Stimuli/psy_fixed_rotation_30_objects_occ0.7_0.9s/images/train/n02933112_-18/n02933112_4/img_cgaxis_models_48_26_vray_composite_buffet_2003-3_gray.png,random,fixed,n04379243_-7,n02818832_0,Stimuli/canonical view 2/img_n04379243_-7_gray.jpg,Stimuli/canonical view 2/img_n02818832_0_gray.jpg,foreground,left,Experiments/experiment_23/200.jpg,Experiments/experiment_23/201.jpg,Experiments/experiment_23/202.jpg,Experiments/experiment_23/203.jpg,430,1,2023-06-28_11h29.19.969,Occlusion_Psychophysics,2022.1.4,Win32,59.94125757,,,right,"[""right""]",[0.5108000000715833],False,,0.0,0.0,50.0,50.0,50.0,1.0,,,,,,
,,,,,,,,,,,,,,,,,,,,,0.05,,,,,,,,,,Stimuli/psy_fixed_rotation_30_objects_occ0.7_0.9s/images/train/n04379243_-7/n02933112_-2/img_quatre_dining_table_sink_base_white_wood_2002_gray.jpg,n04379243_-7,n02933112_-2,fixed,0.704948,n02883344_-1,Stimuli/psy_flexible_rotation_30_objects_occ0.7_0.9s/images/train/n02818832_0/n02883344_-1/img_b03_the_sofa_and_chair_company_-_stanley_bed_2014_woven_box_2007-3_gray.png,random,flexible,n04379243_-7,n02933112_-18,Stimuli/canonical view 2/img_n04379243_-7_gray.jpg,Stimuli/canonical view 2/img_n02933112_-18_gray.jpg,random,right,Experiments/experiment_23/204.jpg,Experiments/experiment_23/205.jpg,Experiments/experiment_23/206.jpg,Experiments/experiment_23/207.jpg,430,1,2023-06-28_11h29.19.969,Occlusion_Psychophysics,2022.1.4,Win32,59.94125757,,,left,"[""left""]",[0.5363000000714919],False,,0.0,0.0,51.0,51.0,51.0,1.0,,,,,,
,,,,,,,,,,,,,,,,,,,,,0.025,,,,,,,,,,Stimuli/psy_fixed_rotation_30_objects_occ0.7_0.9s/images/train/n04405907_8/n02883344_15/img_stylized_tv_microwave_box_2003_gray.jpg,n04405907_8,n02883344_15,fixed,0.781929,n02883344_0,Stimuli/psy_fixed_rotation_30_objects_occ0.7_0.9s/images/train/n02933112_4/n02883344_0/img_buffet_b03_box_2013-3_gray.png,random,fixed,n04405907_8,n02933112_-2,Stimuli/canonical view 2/img_n04405907_8_gray.jpg,Stimuli/canonical view 2/img_n02933112_-2_gray.jpg,random,right,Experiments/experiment_23/208.jpg,Experiments/experiment_23/209.jpg,Experiments/experiment_23/210.jpg,Experiments/experiment_23/211.jpg,430,1,2023-06-28_11h29.19.969,Occlusion_Psychophysics,2022.1.4,Win32,59.94125757,,,right,"[""right""]",[0.8233999999761181],False,,0.0,0.0,52.0,52.0,52.0,1.0,,,,,,
,,,,,,,,,,,,,,,,,,,,,0.025,,,,,,,,,,Stimuli/psy_flexible_rotation_30_objects_occ0.7_0.9s/images/train/n02818832_0/n04379243_0/img_b03_the_sofa_and_chair_company_-_stanley_bed_2014_17th_c._monastery_dining_table_2010_2000_gray.jpg,n02818832_0,n04379243_0,flexible,0.76425,n02933112_-18,Stimuli/psy_flexible_rotation_30_objects_occ0.7_0.9s/images/train/n04070727_3/n02933112_-18/img_b05_db_apps_tech_06_02_2_composite_cgaxis_models_48_26_vray_composite_2000-3_gray.png,random,flexible,n02818832_0,n02883344_15,Stimuli/canonical view 2/img_n02818832_0_gray.jpg,Stimuli/canonical view 2/img_n02883344_15_gray.jpg,random,right,Experiments/experiment_23/212.jpg,Experiments/experiment_23/213.jpg,Experiments/experiment_23/214.jpg,Experiments/experiment_23/215.jpg,430,1,2023-06-28_11h29.19.969,Occlusion_Psychophysics,2022.1.4,Win32,59.94125757,,,right,"[""right""]",[0.7391000000237682],False,,0.0,0.0,53.0,53.0,53.0,1.0,,,,,,
,,,,,,,,,,,,,,,,,,,,,0.05,,,,,,,,,,Stimuli/psy_flexible_rotation_30_objects_occ0.7_0.9s/images/train/n02883344_-1/n03928116_4/img_woven_box_dp_33_b_2013__vray_2000_gray.jpg,n02883344_-1,n03928116_4,flexible,0.782468,n02818832_3,Stimuli/psy_fixed_rotation_30_objects_occ0.7_0.9s/images/train/n04379243_8/n02818832_3/img_glass_table_b05_ccm_contemporary_bed_max2013_2002-3_gray.png,random,fixed,n02883344_-1,n03928116_4,Stimuli/canonical view 2/img_n02883344_-1_gray.jpg,Stimuli/canonical view 2/img_n03928116_4_gray.jpg,foreground,left,Experiments/experiment_23/216.jpg,Experiments/experiment_23/217.jpg,Experiments/experiment_23/218.jpg,Experiments/experiment_23/219.jpg,430,1,2023-06-28_11h29.19.969,Occlusion_Psychophysics,2022.1.4,Win32,59.94125757,,,left,"[""right""]",[0.7062000000477155],False,,0.0,0.0,54.0,54.0,54.0,1.0,,,,,,
,,,,,,,,,,,,,,,,,,,,,0.05,,,,,,,,,,Stimuli/psy_flexible_rotation_30_objects_occ0.7_0.9s/images/train/n04405907_5/n02818832_9/img_samsung_40_uhd_smart_tv_2011_bed01_blue_2009_gray.jpg,n04405907_5,n02818832_9,flexible,0.812288,n03928116_0,Stimuli/psy_flexible_rotation_30_objects_occ0.7_0.9s/images/train/n02818832_0/n03928116_0/img_b03_the_sofa_and_chair_company_-_stanley_bed_2014_b02_piano_2000-3_gray.png,random,flexible,n04405907_5,n02828884_4,Stimuli/canonical view 2/img_n04405907_5_gray.jpg,Stimuli/canonical view 2/img_n02828884_4_gray.jpg,random,left,Experiments/experiment_23/220.jpg,Experiments/experiment_23/221.jpg,Experiments/experiment_23/222.jpg,Experiments/experiment_23/223.jpg,430,1,2023-06-28_11h29.19.969,Occlusion_Psychophysics,2022.1.4,Win32,59.94125757,,,left,"[""left""]",[0.6592000000476901],False,,0.0,0.0,55.0,55.0,55.0,1.0,,,,,,
,,,,,,,,,,,,,,,,,,,,,0.025,,,,,,,,,,Stimuli/psy_flexible_rotation_30_objects_occ0.7_0.9s/images/train/n04405907_9/n02883344_0/img_vray_004_b03_box_2007_gray.jpg,n04405907_9,n02883344_0,flexible,0.77105,n02883344_0,Stimuli/psy_flexible_rotation_30_objects_occ0.7_0.9s/images/train/n04405907_9/n02883344_0/img_vray_004_b03_box_2007-3_gray.png,foreground,same as foreground,n04405907_9,n04256520_9,Stimuli/canonical view 2/img_n04405907_9_gray.jpg,Stimuli/canonical view 2/img_n04256520_9_gray.jpg,random,right,Experiments/experiment_23/224.jpg,Experiments/experiment_23/225.jpg,Experiments/experiment_23/226.jpg,Experiments/experiment_23/227.jpg,430,1,2023-06-28_11h29.19.969,Occlusion_Psychophysics,2022.1.4,Win32,59.94125757,,,left,"[""left""]",[0.6866000000237591],False,,0.0,0.0,56.0,56.0,56.0,1.0,,,,,,
,,,,,,,,,,,,,,,,,,,,,0.025,,,,,,,,,,Stimuli/psy_fixed_rotation_30_objects_occ0.7_0.9s/images/train/n03928116_0/n02828884_3/img_b02_piano_b04_wood_metal_park_bench_2004_gray.jpg,n03928116_0,n02828884_3,fixed,0.844977,n02828884_3,Stimuli/psy_fixed_rotation_30_objects_occ0.7_0.9s/images/train/n03928116_0/n02828884_3/img_b02_piano_b04_wood_metal_park_bench_2004-3_gray.png,foreground,same as foreground,n03928116_0,n02828884_3,Stimuli/canonical view 2/img_n03928116_0_gray.jpg,Stimuli/canonical view 2/img_n02828884_3_gray.jpg,foreground,right,Experiments/experiment_23/228.jpg,Experiments/experiment_23/229.jpg,Experiments/experiment_23/230.jpg,Experiments/experiment_23/231.jpg,430,1,2023-06-28_11h29.19.969,Occlusion_Psychophysics,2022.1.4,Win32,59.94125757,,,left,"[""right""]",[1.0476999999284544],False,,0.0,0.0,57.0,57.0,57.0,1.0,,,,,,
,,,,,,,,,,,,,,,,,,,,,0.025,,,,,,,,,,Stimuli/psy_fixed_rotation_30_objects_occ0.7_0.9s/images/train/n02933112_4/n03928116_0/img_buffet_b02_piano_2008_gray.jpg,n02933112_4,n03928116_0,fixed,0.83044,n04405907_8,Stimuli/psy_fixed_rotation_30_objects_occ0.7_0.9s/images/train/n04256520_4/n04405907_8/img_club_house_italia_nautilus_sofa_stylized_tv_2006-3_gray.png,random,fixed,n02933112_4,n04379243_-7,Stimuli/canonical view 2/img_n02933112_4_gray.jpg,Stimuli/canonical view 2/img_n04379243_-7_gray.jpg,random,left,Experiments/experiment_23/232.jpg,Experiments/experiment_23/233.jpg,Experiments/experiment_23/234.jpg,Experiments/experiment_23/235.jpg,430,1,2023-06-28_11h29.19.969,Occlusion_Psychophysics,2022.1.4,Win32,59.94125757,,,right,"[""right""]",[0.9636000000238027],False,,0.0,0.0,58.0,58.0,58.0,1.0,,,,,,
,,,,,,,,,,,,,,,,,,,,,0.025,,,,,,,,,,Stimuli/psy_flexible_rotation_30_objects_occ0.7_0.9s/images/train/n04379243_0/n03928116_10/img_17th_c._monastery_dining_table_2010_ydp_103_r_2012__vray_2002_gray.jpg,n04379243_0,n03928116_10,flexible,0.745153,n03928116_10,Stimuli/psy_flexible_rotation_30_objects_occ0.7_0.9s/images/train/n04379243_0/n03928116_10/img_17th_c._monastery_dining_table_2010_ydp_103_r_2012__vray_2002-3_gray.png,foreground,same as foreground,n04379243_0,n03928116_10,Stimuli/canonical view 2/img_n04379243_0_gray.jpg,Stimuli/canonical view 2/img_n03928116_10_gray.jpg,foreground,left,Experiments/experiment_23/236.jpg,Experiments/experiment_23/237.jpg,Experiments/experiment_23/238.jpg,Experiments/experiment_23/239.jpg,430,1,2023-06-28_11h29.19.969,Occlusion_Psychophysics,2022.1.4,Win32,59.94125757,,,right,"[""right""]",[0.5382999999524145],False,,0.0,0.0,59.0,59.0,59.0,1.0,,,,,,
,,,,,,,,,,,,,,,,,,,,,0.05,,,,,,,,,,Stimuli/psy_fixed_rotation_30_objects_occ0.7_0.9s/images/train/n02883344_0/n02933112_-18/img_b03_box_cgaxis_models_48_26_vray_composite_2007_gray.jpg,n02883344_0,n02933112_-18,fixed,0.809464,n02933112_-18,Stimuli/psy_fixed_rotation_30_objects_occ0.7_0.9s/images/train/n02883344_0/n02933112_-18/img_b03_box_cgaxis_models_48_26_vray_composite_2007-3_gray.png,foreground,same as foreground,n02883344_0,n02933112_-18,Stimuli/canonical view 2/img_n02883344_0_gray.jpg,Stimuli/canonical view 2/img_n02933112_-18_gray.jpg,foreground,left,Experiments/experiment_23/240.jpg,Experiments/experiment_23/241.jpg,Experiments/experiment_23/242.jpg,Experiments/experiment_23/243.jpg,430,1,2023-06-28_11h29.19.969,Occlusion_Psychophysics,2022.1.4,Win32,59.94125757,,,left,"[""left""]",[0.7133999999762182],False,,0.0,0.0,60.0,60.0,60.0,1.0,,,,,,
,,,,,,,,,,,,,,,,,,,,,0.05,,,,,,,,,,Stimuli/psy_fixed_rotation_30_objects_occ0.7_0.9s/images/train/n02818832_9/n04256520_9/img_bed01_blue_napoleon_iii_sofa_2004_gray.jpg,n02818832_9,n04256520_9,fixed,0.802263,n04256520_4,Stimuli/psy_flexible_rotation_30_objects_occ0.7_0.9s/images/train/n04405907_5/n04256520_4/img_samsung_40_uhd_smart_tv_2011_club_house_italia_nautilus_sofa_2010-3_gray.png,random,flexible,n02818832_9,n04256520_9,Stimuli/canonical view 2/img_n02818832_9_gray.jpg,Stimuli/canonical view 2/img_n04256520_9_gray.jpg,foreground,left,Experiments/experiment_23/244.jpg,Experiments/experiment_23/245.jpg,Experiments/experiment_23/246.jpg,Experiments/experiment_23/247.jpg,430,1,2023-06-28_11h29.19.969,Occlusion_Psychophysics,2022.1.4,Win32,59.94125757,,,left,"[""right""]",[0.9539000000953592],False,,0.0,0.0,61.0,61.0,61.0,1.0,,,,,,
,,,,,,,,,,,,,,,,,,,,,0.05,,,,,,,,,,Stimuli/psy_fixed_rotation_30_objects_occ0.7_0.9s/images/train/n03001627_9/n03928116_0/img_chair_eames_plastic_armchair_b02_piano_2001_gray.jpg,n03001627_9,n03928116_0,fixed,0.816057,n03928116_0,Stimuli/psy_fixed_rotation_30_objects_occ0.7_0.9s/images/train/n03001627_9/n03928116_0/img_chair_eames_plastic_armchair_b02_piano_2001-3_gray.png,foreground,same as foreground,n03001627_9,n03928116_0,Stimuli/canonical view 2/img_n03001627_9_gray.jpg,Stimuli/canonical view 2/img_n03928116_0_gray.jpg,foreground,left,Experiments/experiment_23/248.jpg,Experiments/experiment_23/249.jpg,Experiments/experiment_23/250.jpg,Experiments/experiment_23/251.jpg,430,1,2023-06-28_11h29.19.969,Occlusion_Psychophysics,2022.1.4,Win32,59.94125757,,,right,"[""right""]",[0.9457000000477365],False,,0.0,0.0,62.0,62.0,62.0,1.0,,,,,,
,,,,,,,,,,,,,,,,,,,,,0.025,,,,,,,,,,Stimuli/psy_fixed_rotation_30_objects_occ0.7_0.9s/images/train/n02933112_4/n04405907_5/img_buffet_samsung_40_uhd_smart_tv_2011_2013_gray.jpg,n02933112_4,n04405907_5,fixed,0.765001,n02883344_15,Stimuli/psy_flexible_rotation_30_objects_occ0.7_0.9s/images/train/n04256520_5/n02883344_15/img_meridiani_belmondo_bench_sofa_microwave_box_2009-3_gray.png,random,flexible,n02933112_4,n03001627_-2,Stimuli/canonical view 2/img_n02933112_4_gray.jpg,Stimuli/canonical view 2/img_n03001627_-2_gray.jpg,random,left,Experiments/experiment_23/252.jpg,Experiments/experiment_23/253.jpg,Experiments/experiment_23/254.jpg,Experiments/experiment_23/255.jpg,430,1,2023-06-28_11h29.19.969,Occlusion_Psychophysics,2022.1.4,Win32,59.94125757,,,right,"[""right""]",[0.67349999999999],False,,0.0,0.0,63.0,63.0,63.0,1.0,,,,,,
,,,,,,,,,,,,,,,,,,,,,0.025,,,,,,,,,,Stimuli/psy_flexible_rotation_30_objects_occ0.7_0.9s/images/train/n02818832_0/n04379243_0/img_b03_the_sofa_and_chair_company_-_stanley_bed_2014_17th_c._monastery_dining_table_2010_2008_gray.jpg,n02818832_0,n04379243_0,flexible,0.81238,n02828884_3,Stimuli/psy_flexible_rotation_30_objects_occ0.7_0.9s/images/train/n02828884_4/n02828884_3/img_b05_c-5_classic_series_bench-2012_b04_wood_metal_park_bench_2014-3_gray.png,random,flexible,n02818832_0,n04405907_8,Stimuli/canonical view 2/img_n02818832_0_gray.jpg,Stimuli/canonical view 2/img_n04405907_8_gray.jpg,random,right,Experiments/experiment_23/256.jpg,Experiments/experiment_23/257.jpg,Experiments/experiment_23/258.jpg,Experiments/experiment_23/259.jpg,430,1,2023-06-28_11h29.19.969,Occlusion_Psychophysics,2022.1.4,Win32,59.94125757,,,left,"[""right""]",[1.58660000002385],False,,0.0,0.0,64.0,64.0,64.0,1.0,,,,,,
,,,,,,,,,,,,,,,,,,,,,0.025,,,,,,,,,,Stimuli/psy_fixed_rotation_30_objects_occ0.7_0.9s/images/train/n03928116_0/n04405907_9/img_b02_piano_vray_004_2002_gray.jpg,n03928116_0,n04405907_9,fixed,0.732356,n04405907_9,Stimuli/psy_fixed_rotation_30_objects_occ0.7_0.9s/images/train/n03928116_0/n04405907_9/img_b02_piano_vray_004_2002-3_gray.png,foreground,same as foreground,n03928116_0,n02933112_4,Stimuli/canonical view 2/img_n03928116_0_gray.jpg,Stimuli/canonical view 2/img_n02933112_4_gray.jpg,random,right,Experiments/experiment_23/260.jpg,Experiments/experiment_23/261.jpg,Experiments/experiment_23/262.jpg,Experiments/experiment_23/263.jpg,430,1,2023-06-28_11h29.19.969,Occlusion_Psychophysics,2022.1.4,Win32,59.94125757,,,right,"[""right""]",[0.5532999999522872],False,,0.0,0.0,65.0,65.0,65.0,1.0,,,,,,
,,,,,,,,,,,,,,,,,,,,,0.025,,,,,,,,,,Stimuli/psy_flexible_rotation_30_objects_occ0.7_0.9s/images/train/n02933112_-18/n02933112_4/img_cgaxis_models_48_26_vray_composite_buffet_2015_gray.jpg,n02933112_-18,n02933112_4,flexible,0.71374,n02933112_4,Stimuli/psy_flexible_rotation_30_objects_occ0.7_0.9s/images/train/n02933112_-18/n02933112_4/img_cgaxis_models_48_26_vray_composite_buffet_2015-3_gray.png,foreground,same as foreground,n02933112_-18,n02933112_4,Stimuli/canonical view 2/img_n02933112_-18_gray.jpg,Stimuli/canonical view 2/img_n02933112_4_gray.jpg,foreground,right,Experiments/experiment_23/264.jpg,Experiments/experiment_23/265.jpg,Experiments/experiment_23/266.jpg,Experiments/experiment_23/267.jpg,430,1,2023-06-28_11h29.19.969,Occlusion_Psychophysics,2022.1.4,Win32,59.94125757,,,right,"[""right""]",[1.1912000000476155],False,,0.0,0.0,66.0,66.0,66.0,1.0,,,,,,
,,,,,,,,,,,,,,,,,,,,,0.025,,,,,,,,,,Stimuli/psy_fixed_rotation_30_objects_occ0.7_0.9s/images/train/n02828884_3/n04405907_5/img_b04_wood_metal_park_bench_samsung_40_uhd_smart_tv_2011_2003_gray.jpg,n02828884_3,n04405907_5,fixed,0.844621,n02828884_3,Stimuli/psy_flexible_rotation_30_objects_occ0.7_0.9s/images/train/n04379243_-7/n02828884_3/img_quatre_dining_table_b04_wood_metal_park_bench_2013-3_gray.png,random,flexible,n02828884_3,n04405907_5,Stimuli/canonical view 2/img_n02828884_3_gray.jpg,Stimuli/canonical view 2/img_n04405907_5_gray.jpg,foreground,left,Experiments/experiment_23/268.jpg,Experiments/experiment_23/269.jpg,Experiments/experiment_23/270.jpg,Experiments/experiment_23/271.jpg,430,1,2023-06-28_11h29.19.969,Occlusion_Psychophysics,2022.1.4,Win32,59.94125757,,,right,"[""right""]",[0.7183999999762136],False,,0.0,0.0,67.0,67.0,67.0,1.0,,,,,,
,,,,,,,,,,,,,,,,,,,,,0.025,,,,,,,,,,Stimuli/psy_flexible_rotation_30_objects_occ0.7_0.9s/images/train/n02828884_3/n03928116_10/img_b04_wood_metal_park_bench_ydp_103_r_2012__vray_2005_gray.jpg,n02828884_3,n03928116_10,flexible,0.739154,n03928116_10,Stimuli/psy_flexible_rotation_30_objects_occ0.7_0.9s/images/train/n02828884_3/n03928116_10/img_b04_wood_metal_park_bench_ydp_103_r_2012__vray_2005-3_gray.png,foreground,same as foreground,n02828884_3,n03928116_10,Stimuli/canonical view 2/img_n02828884_3_gray.jpg,Stimuli/canonical view 2/img_n03928116_10_gray.jpg,foreground,right,Experiments/experiment_23/272.jpg,Experiments/experiment_23/273.jpg,Experiments/experiment_23/274.jpg,Experiments/experiment_23/275.jpg,430,1,2023-06-28_11h29.19.969,Occlusion_Psychophysics,2022.1.4,Win32,59.94125757,,,left,"[""left""]",[0.5974999999999682],False,,0.0,0.0,68.0,68.0,68.0,1.0,,,,,,
,,,,,,,,,,,,,,,,,,,,,0.05,,,,,,,,,,Stimuli/psy_fixed_rotation_30_objects_occ0.7_0.9s/images/train/n04379243_8/n02828884_4/img_glass_table_b05_c-5_classic_series_bench-2012_2015_gray.jpg,n04379243_8,n02828884_4,fixed,0.723579,n02818832_3,Stimuli/psy_fixed_rotation_30_objects_occ0.7_0.9s/images/train/n04405907_9/n02818832_3/img_vray_004_b05_ccm_contemporary_bed_max2013_2001-3_gray.png,random,fixed,n04379243_8,n03928116_4,Stimuli/canonical view 2/img_n04379243_8_gray.jpg,Stimuli/canonical view 2/img_n03928116_4_gray.jpg,random,left,Experiments/experiment_23/276.jpg,Experiments/experiment_23/277.jpg,Experiments/experiment_23/278.jpg,Experiments/experiment_23/279.jpg,430,1,2023-06-28_11h29.19.969,Occlusion_Psychophysics,2022.1.4,Win32,59.94125757,,,left,"[""left""]",[0.5872000000476874],False,,0.0,0.0,69.0,69.0,69.0,1.0,,,,,,
,,,,,,,,,,,,,,,,,,,,,0.025,,,,,,,,,,Stimuli/psy_flexible_rotation_30_objects_occ0.7_0.9s/images/train/n02818832_9/n04379243_0/img_bed01_blue_17th_c._monastery_dining_table_2010_2012_gray.jpg,n02818832_9,n04379243_0,flexible,0.715667,n04379243_0,Stimuli/psy_flexible_rotation_30_objects_occ0.7_0.9s/images/train/n02818832_9/n04379243_0/img_bed01_blue_17th_c._monastery_dining_table_2010_2012-3_gray.png,foreground,same as foreground,n02818832_9,n02933112_-2,Stimuli/canonical view 2/img_n02818832_9_gray.jpg,Stimuli/canonical view 2/img_n02933112_-2_gray.jpg,random,right,Experiments/experiment_23/280.jpg,Experiments/experiment_23/281.jpg,Experiments/experiment_23/282.jpg,Experiments/experiment_23/283.jpg,430,1,2023-06-28_11h29.19.969,Occlusion_Psychophysics,2022.1.4,Win32,59.94125757,,,right,"[""right""]",[1.0398999999761145],False,,0.0,0.0,70.0,70.0,70.0,1.0,,,,,,
,,,,,,,,,,,,,,,,,,,,,0.05,,,,,,,,,,Stimuli/psy_flexible_rotation_30_objects_occ0.7_0.9s/images/train/n03928116_10/n02828884_3/img_ydp_103_r_2012__vray_b04_wood_metal_park_bench_2001_gray.jpg,n03928116_10,n02828884_3,flexible,0.80927,n02828884_3,Stimuli/psy_flexible_rotation_30_objects_occ0.7_0.9s/images/train/n03928116_10/n02828884_3/img_ydp_103_r_2012__vray_b04_wood_metal_park_bench_2001-3_gray.png,foreground,same as foreground,n03928116_10,n02828884_3,Stimuli/canonical view 2/img_n03928116_10_gray.jpg,Stimuli/canonical view 2/img_n02828884_3_gray.jpg,foreground,left,Experiments/experiment_23/284.jpg,Experiments/experiment_23/285.jpg,Experiments/experiment_23/286.jpg,Experiments/experiment_23/287.jpg,430,1,2023-06-28_11h29.19.969,Occlusion_Psychophysics,2022.1.4,Win32,59.94125757,,,left,"[""left""]",[0.6523999999761827],False,,0.0,0.0,71.0,71.0,71.0,1.0,,,,,,
,,,,,,,,,,,,,,,,,,,,,0.025,,,,,,,,,,Stimuli/psy_flexible_rotation_30_objects_occ0.7_0.9s/images/train/n02828884_4/n04405907_8/img_b05_c-5_classic_series_bench-2012_stylized_tv_2010_gray.jpg,n02828884_4,n04405907_8,flexible,0.716842,n04379243_-7,Stimuli/psy_flexible_rotation_30_objects_occ0.7_0.9s/images/train/n02883344_-1/n04379243_-7/img_woven_box_quatre_dining_table_2008-3_gray.png,random,flexible,n02828884_4,n03001627_-2,Stimuli/canonical view 2/img_n02828884_4_gray.jpg,Stimuli/canonical view 2/img_n03001627_-2_gray.jpg,random,left,Experiments/experiment_23/288.jpg,Experiments/experiment_23/289.jpg,Experiments/experiment_23/290.jpg,Experiments/experiment_23/291.jpg,430,1,2023-06-28_11h29.19.969,Occlusion_Psychophysics,2022.1.4,Win32,59.94125757,,,right,"[""right""]",[0.8062999999523299],False,,0.0,0.0,72.0,72.0,72.0,1.0,,,,,,
,,,,,,,,,,,,,,,,,,,,,0.05,,,,,,,,,,Stimuli/psy_fixed_rotation_30_objects_occ0.7_0.9s/images/train/n04405907_9/n04256520_4/img_vray_004_club_house_italia_nautilus_sofa_2008_gray.jpg,n04405907_9,n04256520_4,fixed,0.831805,n02818832_0,Stimuli/psy_fixed_rotation_30_objects_occ0.7_0.9s/images/train/n02828884_4/n02818832_0/img_b05_c-5_classic_series_bench-2012_b03_the_sofa_and_chair_company_-_stanley_bed_2014_2000-3_gray.png,random,fixed,n04405907_9,n04256520_4,Stimuli/canonical view 2/img_n04405907_9_gray.jpg,Stimuli/canonical view 2/img_n04256520_4_gray.jpg,foreground,left,Experiments/experiment_23/292.jpg,Experiments/experiment_23/293.jpg,Experiments/experiment_23/294.jpg,Experiments/experiment_23/295.jpg,430,1,2023-06-28_11h29.19.969,Occlusion_Psychophysics,2022.1.4,Win32,59.94125757,,,left,"[""left""]",[0.8120000000000118],False,,0.0,0.0,73.0,73.0,73.0,1.0,,,,,,
,,,,,,,,,,,,,,,,,,,,,0.05,,,,,,,,,,Stimuli/psy_flexible_rotation_30_objects_occ0.7_0.9s/images/train/n04379243_-7/n03928116_10/img_quatre_dining_table_ydp_103_r_2012__vray_2008_gray.jpg,n04379243_-7,n03928116_10,flexible,0.71147,n04405907_8,Stimuli/psy_flexible_rotation_30_objects_occ0.7_0.9s/images/train/n04256520_4/n04405907_8/img_club_house_italia_nautilus_sofa_stylized_tv_2007-3_gray.png,random,flexible,n04379243_-7,n03928116_10,Stimuli/canonical view 2/img_n04379243_-7_gray.jpg,Stimuli/canonical view 2/img_n03928116_10_gray.jpg,foreground,right,Experiments/experiment_23/296.jpg,Experiments/experiment_23/297.jpg,Experiments/experiment_23/298.jpg,Experiments/experiment_23/299.jpg,430,1,2023-06-28_11h29.19.969,Occlusion_Psychophysics,2022.1.4,Win32,59.94125757,,,left,"[""left""]",[0.5603000000716065],False,,0.0,0.0,74.0,74.0,74.0,1.0,,,,,,
,,,,,,,,,,,,,,,,,,,,,0.05,,,,,,,,,,Stimuli/psy_flexible_rotation_30_objects_occ0.7_0.9s/images/train/n04379243_-7/n03928116_0/img_quatre_dining_table_b02_piano_2005_gray.jpg,n04379243_-7,n03928116_0,flexible,0.735079,n04256520_9,Stimuli/psy_flexible_rotation_30_objects_occ0.7_0.9s/images/train/n02828884_3/n04256520_9/img_b04_wood_metal_park_bench_napoleon_iii_sofa_2008-3_gray.png,random,flexible,n04379243_-7,n03928116_0,Stimuli/canonical view 2/img_n04379243_-7_gray.jpg,Stimuli/canonical view 2/img_n03928116_0_gray.jpg,foreground,left,Experiments/experiment_23/300.jpg,Experiments/experiment_23/301.jpg,Experiments/experiment_23/302.jpg,Experiments/experiment_23/303.jpg,430,1,2023-06-28_11h29.19.969,Occlusion_Psychophysics,2022.1.4,Win32,59.94125757,,,right,"[""right""]",[0.5848999999760736],False,,0.0,0.0,75.0,75.0,75.0,1.0,,,,,,
,,,,,,,,,,,,,,,,,,,,,0.025,,,,,,,,,,Stimuli/psy_flexible_rotation_30_objects_occ0.7_0.9s/images/train/n03928116_0/n04405907_5/img_b02_piano_samsung_40_uhd_smart_tv_2011_2009_gray.jpg,n03928116_0,n04405907_5,flexible,0.733147,n03928116_4,Stimuli/psy_fixed_rotation_30_objects_occ0.7_0.9s/images/train/n04379243_8/n03928116_4/img_glass_table_dp_33_b_2013__vray_2000-3_gray.png,random,fixed,n03928116_0,n04405907_5,Stimuli/canonical view 2/img_n03928116_0_gray.jpg,Stimuli/canonical view 2/img_n04405907_5_gray.jpg,foreground,right,Experiments/experiment_23/304.jpg,Experiments/experiment_23/305.jpg,Experiments/experiment_23/306.jpg,Experiments/experiment_23/307.jpg,430,1,2023-06-28_11h29.19.969,Occlusion_Psychophysics,2022.1.4,Win32,59.94125757,,,left,"[""left""]",[0.4846000000238746],False,,0.0,0.0,76.0,76.0,76.0,1.0,,,,,,
,,,,,,,,,,,,,,,,,,,,,0.05,,,,,,,,,,Stimuli/psy_flexible_rotation_30_objects_occ0.7_0.9s/images/train/n02818832_9/n04405907_5/img_bed01_blue_samsung_40_uhd_smart_tv_2011_2015_gray.jpg,n02818832_9,n04405907_5,flexible,0.730593,n04405907_5,Stimuli/psy_flexible_rotation_30_objects_occ0.7_0.9s/images/train/n02818832_9/n04405907_5/img_bed01_blue_samsung_40_uhd_smart_tv_2011_2015-3_gray.png,foreground,same as foreground,n02818832_9,n04405907_5,Stimuli/canonical view 2/img_n02818832_9_gray.jpg,Stimuli/canonical view 2/img_n04405907_5_gray.jpg,foreground,right,Experiments/experiment_23/308.jpg,Experiments/experiment_23/309.jpg,Experiments/experiment_23/310.jpg,Experiments/experiment_23/311.jpg,430,1,2023-06-28_11h29.19.969,Occlusion_Psychophysics,2022.1.4,Win32,59.94125757,,,left,"[""right""]",[0.6698000000715183],False,,0.0,0.0,77.0,77.0,77.0,1.0,,,,,,
,,,,,,,,,,,,,,,,,,,,,0.025,,,,,,,,,,Stimuli/psy_flexible_rotation_30_objects_occ0.7_0.9s/images/train/n03928116_4/n04379243_-7/img_dp_33_b_2013__vray_quatre_dining_table_2010_gray.jpg,n03928116_4,n04379243_-7,flexible,0.758516,n04405907_8,Stimuli/psy_flexible_rotation_30_objects_occ0.7_0.9s/images/train/n03001627_8/n04405907_8/img_chair_billiani_doll_stylized_tv_2003-3_gray.png,random,flexible,n03928116_4,n04379243_-7,Stimuli/canonical view 2/img_n03928116_4_gray.jpg,Stimuli/canonical view 2/img_n04379243_-7_gray.jpg,foreground,left,Experiments/experiment_23/312.jpg,Experiments/experiment_23/313.jpg,Experiments/experiment_23/314.jpg,Experiments/experiment_23/315.jpg,430,1,2023-06-28_11h29.19.969,Occlusion_Psychophysics,2022.1.4,Win32,59.94125757,,,left,"[""left""]",[0.7041999999285053],False,,0.0,0.0,78.0,78.0,78.0,1.0,,,,,,
,,,,,,,,,,,,,,,,,,,,,0.05,,,,,,,,,,Stimuli/psy_flexible_rotation_30_objects_occ0.7_0.9s/images/train/n03928116_0/n04405907_9/img_b02_piano_vray_004_2000_gray.jpg,n03928116_0,n04405907_9,flexible,0.758035,n04379243_-7,Stimuli/psy_flexible_rotation_30_objects_occ0.7_0.9s/images/train/n04405907_5/n04379243_-7/img_samsung_40_uhd_smart_tv_2011_quatre_dining_table_2014-3_gray.png,random,flexible,n03928116_0,n04405907_9,Stimuli/canonical view 2/img_n03928116_0_gray.jpg,Stimuli/canonical view 2/img_n04405907_9_gray.jpg,foreground,left,Experiments/experiment_23/316.jpg,Experiments/experiment_23/317.jpg,Experiments/experiment_23/318.jpg,Experiments/experiment_23/319.jpg,430,1,2023-06-28_11h29.19.969,Occlusion_Psychophysics,2022.1.4,Win32,59.94125757,,,right,"[""right""]",[0.5536999999285399],False,,0.0,0.0,79.0,79.0,79.0,1.0,,,,,,
,,,,,,,,,,,,,,,,,,,,,0.05,,,,,,,,,,Stimuli/psy_flexible_rotation_30_objects_occ0.7_0.9s/images/train/n04256520_4/n03928116_10/img_club_house_italia_nautilus_sofa_ydp_103_r_2012__vray_2008_gray.jpg,n04256520_4,n03928116_10,flexible,0.762333,n03928116_10,Stimuli/psy_flexible_rotation_30_objects_occ0.7_0.9s/images/train/n04256520_4/n03928116_10/img_club_house_italia_nautilus_sofa_ydp_103_r_2012__vray_2008-3_gray.png,foreground,same as foreground,n04256520_4,n03928116_4,Stimuli/canonical view 2/img_n04256520_4_gray.jpg,Stimuli/canonical view 2/img_n03928116_4_gray.jpg,random,right,Experiments/experiment_23/320.jpg,Experiments/experiment_23/321.jpg,Experiments/experiment_23/322.jpg,Experiments/experiment_23/323.jpg,430,1,2023-06-28_11h29.19.969,Occlusion_Psychophysics,2022.1.4,Win32,59.94125757,,,right,"[""right""]",[0.6716000000237727],False,,0.0,0.0,80.0,80.0,80.0,1.0,,,,,,
,,,,,,,,,,,,,,,,,,,,,0.025,,,,,,,,,,Stimuli/psy_fixed_rotation_30_objects_occ0.7_0.9s/images/train/n04256520_9/n02883344_15/img_napoleon_iii_sofa_microwave_box_2001_gray.jpg,n04256520_9,n02883344_15,fixed,0.794084,n02818832_0,Stimuli/psy_flexible_rotation_30_objects_occ0.7_0.9s/images/train/n04405907_5/n02818832_0/img_samsung_40_uhd_smart_tv_2011_b03_the_sofa_and_chair_company_-_stanley_bed_2014_2008-3_gray.png,random,flexible,n04256520_9,n02883344_15,Stimuli/canonical view 2/img_n04256520_9_gray.jpg,Stimuli/canonical view 2/img_n02883344_15_gray.jpg,foreground,left,Experiments/experiment_23/324.jpg,Experiments/experiment_23/325.jpg,Experiments/experiment_23/326.jpg,Experiments/experiment_23/327.jpg,430,1,2023-06-28_11h29.19.969,Occlusion_Psychophysics,2022.1.4,Win32,59.94125757,,,right,"[""right""]",[0.6739999999999782],True,left,1.0,0.0,81.0,81.0,81.0,1.0,0.7079,,,,,
,,,,,,,,,,,,,,,,,,,,,0.025,,,,,,,,,,Stimuli/psy_flexible_rotation_30_objects_occ0.7_0.9s/images/train/n04379243_8/n02883344_15/img_glass_table_microwave_box_2009_gray.jpg,n04379243_8,n02883344_15,flexible,0.779233,n04256520_4,Stimuli/psy_fixed_rotation_30_objects_occ0.7_0.9s/images/train/n02883344_-1/n04256520_4/img_woven_box_club_house_italia_nautilus_sofa_2002-3_gray.png,random,fixed,n04379243_8,n02883344_15,Stimuli/canonical view 2/img_n04379243_8_gray.jpg,Stimuli/canonical view 2/img_n02883344_15_gray.jpg,foreground,right,Experiments/experiment_23/328.jpg,Experiments/experiment_23/329.jpg,Experiments/experiment_23/330.jpg,Experiments/experiment_23/331.jpg,430,1,2023-06-28_11h29.19.969,Occlusion_Psychophysics,2022.1.4,Win32,59.94125757,,,left,"[""left""]",[0.45560000002376455],False,,0.0,0.0,82.0,82.0,82.0,1.0,,,,,,
,,,,,,,,,,,,,,,,,,,,,0.025,,,,,,,,,,Stimuli/psy_fixed_rotation_30_objects_occ0.7_0.9s/images/train/n02933112_-2/n03928116_0/img_sink_base_white_wood_b02_piano_2005_gray.jpg,n02933112_-2,n03928116_0,fixed,0.710569,n02828884_4,Stimuli/psy_fixed_rotation_30_objects_occ0.7_0.9s/images/train/n02818832_0/n02828884_4/img_b03_the_sofa_and_chair_company_-_stanley_bed_2014_b05_c-5_classic_series_bench-2012_2001-3_gray.png,random,fixed,n02933112_-2,n04405907_9,Stimuli/canonical view 2/img_n02933112_-2_gray.jpg,Stimuli/canonical view 2/img_n04405907_9_gray.jpg,random,right,Experiments/experiment_23/332.jpg,Experiments/experiment_23/333.jpg,Experiments/experiment_23/334.jpg,Experiments/experiment_23/335.jpg,430,1,2023-06-28_11h29.19.969,Occlusion_Psychophysics,2022.1.4,Win32,59.94125757,,,left,"[""left""]",[0.5951999999284681],False,,0.0,0.0,83.0,83.0,83.0,1.0,,,,,,
,,,,,,,,,,,,,,,,,,,,,0.05,,,,,,,,,,Stimuli/psy_fixed_rotation_30_objects_occ0.7_0.9s/images/train/n02818832_9/n04256520_5/img_bed01_blue_meridiani_belmondo_bench_sofa_2002_gray.jpg,n02818832_9,n04256520_5,fixed,0.761597,n04256520_5,Stimuli/psy_fixed_rotation_30_objects_occ0.7_0.9s/images/train/n02818832_9/n04256520_5/img_bed01_blue_meridiani_belmondo_bench_sofa_2002-3_gray.png,foreground,same as foreground,n02818832_9,n02818832_0,Stimuli/canonical view 2/img_n02818832_9_gray.jpg,Stimuli/canonical view 2/img_n02818832_0_gray.jpg,random,right,Experiments/experiment_23/336.jpg,Experiments/experiment_23/337.jpg,Experiments/experiment_23/338.jpg,Experiments/experiment_23/339.jpg,430,1,2023-06-28_11h29.19.969,Occlusion_Psychophysics,2022.1.4,Win32,59.94125757,,,left,"[""left""]",[0.5121999999284981],False,,0.0,0.0,84.0,84.0,84.0,1.0,,,,,,
,,,,,,,,,,,,,,,,,,,,,0.05,,,,,,,,,,Stimuli/psy_fixed_rotation_30_objects_occ0.7_0.9s/images/train/n02933112_-2/n04405907_5/img_sink_base_white_wood_samsung_40_uhd_smart_tv_2011_2012_gray.jpg,n02933112_-2,n04405907_5,fixed,0.820502,n04405907_5,Stimuli/psy_fixed_rotation_30_objects_occ0.7_0.9s/images/train/n02933112_-2/n04405907_5/img_sink_base_white_wood_samsung_40_uhd_smart_tv_2011_2012-3_gray.png,foreground,same as foreground,n02933112_-2,n04405907_5,Stimuli/canonical view 2/img_n02933112_-2_gray.jpg,Stimuli/canonical view 2/img_n04405907_5_gray.jpg,foreground,right,Experiments/experiment_23/340.jpg,Experiments/experiment_23/341.jpg,Experiments/experiment_23/342.jpg,Experiments/experiment_23/343.jpg,430,1,2023-06-28_11h29.19.969,Occlusion_Psychophysics,2022.1.4,Win32,59.94125757,,,right,"[""right""]",[1.3935000000000173],False,,0.0,0.0,85.0,85.0,85.0,1.0,,,,,,
,,,,,,,,,,,,,,,,,,,,,0.05,,,,,,,,,,Stimuli/psy_flexible_rotation_30_objects_occ0.7_0.9s/images/train/n04379243_-7/n02883344_-1/img_quatre_dining_table_woven_box_2009_gray.jpg,n04379243_-7,n02883344_-1,flexible,0.719437,n02883344_-1,Stimuli/psy_flexible_rotation_30_objects_occ0.7_0.9s/images/train/n04379243_-7/n02883344_-1/img_quatre_dining_table_woven_box_2009-3_gray.png,foreground,same as foreground,n04379243_-7,n04405907_9,Stimuli/canonical view 2/img_n04379243_-7_gray.jpg,Stimuli/canonical view 2/img_n04405907_9_gray.jpg,random,left,Experiments/experiment_23/344.jpg,Experiments/experiment_23/345.jpg,Experiments/experiment_23/346.jpg,Experiments/experiment_23/347.jpg,430,1,2023-06-28_11h29.19.969,Occlusion_Psychophysics,2022.1.4,Win32,59.94125757,,,left,"[""left""]",[0.48669999992841895],False,,0.0,0.0,86.0,86.0,86.0,1.0,,,,,,
,,,,,,,,,,,,,,,,,,,,,0.025,,,,,,,,,,Stimuli/psy_fixed_rotation_30_objects_occ0.7_0.9s/images/train/n02818832_9/n04379243_0/img_bed01_blue_17th_c._monastery_dining_table_2010_2004_gray.jpg,n02818832_9,n04379243_0,fixed,0.723684,n04379243_0,Stimuli/psy_fixed_rotation_30_objects_occ0.7_0.9s/images/train/n02818832_9/n04379243_0/img_bed01_blue_17th_c._monastery_dining_table_2010_2004-3_gray.png,foreground,same as foreground,n02818832_9,n04379243_0,Stimuli/canonical view 2/img_n02818832_9_gray.jpg,Stimuli/canonical view 2/img_n04379243_0_gray.jpg,foreground,right,Experiments/experiment_23/348.jpg,Experiments/experiment_23/349.jpg,Experiments/experiment_23/350.jpg,Experiments/experiment_23/351.jpg,430,1,2023-06-28_11h29.19.969,Occlusion_Psychophysics,2022.1.4,Win32,59.94125757,,,left,"[""left""]",[0.8395999999046353],False,,0.0,0.0,87.0,87.0,87.0,1.0,,,,,,
,,,,,,,,,,,,,,,,,,,,,0.025,,,,,,,,,,Stimuli/psy_flexible_rotation_30_objects_occ0.7_0.9s/images/train/n02818832_0/n02883344_15/img_b03_the_sofa_and_chair_company_-_stanley_bed_2014_microwave_box_2015_gray.jpg,n02818832_0,n02883344_15,flexible,0.74161,n02818832_9,Stimuli/psy_flexible_rotation_30_objects_occ0.7_0.9s/images/train/n04405907_5/n02818832_9/img_samsung_40_uhd_smart_tv_2011_bed01_blue_2010-3_gray.png,random,flexible,n02818832_0,n02883344_15,Stimuli/canonical view 2/img_n02818832_0_gray.jpg,Stimuli/canonical view 2/img_n02883344_15_gray.jpg,foreground,right,Experiments/experiment_23/352.jpg,Experiments/experiment_23/353.jpg,Experiments/experiment_23/354.jpg,Experiments/experiment_23/355.jpg,430,1,2023-06-28_11h29.19.969,Occlusion_Psychophysics,2022.1.4,Win32,59.94125757,,,left,"[""left""]",[1.4861000000238391],False,,0.0,0.0,88.0,88.0,88.0,1.0,,,,,,
,,,,,,,,,,,,,,,,,,,,,0.05,,,,,,,,,,Stimuli/psy_fixed_rotation_30_objects_occ0.7_0.9s/images/train/n02818832_3/n04379243_-7/img_b05_ccm_contemporary_bed_max2013_quatre_dining_table_2006_gray.jpg,n02818832_3,n04379243_-7,fixed,0.708861,n04405907_5,Stimuli/psy_fixed_rotation_30_objects_occ0.7_0.9s/images/train/n04256520_5/n04405907_5/img_meridiani_belmondo_bench_sofa_samsung_40_uhd_smart_tv_2011_2001-3_gray.png,random,fixed,n02818832_3,n04379243_-7,Stimuli/canonical view 2/img_n02818832_3_gray.jpg,Stimuli/canonical view 2/img_n04379243_-7_gray.jpg,foreground,right,Experiments/experiment_23/356.jpg,Experiments/experiment_23/357.jpg,Experiments/experiment_23/358.jpg,Experiments/experiment_23/359.jpg,430,1,2023-06-28_11h29.19.969,Occlusion_Psychophysics,2022.1.4,Win32,59.94125757,,,right,"[""right""]",[0.7675000000000409],False,,0.0,0.0,89.0,89.0,89.0,1.0,,,,,,
,,,,,,,,,,,,,,,,,,,,,0.05,,,,,,,,,,Stimuli/psy_flexible_rotation_30_objects_occ0.7_0.9s/images/train/n04405907_9/n02828884_3/img_vray_004_b04_wood_metal_park_bench_2007_gray.jpg,n04405907_9,n02828884_3,flexible,0.729452,n02828884_4,Stimuli/psy_fixed_rotation_30_objects_occ0.7_0.9s/images/train/n02818832_0/n02828884_4/img_b03_the_sofa_and_chair_company_-_stanley_bed_2014_b05_c-5_classic_series_bench-2012_2010-3_gray.png,random,fixed,n04405907_9,n02828884_3,Stimuli/canonical view 2/img_n04405907_9_gray.jpg,Stimuli/canonical view 2/img_n02828884_3_gray.jpg,foreground,left,Experiments/experiment_23/360.jpg,Experiments/experiment_23/361.jpg,Experiments/experiment_23/362.jpg,Experiments/experiment_23/363.jpg,430,1,2023-06-28_11h29.19.969,Occlusion_Psychophysics,2022.1.4,Win32,59.94125757,,,left,"[""right""]",[0.8529999999999518],False,,0.0,0.0,90.0,90.0,90.0,1.0,,,,,,
,,,,,,,,,,,,,,,,,,,,,0.05,,,,,,,,,,Stimuli/psy_fixed_rotation_30_objects_occ0.7_0.9s/images/train/n04256520_4/n04405907_5/img_club_house_italia_nautilus_sofa_samsung_40_uhd_smart_tv_2011_2008_gray.jpg,n04256520_4,n04405907_5,fixed,0.720608,n04379243_-7,Stimuli/psy_fixed_rotation_30_objects_occ0.7_0.9s/images/train/n04256520_9/n04379243_-7/img_napoleon_iii_sofa_quatre_dining_table_2011-3_gray.png,random,fixed,n04256520_4,n02828884_3,Stimuli/canonical view 2/img_n04256520_4_gray.jpg,Stimuli/canonical view 2/img_n02828884_3_gray.jpg,random,left,Experiments/experiment_23/364.jpg,Experiments/experiment_23/365.jpg,Experiments/experiment_23/366.jpg,Experiments/experiment_23/367.jpg,430,1,2023-06-28_11h29.19.969,Occlusion_Psychophysics,2022.1.4,Win32,59.94125757,,,right,"[""right""]",[0.6056999999284471],False,,0.0,0.0,91.0,91.0,91.0,1.0,,,,,,
,,,,,,,,,,,,,,,,,,,,,0.05,,,,,,,,,,Stimuli/psy_flexible_rotation_30_objects_occ0.7_0.9s/images/train/n02883344_-1/n02828884_3/img_woven_box_b04_wood_metal_park_bench_2005_gray.jpg,n02883344_-1,n02828884_3,flexible,0.70677,n02883344_15,Stimuli/psy_fixed_rotation_30_objects_occ0.7_0.9s/images/train/n02883344_-1/n02883344_15/img_woven_box_microwave_box_2011-3_gray.png,random,fixed,n02883344_-1,n02828884_3,Stimuli/canonical view 2/img_n02883344_-1_gray.jpg,Stimuli/canonical view 2/img_n02828884_3_gray.jpg,foreground,right,Experiments/experiment_23/368.jpg,Experiments/experiment_23/369.jpg,Experiments/experiment_23/370.jpg,Experiments/experiment_23/371.jpg,430,1,2023-06-28_11h29.19.969,Occlusion_Psychophysics,2022.1.4,Win32,59.94125757,,,right,"[""right""]",[0.8365000000000009],False,,0.0,0.0,92.0,92.0,92.0,1.0,,,,,,
,,,,,,,,,,,,,,,,,,,,,0.05,,,,,,,,,,Stimuli/psy_flexible_rotation_30_objects_occ0.7_0.9s/images/train/n02883344_0/n02818832_9/img_b03_box_bed01_blue_2004_gray.jpg,n02883344_0,n02818832_9,flexible,0.76404,n02818832_3,Stimuli/psy_fixed_rotation_30_objects_occ0.7_0.9s/images/train/n04379243_0/n02818832_3/img_17th_c._monastery_dining_table_2010_b05_ccm_contemporary_bed_max2013_2002-3_gray.png,random,fixed,n02883344_0,n02818832_0,Stimuli/canonical view 2/img_n02883344_0_gray.jpg,Stimuli/canonical view 2/img_n02818832_0_gray.jpg,random,left,Experiments/experiment_23/372.jpg,Experiments/experiment_23/373.jpg,Experiments/experiment_23/374.jpg,Experiments/experiment_23/375.jpg,430,1,2023-06-28_11h29.19.969,Occlusion_Psychophysics,2022.1.4,Win32,59.94125757,,,left,"[""left""]",[0.7591000000238637],False,,0.0,0.0,93.0,93.0,93.0,1.0,,,,,,
,,,,,,,,,,,,,,,,,,,,,0.05,,,,,,,,,,Stimuli/psy_fixed_rotation_30_objects_occ0.7_0.9s/images/train/n02818832_3/n02933112_4/img_b05_ccm_contemporary_bed_max2013_buffet_2004_gray.jpg,n02818832_3,n02933112_4,fixed,0.781883,n02933112_4,Stimuli/psy_fixed_rotation_30_objects_occ0.7_0.9s/images/train/n02818832_3/n02933112_4/img_b05_ccm_contemporary_bed_max2013_buffet_2004-3_gray.png,foreground,same as foreground,n02818832_3,n02818832_9,Stimuli/canonical view 2/img_n02818832_3_gray.jpg,Stimuli/canonical view 2/img_n02818832_9_gray.jpg,random,right,Experiments/experiment_23/376.jpg,Experiments/experiment_23/377.jpg,Experiments/experiment_23/378.jpg,Experiments/experiment_23/379.jpg,430,1,2023-06-28_11h29.19.969,Occlusion_Psychophysics,2022.1.4,Win32,59.94125757,,,left,"[""left""]",[0.6377999999522217],False,,0.0,0.0,94.0,94.0,94.0,1.0,,,,,,
,,,,,,,,,,,,,,,,,,,,,0.025,,,,,,,,,,Stimuli/psy_fixed_rotation_30_objects_occ0.7_0.9s/images/train/n02818832_9/n04256520_4/img_bed01_blue_club_house_italia_nautilus_sofa_2003_gray.jpg,n02818832_9,n04256520_4,fixed,0.879319,n02818832_9,Stimuli/psy_fixed_rotation_30_objects_occ0.7_0.9s/images/train/n03001627_-2/n02818832_9/img_wood_chair_bed01_blue_2013-3_gray.png,random,fixed,n02818832_9,n04405907_5,Stimuli/canonical view 2/img_n02818832_9_gray.jpg,Stimuli/canonical view 2/img_n04405907_5_gray.jpg,random,left,Experiments/experiment_23/380.jpg,Experiments/experiment_23/381.jpg,Experiments/experiment_23/382.jpg,Experiments/experiment_23/383.jpg,430,1,2023-06-28_11h29.19.969,Occlusion_Psychophysics,2022.1.4,Win32,59.94125757,,,left,"[""right""]",[1.0968999999761309],False,,0.0,0.0,95.0,95.0,95.0,1.0,,,,,,
,,,,,,,,,,,,,,,,,,,,,0.05,,,,,,,,,,Stimuli/psy_fixed_rotation_30_objects_occ0.7_0.9s/images/train/n02818832_0/n02933112_-2/img_b03_the_sofa_and_chair_company_-_stanley_bed_2014_sink_base_white_wood_2010_gray.jpg,n02818832_0,n02933112_-2,fixed,0.700065,n03001627_9,Stimuli/psy_fixed_rotation_30_objects_occ0.7_0.9s/images/train/n03001627_9/n03001627_9/img_chair_eames_plastic_armchair_chair_eames_plastic_armchair_2001-3_gray.png,random,fixed,n02818832_0,n02933112_-2,Stimuli/canonical view 2/img_n02818832_0_gray.jpg,Stimuli/canonical view 2/img_n02933112_-2_gray.jpg,foreground,left,Experiments/experiment_23/384.jpg,Experiments/experiment_23/385.jpg,Experiments/experiment_23/386.jpg,Experiments/experiment_23/387.jpg,430,1,2023-06-28_11h29.19.969,Occlusion_Psychophysics,2022.1.4,Win32,59.94125757,,,left,"[""left""]",[0.7140000000000555],True,left,1.0,0.0,96.0,96.0,96.0,1.0,0.6353,,,,,
,,,,,,,,,,,,,,,,,,,,,0.025,,,,,,,,,,Stimuli/psy_fixed_rotation_30_objects_occ0.7_0.9s/images/train/n03001627_-2/n03928116_0/img_wood_chair_b02_piano_2004_gray.jpg,n03001627_-2,n03928116_0,fixed,0.720208,n03928116_0,Stimuli/psy_fixed_rotation_30_objects_occ0.7_0.9s/images/train/n03001627_-2/n03928116_0/img_wood_chair_b02_piano_2004-3_gray.png,foreground,same as foreground,n03001627_-2,n03928116_0,Stimuli/canonical view 2/img_n03001627_-2_gray.jpg,Stimuli/canonical view 2/img_n03928116_0_gray.jpg,foreground,right,Experiments/experiment_23/388.jpg,Experiments/experiment_23/389.jpg,Experiments/experiment_23/390.jpg,Experiments/experiment_23/391.jpg,430,1,2023-06-28_11h29.19.969,Occlusion_Psychophysics,2022.1.4,Win32,59.94125757,,,right,"[""right""]",[0.657400000095322],False,,0.0,0.0,97.0,97.0,97.0,1.0,,,,,,
,,,,,,,,,,,,,,,,,,,,,0.05,,,,,,,,,,Stimuli/psy_flexible_rotation_30_objects_occ0.7_0.9s/images/train/n02818832_0/n02933112_4/img_b03_the_sofa_and_chair_company_-_stanley_bed_2014_buffet_2002_gray.jpg,n02818832_0,n02933112_4,flexible,0.702133,n02828884_3,Stimuli/psy_flexible_rotation_30_objects_occ0.7_0.9s/images/train/n03001627_9/n02828884_3/img_chair_eames_plastic_armchair_b04_wood_metal_park_bench_2007-3_gray.png,random,flexible,n02818832_0,n02933112_4,Stimuli/canonical view 2/img_n02818832_0_gray.jpg,Stimuli/canonical view 2/img_n02933112_4_gray.jpg,foreground,right,Experiments/experiment_23/392.jpg,Experiments/experiment_23/393.jpg,Experiments/experiment_23/394.jpg,Experiments/experiment_23/395.jpg,430,1,2023-06-28_11h29.19.969,Occlusion_Psychophysics,2022.1.4,Win32,59.94125757,,,left,"[""left""]",[0.5528000000714428],False,,0.0,0.0,98.0,98.0,98.0,1.0,,,,,,
,,,,,,,,,,,,,,,,,,,,,0.025,,,,,,,,,,Stimuli/psy_fixed_rotation_30_objects_occ0.7_0.9s/images/train/n03001627_8/n02933112_4/img_chair_billiani_doll_buffet_2014_gray.jpg,n03001627_8,n02933112_4,fixed,0.755766,n02933112_4,Stimuli/psy_fixed_rotation_30_objects_occ0.7_0.9s/images/train/n03001627_8/n02933112_4/img_chair_billiani_doll_buffet_2014-3_gray.png,foreground,same as foreground,n03001627_8,n02828884_3,Stimuli/canonical view 2/img_n03001627_8_gray.jpg,Stimuli/canonical view 2/img_n02828884_3_gray.jpg,random,right,Experiments/experiment_23/396.jpg,Experiments/experiment_23/397.jpg,Experiments/experiment_23/398.jpg,Experiments/experiment_23/399.jpg,430,1,2023-06-28_11h29.19.969,Occlusion_Psychophysics,2022.1.4,Win32,59.94125757,,,left,"[""left""]",[0.6370000000000573],False,,0.0,0.0,99.0,99.0,99.0,1.0,,,,,,
,,,,,,,,,,,,,,,,,,,,,,,,,,,,,,,,,,,,,,,,,,,,,,,,,,430,1,2023-06-28_11h29.19.969,Occlusion_Psychophysics,2022.1.4,Win32,59.94125757,,,,,,,,,,,,,,,0.0,0.0,0.0,0.0,1.0
,,,,,,,,,,,,,,,,,,,,,0.025,,,,,,,,,,Stimuli/psy_flexible_rotation_30_objects_occ0.7_0.9s/images/train/n02883344_-1/n04256520_5/img_woven_box_meridiani_belmondo_bench_sofa_2011_gray.jpg,n02883344_-1,n04256520_5,flexible,0.718052,n04256520_5,Stimuli/psy_flexible_rotation_30_objects_occ0.7_0.9s/images/train/n02883344_-1/n04256520_5/img_woven_box_meridiani_belmondo_bench_sofa_2011-3_gray.png,foreground,same as foreground,n02883344_-1,n02933112_-2,Stimuli/canonical view 2/img_n02883344_-1_gray.jpg,Stimuli/canonical view 2/img_n02933112_-2_gray.jpg,random,right,Experiments/experiment_23/400.jpg,Experiments/experiment_23/401.jpg,Experiments/experiment_23/402.jpg,Experiments/experiment_23/403.jpg,430,1,2023-06-28_11h29.19.969,Occlusion_Psychophysics,2022.1.4,Win32,59.94125757,,,left,"[""left""]",[0.5357000000476546],False,,0.0,0.0,0.0,0.0,0.0,1.0,,,,,,
,,,,,,,,,,,,,,,,,,,,,0.025,,,,,,,,,,Stimuli/psy_fixed_rotation_30_objects_occ0.7_0.9s/images/train/n02818832_0/n02883344_15/img_b03_the_sofa_and_chair_company_-_stanley_bed_2014_microwave_box_2010_gray.jpg,n02818832_0,n02883344_15,fixed,0.7422,n02818832_3,Stimuli/psy_flexible_rotation_30_objects_occ0.7_0.9s/images/train/n04405907_8/n02818832_3/img_stylized_tv_b05_ccm_contemporary_bed_max2013_2004-3_gray.png,random,flexible,n02818832_0,n02828884_9,Stimuli/canonical view 2/img_n02818832_0_gray.jpg,Stimuli/canonical view 2/img_n02828884_9_gray.jpg,random,left,Experiments/experiment_23/404.jpg,Experiments/experiment_23/405.jpg,Experiments/experiment_23/406.jpg,Experiments/experiment_23/407.jpg,430,1,2023-06-28_11h29.19.969,Occlusion_Psychophysics,2022.1.4,Win32,59.94125757,,,left,"[""left""]",[0.5250999999045689],False,,0.0,0.0,1.0,1.0,1.0,1.0,,,,,,
,,,,,,,,,,,,,,,,,,,,,0.05,,,,,,,,,,Stimuli/psy_flexible_rotation_30_objects_occ0.7_0.9s/images/train/n02883344_0/n03928116_0/img_b03_box_b02_piano_2013_gray.jpg,n02883344_0,n03928116_0,flexible,0.763708,n04256520_4,Stimuli/psy_flexible_rotation_30_objects_occ0.7_0.9s/images/train/n02883344_0/n04256520_4/img_b03_box_club_house_italia_nautilus_sofa_2007-3_gray.png,random,flexible,n02883344_0,n02818832_9,Stimuli/canonical view 2/img_n02883344_0_gray.jpg,Stimuli/canonical view 2/img_n02818832_9_gray.jpg,random,right,Experiments/experiment_23/408.jpg,Experiments/experiment_23/409.jpg,Experiments/experiment_23/410.jpg,Experiments/experiment_23/411.jpg,430,1,2023-06-28_11h29.19.969,Occlusion_Psychophysics,2022.1.4,Win32,59.94125757,,,left,"[""left""]",[0.7198999999761782],False,,0.0,0.0,2.0,2.0,2.0,1.0,,,,,,
,,,,,,,,,,,,,,,,,,,,,0.05,,,,,,,,,,Stimuli/psy_flexible_rotation_30_objects_occ0.7_0.9s/images/train/n04379243_8/n03001627_8/img_glass_table_chair_billiani_doll_2015_gray.jpg,n04379243_8,n03001627_8,flexible,0.757092,n04405907_9,Stimuli/psy_fixed_rotation_30_objects_occ0.7_0.9s/images/train/n03928116_0/n04405907_9/img_b02_piano_vray_004_2014-3_gray.png,random,fixed,n04379243_8,n04256520_4,Stimuli/canonical view 2/img_n04379243_8_gray.jpg,Stimuli/canonical view 2/img_n04256520_4_gray.jpg,random,right,Experiments/experiment_23/412.jpg,Experiments/experiment_23/413.jpg,Experiments/experiment_23/414.jpg,Experiments/experiment_23/415.jpg,430,1,2023-06-28_11h29.19.969,Occlusion_Psychophysics,2022.1.4,Win32,59.94125757,,,right,"[""right""]",[0.5359000000954666],False,,0.0,0.0,3.0,3.0,3.0,1.0,,,,,,
,,,,,,,,,,,,,,,,,,,,,0.025,,,,,,,,,,Stimuli/psy_fixed_rotation_30_objects_occ0.7_0.9s/images/train/n03928116_10/n04256520_4/img_ydp_103_r_2012__vray_club_house_italia_nautilus_sofa_2010_gray.jpg,n03928116_10,n04256520_4,fixed,0.861141,n04256520_4,Stimuli/psy_fixed_rotation_30_objects_occ0.7_0.9s/images/train/n03928116_10/n04256520_4/img_ydp_103_r_2012__vray_club_house_italia_nautilus_sofa_2010-3_gray.png,foreground,same as foreground,n03928116_10,n02828884_9,Stimuli/canonical view 2/img_n03928116_10_gray.jpg,Stimuli/canonical view 2/img_n02828884_9_gray.jpg,random,left,Experiments/experiment_23/416.jpg,Experiments/experiment_23/417.jpg,Experiments/experiment_23/418.jpg,Experiments/experiment_23/419.jpg,430,1,2023-06-28_11h29.19.969,Occlusion_Psychophysics,2022.1.4,Win32,59.94125757,,,right,"[""left""]",[0.9978999999760845],False,,0.0,0.0,4.0,4.0,4.0,1.0,,,,,,
,,,,,,,,,,,,,,,,,,,,,0.025,,,,,,,,,,Stimuli/psy_fixed_rotation_30_objects_occ0.7_0.9s/images/train/n02883344_-1/n03928116_0/img_woven_box_b02_piano_2011_gray.jpg,n02883344_-1,n03928116_0,fixed,0.803337,n02883344_15,Stimuli/psy_fixed_rotation_30_objects_occ0.7_0.9s/images/train/n02818832_9/n02883344_15/img_bed01_blue_microwave_box_2014-3_gray.png,random,fixed,n02883344_-1,n04405907_9,Stimuli/canonical view 2/img_n02883344_-1_gray.jpg,Stimuli/canonical view 2/img_n04405907_9_gray.jpg,random,left,Experiments/experiment_23/420.jpg,Experiments/experiment_23/421.jpg,Experiments/experiment_23/422.jpg,Experiments/experiment_23/423.jpg,430,1,2023-06-28_11h29.19.969,Occlusion_Psychophysics,2022.1.4,Win32,59.94125757,,,right,"[""right""]",[0.57160000002375],False,,0.0,0.0,5.0,5.0,5.0,1.0,,,,,,
,,,,,,,,,,,,,,,,,,,,,0.025,,,,,,,,,,Stimuli/psy_flexible_rotation_30_objects_occ0.7_0.9s/images/train/n02933112_-18/n03001627_8/img_cgaxis_models_48_26_vray_composite_chair_billiani_doll_2010_gray.jpg,n02933112_-18,n03001627_8,flexible,0.809731,n04405907_9,Stimuli/psy_flexible_rotation_30_objects_occ0.7_0.9s/images/train/n02883344_-1/n04405907_9/img_woven_box_vray_004_2012-3_gray.png,random,flexible,n02933112_-18,n03001627_8,Stimuli/canonical view 2/img_n02933112_-18_gray.jpg,Stimuli/canonical view 2/img_n03001627_8_gray.jpg,foreground,right,Experiments/experiment_23/424.jpg,Experiments/experiment_23/425.jpg,Experiments/experiment_23/426.jpg,Experiments/experiment_23/427.jpg,430,1,2023-06-28_11h29.19.969,Occlusion_Psychophysics,2022.1.4,Win32,59.94125757,,,left,"[""left""]",[0.8735000000000355],False,,0.0,0.0,6.0,6.0,6.0,1.0,,,,,,
,,,,,,,,,,,,,,,,,,,,,0.025,,,,,,,,,,Stimuli/psy_flexible_rotation_30_objects_occ0.7_0.9s/images/train/n04405907_9/n02883344_15/img_vray_004_microwave_box_2015_gray.jpg,n04405907_9,n02883344_15,flexible,0.750674,n02883344_15,Stimuli/psy_flexible_rotation_30_objects_occ0.7_0.9s/images/train/n04405907_9/n02883344_15/img_vray_004_microwave_box_2015-3_gray.png,foreground,same as foreground,n04405907_9,n02828884_3,Stimuli/canonical view 2/img_n04405907_9_gray.jpg,Stimuli/canonical view 2/img_n02828884_3_gray.jpg,random,left,Experiments/experiment_23/428.jpg,Experiments/experiment_23/429.jpg,Experiments/experiment_23/430.jpg,Experiments/experiment_23/431.jpg,430,1,2023-06-28_11h29.19.969,Occlusion_Psychophysics,2022.1.4,Win32,59.94125757,,,left,"[""left""]",[0.6198999999761554],False,,0.0,0.0,7.0,7.0,7.0,1.0,,,,,,
,,,,,,,,,,,,,,,,,,,,,0.05,,,,,,,,,,Stimuli/psy_flexible_rotation_30_objects_occ0.7_0.9s/images/train/n03928116_0/n04379243_-7/img_b02_piano_quatre_dining_table_2003_gray.jpg,n03928116_0,n04379243_-7,flexible,0.781329,n02818832_3,Stimuli/psy_flexible_rotation_30_objects_occ0.7_0.9s/images/train/n04070727_3/n02818832_3/img_b05_db_apps_tech_06_02_2_composite_b05_ccm_contemporary_bed_max2013_2012-3_gray.png,random,flexible,n03928116_0,n03928116_4,Stimuli/canonical view 2/img_n03928116_0_gray.jpg,Stimuli/canonical view 2/img_n03928116_4_gray.jpg,random,right,Experiments/experiment_23/432.jpg,Experiments/experiment_23/433.jpg,Experiments/experiment_23/434.jpg,Experiments/experiment_23/435.jpg,430,1,2023-06-28_11h29.19.969,Occlusion_Psychophysics,2022.1.4,Win32,59.94125757,,,left,"[""left""]",[1.0876999999285317],False,,0.0,0.0,8.0,8.0,8.0,1.0,,,,,,
,,,,,,,,,,,,,,,,,,,,,0.05,,,,,,,,,,Stimuli/psy_flexible_rotation_30_objects_occ0.7_0.9s/images/train/n04256520_5/n04405907_8/img_meridiani_belmondo_bench_sofa_stylized_tv_2005_gray.jpg,n04256520_5,n04405907_8,flexible,0.706075,n04405907_8,Stimuli/psy_flexible_rotation_30_objects_occ0.7_0.9s/images/train/n04256520_5/n04405907_8/img_meridiani_belmondo_bench_sofa_stylized_tv_2005-3_gray.png,foreground,same as foreground,n04256520_5,n04379243_8,Stimuli/canonical view 2/img_n04256520_5_gray.jpg,Stimuli/canonical view 2/img_n04379243_8_gray.jpg,random,left,Experiments/experiment_23/436.jpg,Experiments/experiment_23/437.jpg,Experiments/experiment_23/438.jpg,Experiments/experiment_23/439.jpg,430,1,2023-06-28_11h29.19.969,Occlusion_Psychophysics,2022.1.4,Win32,59.94125757,,,left,"[""left""]",[1.0515000000000327],True,right,1.0,0.0,9.0,9.0,9.0,1.0,0.6525,,,,,
,,,,,,,,,,,,,,,,,,,,,0.05,,,,,,,,,,Stimuli/psy_fixed_rotation_30_objects_occ0.7_0.9s/images/train/n02883344_0/n03928116_10/img_b03_box_ydp_103_r_2012__vray_2002_gray.jpg,n02883344_0,n03928116_10,fixed,0.813468,n02828884_3,Stimuli/psy_flexible_rotation_30_objects_occ0.7_0.9s/images/train/n04256520_5/n02828884_3/img_meridiani_belmondo_bench_sofa_b04_wood_metal_park_bench_2005-3_gray.png,random,flexible,n02883344_0,n03001627_8,Stimuli/canonical view 2/img_n02883344_0_gray.jpg,Stimuli/canonical view 2/img_n03001627_8_gray.jpg,random,left,Experiments/experiment_23/440.jpg,Experiments/experiment_23/441.jpg,Experiments/experiment_23/442.jpg,Experiments/experiment_23/443.jpg,430,1,2023-06-28_11h29.19.969,Occlusion_Psychophysics,2022.1.4,Win32,59.94125757,,,left,"[""left""]",[0.6691000000238319],False,,0.0,0.0,10.0,10.0,10.0,1.0,,,,,,
,,,,,,,,,,,,,,,,,,,,,0.025,,,,,,,,,,Stimuli/psy_flexible_rotation_30_objects_occ0.7_0.9s/images/train/n02883344_0/n02828884_3/img_b03_box_b04_wood_metal_park_bench_2010_gray.jpg,n02883344_0,n02828884_3,flexible,0.769571,n04379243_-7,Stimuli/psy_fixed_rotation_30_objects_occ0.7_0.9s/images/train/n04405907_8/n04379243_-7/img_stylized_tv_quatre_dining_table_2006-3_gray.png,random,fixed,n02883344_0,n02933112_-2,Stimuli/canonical view 2/img_n02883344_0_gray.jpg,Stimuli/canonical view 2/img_n02933112_-2_gray.jpg,random,left,Experiments/experiment_23/444.jpg,Experiments/experiment_23/445.jpg,Experiments/experiment_23/446.jpg,Experiments/experiment_23/447.jpg,430,1,2023-06-28_11h29.19.969,Occlusion_Psychophysics,2022.1.4,Win32,59.94125757,,,left,"[""left""]",[0.628299999952219],False,,0.0,0.0,11.0,11.0,11.0,1.0,,,,,,
