in_color,Instructions_key.keys,Instructions_key.rt,Tutorial_instruction_key.keys,Tutorial_instruction_key.rt,Tutorial_fixation_ley.keys,Tutorial_fixation_ley.rt,Tutorial_single_img_key.keys,Tutorial_single_img_key.rt,Tutorial_intra_trial_fixation_key.keys,Tutorial_intra_trial_fixation_key.rt,Tutorial_stimulus_key.keys,Tutorial_stimulus_key.rt,Tutorial_response_key.keys,Tutorial_response_key.rt,Tutorial_attention_check_key.keys,Tutorial_attention_check_key.rt,advance_or_repeat.keys,advance_or_repeat.rt,Practice_instructions_key.keys,Practice_instructions_key.rt,intra_trial_duration,Practice_key_response.keys,Practice_key_response.rt,Practice_react_key.keys,Practice_react_key.rt,Practice_loop.thisRepN,Practice_loop.thisTrialN,Practice_loop.thisN,Practice_loop.thisIndex,Practice_loop.ran,multi_object_filepath,background_id,foreground_id,multi_object_rotation,occlusion_level,single_object_id,single_object_filepath,single_is_foreground_or_random,single_object_rotation,background_choice_id,alt_choice_id,background_option_filepath,alternative_option_filepath,alternative_is_foreground_or_random,location_of_correct_answer,multi_object_exp_filename,single_object_exp_filename,background_option_exp_filename,alternative_option_exp_filename,participant,session,date,expName,psychopyVersion,OS,frameRate,Practice_end_key.keys,Practice_end_key.rt,correct_answer,Input_selection.keys,Input_selection.rt,Was_attention_check,Attention_check.keys,Attention_check.corr,Each_session_loop.thisRepN,Each_session_loop.thisTrialN,Each_session_loop.thisN,Each_session_loop.thisIndex,Each_session_loop.ran,Attention_check.rt,Num_sessions.thisRepN,Num_sessions.thisTrialN,Num_sessions.thisN,Num_sessions.thisIndex,Num_sessions.ran
False,space,3.8657,space,1.4829,space,3.35,,3.9453,,0.1864,,0.5592,space,3.9132,space,2.6613,a,8.0033,space,4.3049,0.025,right,2.6207,a,3.9809,0.0,0.0,0.0,0.0,1.0,Stimuli/psy_flexible_rotation_30_objects_occ0.7_0.9s/images/train/n02818832_3/n04405907_8/img_b05_ccm_contemporary_bed_max2013_stylized_tv_2012_gray.jpg,n02818832_3,n04405907_8,flexible,0.716313,n04405907_8,Stimuli/psy_flexible_rotation_30_objects_occ0.7_0.9s/images/train/n02818832_3/n04405907_8/img_b05_ccm_contemporary_bed_max2013_stylized_tv_2012-3_gray.png,foreground,same as foreground,n02818832_3,n03928116_10,Stimuli/canonical view 2/img_n02818832_3_gray.jpg,Stimuli/canonical view 2/img_n03928116_10_gray.jpg,random,left,Experiments/experiment_36/1000.jpg,Experiments/experiment_36/1001.jpg,Experiments/experiment_36/1002.jpg,Experiments/experiment_36/1003.jpg,448,1,2023-04-17_18h36.35.269,Occlusion_Psychophysics,2022.1.4,Win32,59.83008257,,,,,,,,,,,,,,,,,,,
,,,,,,,,,,,,,,,,,,,,,0.025,,,,,,,,,,Stimuli/psy_fixed_rotation_30_objects_occ0.7_0.9s/images/train/n02828884_3/n02818832_0/img_b04_wood_metal_park_bench_b03_the_sofa_and_chair_company_-_stanley_bed_2014_2009_gray.jpg,n02828884_3,n02818832_0,fixed,0.707548,n02883344_0,Stimuli/psy_fixed_rotation_30_objects_occ0.7_0.9s/images/train/n04256520_4/n02883344_0/img_club_house_italia_nautilus_sofa_b03_box_2008-3_gray.png,random,fixed,n02828884_3,n03928116_10,Stimuli/canonical view 2/img_n02828884_3_gray.jpg,Stimuli/canonical view 2/img_n03928116_10_gray.jpg,random,right,Experiments/experiment_36/0.jpg,Experiments/experiment_36/1.jpg,Experiments/experiment_36/2.jpg,Experiments/experiment_36/3.jpg,448,1,2023-04-17_18h36.35.269,Occlusion_Psychophysics,2022.1.4,Win32,59.83008257,space,1.5391,left,"[""left""]",[1.2182000000178732],False,,0.0,0.0,0.0,0.0,0.0,1.0,,,,,,
,,,,,,,,,,,,,,,,,,,,,0.05,,,,,,,,,,Stimuli/psy_fixed_rotation_30_objects_occ0.7_0.9s/images/train/n02933112_4/n04256520_9/img_buffet_napoleon_iii_sofa_2006_gray.jpg,n02933112_4,n04256520_9,fixed,0.849614,n02883344_-1,Stimuli/psy_fixed_rotation_30_objects_occ0.7_0.9s/images/train/n04256520_5/n02883344_-1/img_meridiani_belmondo_bench_sofa_woven_box_2003-3_gray.png,random,fixed,n02933112_4,n04256520_9,Stimuli/canonical view 2/img_n02933112_4_gray.jpg,Stimuli/canonical view 2/img_n04256520_9_gray.jpg,foreground,left,Experiments/experiment_36/4.jpg,Experiments/experiment_36/5.jpg,Experiments/experiment_36/6.jpg,Experiments/experiment_36/7.jpg,448,1,2023-04-17_18h36.35.269,Occlusion_Psychophysics,2022.1.4,Win32,59.83008257,,,left,"[""right""]",[1.0576999999880172],False,,0.0,0.0,1.0,1.0,1.0,1.0,,,,,,
,,,,,,,,,,,,,,,,,,,,,0.05,,,,,,,,,,Stimuli/psy_flexible_rotation_30_objects_occ0.7_0.9s/images/train/n04256520_5/n04405907_8/img_meridiani_belmondo_bench_sofa_stylized_tv_2014_gray.jpg,n04256520_5,n04405907_8,flexible,0.735784,n02933112_-2,Stimuli/psy_fixed_rotation_30_objects_occ0.7_0.9s/images/train/n04405907_8/n02933112_-2/img_stylized_tv_sink_base_white_wood_2004-3_gray.png,random,fixed,n04256520_5,n04405907_8,Stimuli/canonical view 2/img_n04256520_5_gray.jpg,Stimuli/canonical view 2/img_n04405907_8_gray.jpg,foreground,left,Experiments/experiment_36/8.jpg,Experiments/experiment_36/9.jpg,Experiments/experiment_36/10.jpg,Experiments/experiment_36/11.jpg,448,1,2023-04-17_18h36.35.269,Occlusion_Psychophysics,2022.1.4,Win32,59.83008257,,,right,"[""left""]",[1.4069999999999823],False,,0.0,0.0,2.0,2.0,2.0,1.0,,,,,,
,,,,,,,,,,,,,,,,,,,,,0.05,,,,,,,,,,Stimuli/psy_flexible_rotation_30_objects_occ0.7_0.9s/images/train/n04379243_0/n04405907_9/img_17th_c._monastery_dining_table_2010_vray_004_2007_gray.jpg,n04379243_0,n04405907_9,flexible,0.746778,n04405907_9,Stimuli/psy_flexible_rotation_30_objects_occ0.7_0.9s/images/train/n04379243_0/n04405907_9/img_17th_c._monastery_dining_table_2010_vray_004_2007-3_gray.png,foreground,same as foreground,n04379243_0,n03001627_-2,Stimuli/canonical view 2/img_n04379243_0_gray.jpg,Stimuli/canonical view 2/img_n03001627_-2_gray.jpg,random,left,Experiments/experiment_36/12.jpg,Experiments/experiment_36/13.jpg,Experiments/experiment_36/14.jpg,Experiments/experiment_36/15.jpg,448,1,2023-04-17_18h36.35.269,Occlusion_Psychophysics,2022.1.4,Win32,59.83008257,,,left,"[""left""]",[0.9770000000000891],False,,0.0,0.0,3.0,3.0,3.0,1.0,,,,,,
,,,,,,,,,,,,,,,,,,,,,0.05,,,,,,,,,,Stimuli/psy_flexible_rotation_30_objects_occ0.7_0.9s/images/train/n04379243_8/n02818832_9/img_glass_table_bed01_blue_2007_gray.jpg,n04379243_8,n02818832_9,flexible,0.741072,n02933112_-2,Stimuli/psy_fixed_rotation_30_objects_occ0.7_0.9s/images/train/n02828884_3/n02933112_-2/img_b04_wood_metal_park_bench_sink_base_white_wood_2001-3_gray.png,random,fixed,n04379243_8,n02933112_-18,Stimuli/canonical view 2/img_n04379243_8_gray.jpg,Stimuli/canonical view 2/img_n02933112_-18_gray.jpg,random,right,Experiments/experiment_36/16.jpg,Experiments/experiment_36/17.jpg,Experiments/experiment_36/18.jpg,Experiments/experiment_36/19.jpg,448,1,2023-04-17_18h36.35.269,Occlusion_Psychophysics,2022.1.4,Win32,59.83008257,,,right,"[""right""]",[0.6517999999821313],False,,0.0,0.0,4.0,4.0,4.0,1.0,,,,,,
,,,,,,,,,,,,,,,,,,,,,0.05,,,,,,,,,,Stimuli/psy_fixed_rotation_30_objects_occ0.7_0.9s/images/train/n02818832_9/n03928116_0/img_bed01_blue_b02_piano_2008_gray.jpg,n02818832_9,n03928116_0,fixed,0.754577,n03928116_0,Stimuli/psy_fixed_rotation_30_objects_occ0.7_0.9s/images/train/n02818832_9/n03928116_0/img_bed01_blue_b02_piano_2008-3_gray.png,foreground,same as foreground,n02818832_9,n03928116_0,Stimuli/canonical view 2/img_n02818832_9_gray.jpg,Stimuli/canonical view 2/img_n03928116_0_gray.jpg,foreground,left,Experiments/experiment_36/20.jpg,Experiments/experiment_36/21.jpg,Experiments/experiment_36/22.jpg,Experiments/experiment_36/23.jpg,448,1,2023-04-17_18h36.35.269,Occlusion_Psychophysics,2022.1.4,Win32,59.83008257,,,right,"[""right""]",[1.25469999998802],False,,0.0,0.0,5.0,5.0,5.0,1.0,,,,,,
,,,,,,,,,,,,,,,,,,,,,0.025,,,,,,,,,,Stimuli/psy_flexible_rotation_30_objects_occ0.7_0.9s/images/train/n02828884_3/n02883344_15/img_b04_wood_metal_park_bench_microwave_box_2000_gray.jpg,n02828884_3,n02883344_15,flexible,0.738514,n02883344_15,Stimuli/psy_flexible_rotation_30_objects_occ0.7_0.9s/images/train/n02828884_3/n02883344_15/img_b04_wood_metal_park_bench_microwave_box_2000-3_gray.png,foreground,same as foreground,n02828884_3,n02883344_15,Stimuli/canonical view 2/img_n02828884_3_gray.jpg,Stimuli/canonical view 2/img_n02883344_15_gray.jpg,foreground,right,Experiments/experiment_36/24.jpg,Experiments/experiment_36/25.jpg,Experiments/experiment_36/26.jpg,Experiments/experiment_36/27.jpg,448,1,2023-04-17_18h36.35.269,Occlusion_Psychophysics,2022.1.4,Win32,59.83008257,,,left,"[""left""]",[0.8844000000060532],False,,0.0,0.0,6.0,6.0,6.0,1.0,,,,,,
,,,,,,,,,,,,,,,,,,,,,0.025,,,,,,,,,,Stimuli/psy_flexible_rotation_30_objects_occ0.7_0.9s/images/train/n02933112_-18/n04405907_5/img_cgaxis_models_48_26_vray_composite_samsung_40_uhd_smart_tv_2011_2002_gray.jpg,n02933112_-18,n04405907_5,flexible,0.789901,n04405907_5,Stimuli/psy_flexible_rotation_30_objects_occ0.7_0.9s/images/train/n02933112_-18/n04405907_5/img_cgaxis_models_48_26_vray_composite_samsung_40_uhd_smart_tv_2011_2002-3_gray.png,foreground,same as foreground,n02933112_-18,n04256520_4,Stimuli/canonical view 2/img_n02933112_-18_gray.jpg,Stimuli/canonical view 2/img_n04256520_4_gray.jpg,random,left,Experiments/experiment_36/28.jpg,Experiments/experiment_36/29.jpg,Experiments/experiment_36/30.jpg,Experiments/experiment_36/31.jpg,448,1,2023-04-17_18h36.35.269,Occlusion_Psychophysics,2022.1.4,Win32,59.83008257,,,right,"[""left""]",[0.9937000000178386],False,,0.0,0.0,7.0,7.0,7.0,1.0,,,,,,
,,,,,,,,,,,,,,,,,,,,,0.05,,,,,,,,,,Stimuli/psy_fixed_rotation_30_objects_occ0.7_0.9s/images/train/n02828884_9/n02883344_15/img_cr-96_bench_microwave_box_2015_gray.jpg,n02828884_9,n02883344_15,fixed,0.712331,n02883344_15,Stimuli/psy_fixed_rotation_30_objects_occ0.7_0.9s/images/train/n02828884_9/n02883344_15/img_cr-96_bench_microwave_box_2015-3_gray.png,foreground,same as foreground,n02828884_9,n02883344_15,Stimuli/canonical view 2/img_n02828884_9_gray.jpg,Stimuli/canonical view 2/img_n02883344_15_gray.jpg,foreground,left,Experiments/experiment_36/32.jpg,Experiments/experiment_36/33.jpg,Experiments/experiment_36/34.jpg,Experiments/experiment_36/35.jpg,448,1,2023-04-17_18h36.35.269,Occlusion_Psychophysics,2022.1.4,Win32,59.83008257,,,right,"[""right""]",[0.77980000001196],False,,0.0,0.0,8.0,8.0,8.0,1.0,,,,,,
,,,,,,,,,,,,,,,,,,,,,0.025,,,,,,,,,,Stimuli/psy_flexible_rotation_30_objects_occ0.7_0.9s/images/train/n02818832_0/n02818832_9/img_b03_the_sofa_and_chair_company_-_stanley_bed_2014_bed01_blue_2010_gray.jpg,n02818832_0,n02818832_9,flexible,0.719828,n02818832_9,Stimuli/psy_flexible_rotation_30_objects_occ0.7_0.9s/images/train/n02818832_0/n02818832_9/img_b03_the_sofa_and_chair_company_-_stanley_bed_2014_bed01_blue_2010-3_gray.png,foreground,same as foreground,n02818832_0,n02818832_9,Stimuli/canonical view 2/img_n02818832_0_gray.jpg,Stimuli/canonical view 2/img_n02818832_9_gray.jpg,foreground,left,Experiments/experiment_36/36.jpg,Experiments/experiment_36/37.jpg,Experiments/experiment_36/38.jpg,Experiments/experiment_36/39.jpg,448,1,2023-04-17_18h36.35.269,Occlusion_Psychophysics,2022.1.4,Win32,59.83008257,,,left,"[""left""]",[0.7110000000000127],False,,0.0,0.0,9.0,9.0,9.0,1.0,,,,,,
,,,,,,,,,,,,,,,,,,,,,0.05,,,,,,,,,,Stimuli/psy_flexible_rotation_30_objects_occ0.7_0.9s/images/train/n02828884_4/n04379243_0/img_b05_c-5_classic_series_bench-2012_17th_c._monastery_dining_table_2010_2007_gray.jpg,n02828884_4,n04379243_0,flexible,0.761077,n02828884_3,Stimuli/psy_flexible_rotation_30_objects_occ0.7_0.9s/images/train/n02828884_3/n02828884_3/img_b04_wood_metal_park_bench_b04_wood_metal_park_bench_2009-3_gray.png,random,flexible,n02828884_4,n04405907_9,Stimuli/canonical view 2/img_n02828884_4_gray.jpg,Stimuli/canonical view 2/img_n04405907_9_gray.jpg,random,right,Experiments/experiment_36/40.jpg,Experiments/experiment_36/41.jpg,Experiments/experiment_36/42.jpg,Experiments/experiment_36/43.jpg,448,1,2023-04-17_18h36.35.269,Occlusion_Psychophysics,2022.1.4,Win32,59.83008257,,,right,"[""left""]",[0.9383000000119637],False,,0.0,0.0,10.0,10.0,10.0,1.0,,,,,,
,,,,,,,,,,,,,,,,,,,,,0.05,,,,,,,,,,Stimuli/psy_fixed_rotation_30_objects_occ0.7_0.9s/images/train/n02883344_15/n02933112_4/img_microwave_box_buffet_2007_gray.jpg,n02883344_15,n02933112_4,fixed,0.72496,n02933112_-2,Stimuli/psy_fixed_rotation_30_objects_occ0.7_0.9s/images/train/n02933112_4/n02933112_-2/img_buffet_sink_base_white_wood_2000-3_gray.png,random,fixed,n02883344_15,n02933112_-2,Stimuli/canonical view 2/img_n02883344_15_gray.jpg,Stimuli/canonical view 2/img_n02933112_-2_gray.jpg,random,right,Experiments/experiment_36/44.jpg,Experiments/experiment_36/45.jpg,Experiments/experiment_36/46.jpg,Experiments/experiment_36/47.jpg,448,1,2023-04-17_18h36.35.269,Occlusion_Psychophysics,2022.1.4,Win32,59.83008257,,,left,"[""left""]",[0.952299999982074],True,left,1.0,0.0,11.0,11.0,11.0,1.0,1.6628,,,,,
,,,,,,,,,,,,,,,,,,,,,0.05,,,,,,,,,,Stimuli/psy_fixed_rotation_30_objects_occ0.7_0.9s/images/train/n03001627_8/n03001627_9/img_chair_billiani_doll_chair_eames_plastic_armchair_2009_gray.jpg,n03001627_8,n03001627_9,fixed,0.718353,n04379243_-7,Stimuli/psy_fixed_rotation_30_objects_occ0.7_0.9s/images/train/n02883344_-1/n04379243_-7/img_woven_box_quatre_dining_table_2006-3_gray.png,random,fixed,n03001627_8,n03001627_9,Stimuli/canonical view 2/img_n03001627_8_gray.jpg,Stimuli/canonical view 2/img_n03001627_9_gray.jpg,foreground,left,Experiments/experiment_36/48.jpg,Experiments/experiment_36/49.jpg,Experiments/experiment_36/50.jpg,Experiments/experiment_36/51.jpg,448,1,2023-04-17_18h36.35.269,Occlusion_Psychophysics,2022.1.4,Win32,59.83008257,,,left,"[""right""]",[0.9097000000178923],False,,0.0,0.0,12.0,12.0,12.0,1.0,,,,,,
,,,,,,,,,,,,,,,,,,,,,0.05,,,,,,,,,,Stimuli/psy_flexible_rotation_30_objects_occ0.7_0.9s/images/train/n04256520_5/n04405907_5/img_meridiani_belmondo_bench_sofa_samsung_40_uhd_smart_tv_2011_2006_gray.jpg,n04256520_5,n04405907_5,flexible,0.818559,n04405907_5,Stimuli/psy_flexible_rotation_30_objects_occ0.7_0.9s/images/train/n04256520_5/n04405907_5/img_meridiani_belmondo_bench_sofa_samsung_40_uhd_smart_tv_2011_2006-3_gray.png,foreground,same as foreground,n04256520_5,n04405907_5,Stimuli/canonical view 2/img_n04256520_5_gray.jpg,Stimuli/canonical view 2/img_n04405907_5_gray.jpg,foreground,left,Experiments/experiment_36/52.jpg,Experiments/experiment_36/53.jpg,Experiments/experiment_36/54.jpg,Experiments/experiment_36/55.jpg,448,1,2023-04-17_18h36.35.269,Occlusion_Psychophysics,2022.1.4,Win32,59.83008257,,,left,"[""right""]",[0.9079000000059523],False,,0.0,0.0,13.0,13.0,13.0,1.0,,,,,,
,,,,,,,,,,,,,,,,,,,,,0.025,,,,,,,,,,Stimuli/psy_flexible_rotation_30_objects_occ0.7_0.9s/images/train/n02818832_3/n04256520_4/img_b05_ccm_contemporary_bed_max2013_club_house_italia_nautilus_sofa_2004_gray.jpg,n02818832_3,n04256520_4,flexible,0.759094,n04256520_4,Stimuli/psy_flexible_rotation_30_objects_occ0.7_0.9s/images/train/n02818832_3/n04256520_4/img_b05_ccm_contemporary_bed_max2013_club_house_italia_nautilus_sofa_2004-3_gray.png,foreground,same as foreground,n02818832_3,n04256520_4,Stimuli/canonical view 2/img_n02818832_3_gray.jpg,Stimuli/canonical view 2/img_n04256520_4_gray.jpg,foreground,left,Experiments/experiment_36/56.jpg,Experiments/experiment_36/57.jpg,Experiments/experiment_36/58.jpg,Experiments/experiment_36/59.jpg,448,1,2023-04-17_18h36.35.269,Occlusion_Psychophysics,2022.1.4,Win32,59.83008257,,,left,"[""left""]",[0.8206999999880509],False,,0.0,0.0,14.0,14.0,14.0,1.0,,,,,,
,,,,,,,,,,,,,,,,,,,,,0.025,,,,,,,,,,Stimuli/psy_flexible_rotation_30_objects_occ0.7_0.9s/images/train/n02818832_3/n04256520_4/img_b05_ccm_contemporary_bed_max2013_club_house_italia_nautilus_sofa_2005_gray.jpg,n02818832_3,n04256520_4,flexible,0.763717,n04256520_4,Stimuli/psy_flexible_rotation_30_objects_occ0.7_0.9s/images/train/n02818832_3/n04256520_4/img_b05_ccm_contemporary_bed_max2013_club_house_italia_nautilus_sofa_2005-3_gray.png,foreground,same as foreground,n02818832_3,n04256520_4,Stimuli/canonical view 2/img_n02818832_3_gray.jpg,Stimuli/canonical view 2/img_n04256520_4_gray.jpg,foreground,left,Experiments/experiment_36/60.jpg,Experiments/experiment_36/61.jpg,Experiments/experiment_36/62.jpg,Experiments/experiment_36/63.jpg,448,1,2023-04-17_18h36.35.269,Occlusion_Psychophysics,2022.1.4,Win32,59.83008257,,,left,"[""left""]",[0.6845999999940204],True,right,1.0,0.0,15.0,15.0,15.0,1.0,1.0725,,,,,
,,,,,,,,,,,,,,,,,,,,,0.025,,,,,,,,,,Stimuli/psy_flexible_rotation_30_objects_occ0.7_0.9s/images/train/n04379243_8/n04405907_9/img_glass_table_vray_004_2011_gray.jpg,n04379243_8,n04405907_9,flexible,0.77162,n04405907_9,Stimuli/psy_flexible_rotation_30_objects_occ0.7_0.9s/images/train/n04379243_8/n04405907_9/img_glass_table_vray_004_2011-3_gray.png,foreground,same as foreground,n04379243_8,n04405907_9,Stimuli/canonical view 2/img_n04379243_8_gray.jpg,Stimuli/canonical view 2/img_n04405907_9_gray.jpg,foreground,right,Experiments/experiment_36/64.jpg,Experiments/experiment_36/65.jpg,Experiments/experiment_36/66.jpg,Experiments/experiment_36/67.jpg,448,1,2023-04-17_18h36.35.269,Occlusion_Psychophysics,2022.1.4,Win32,59.83008257,,,right,"[""right""]",[0.70049999999992],False,,0.0,0.0,16.0,16.0,16.0,1.0,,,,,,
,,,,,,,,,,,,,,,,,,,,,0.025,,,,,,,,,,Stimuli/psy_fixed_rotation_30_objects_occ0.7_0.9s/images/train/n04405907_5/n03928116_4/img_samsung_40_uhd_smart_tv_2011_dp_33_b_2013__vray_2011_gray.jpg,n04405907_5,n03928116_4,fixed,0.721274,n03928116_4,Stimuli/psy_fixed_rotation_30_objects_occ0.7_0.9s/images/train/n04405907_5/n03928116_4/img_samsung_40_uhd_smart_tv_2011_dp_33_b_2013__vray_2011-3_gray.png,foreground,same as foreground,n04405907_5,n04256520_5,Stimuli/canonical view 2/img_n04405907_5_gray.jpg,Stimuli/canonical view 2/img_n04256520_5_gray.jpg,random,left,Experiments/experiment_36/68.jpg,Experiments/experiment_36/69.jpg,Experiments/experiment_36/70.jpg,Experiments/experiment_36/71.jpg,448,1,2023-04-17_18h36.35.269,Occlusion_Psychophysics,2022.1.4,Win32,59.83008257,,,left,"[""left""]",[0.9422999999820831],False,,0.0,0.0,17.0,17.0,17.0,1.0,,,,,,
,,,,,,,,,,,,,,,,,,,,,0.05,,,,,,,,,,Stimuli/psy_fixed_rotation_30_objects_occ0.7_0.9s/images/train/n03928116_10/n03928116_0/img_ydp_103_r_2012__vray_b02_piano_2013_gray.jpg,n03928116_10,n03928116_0,fixed,0.866387,n03928116_0,Stimuli/psy_fixed_rotation_30_objects_occ0.7_0.9s/images/train/n03928116_10/n03928116_0/img_ydp_103_r_2012__vray_b02_piano_2013-3_gray.png,foreground,same as foreground,n03928116_10,n03928116_0,Stimuli/canonical view 2/img_n03928116_10_gray.jpg,Stimuli/canonical view 2/img_n03928116_0_gray.jpg,foreground,left,Experiments/experiment_36/72.jpg,Experiments/experiment_36/73.jpg,Experiments/experiment_36/74.jpg,Experiments/experiment_36/75.jpg,448,1,2023-04-17_18h36.35.269,Occlusion_Psychophysics,2022.1.4,Win32,59.83008257,,,left,"[""right""]",[0.8464000000059286],False,,0.0,0.0,18.0,18.0,18.0,1.0,,,,,,
,,,,,,,,,,,,,,,,,,,,,0.05,,,,,,,,,,Stimuli/psy_fixed_rotation_30_objects_occ0.7_0.9s/images/train/n02818832_0/n02933112_4/img_b03_the_sofa_and_chair_company_-_stanley_bed_2014_buffet_2003_gray.jpg,n02818832_0,n02933112_4,fixed,0.782059,n02933112_4,Stimuli/psy_fixed_rotation_30_objects_occ0.7_0.9s/images/train/n02818832_0/n02933112_4/img_b03_the_sofa_and_chair_company_-_stanley_bed_2014_buffet_2003-3_gray.png,foreground,same as foreground,n02818832_0,n02933112_4,Stimuli/canonical view 2/img_n02818832_0_gray.jpg,Stimuli/canonical view 2/img_n02933112_4_gray.jpg,foreground,left,Experiments/experiment_36/76.jpg,Experiments/experiment_36/77.jpg,Experiments/experiment_36/78.jpg,Experiments/experiment_36/79.jpg,448,1,2023-04-17_18h36.35.269,Occlusion_Psychophysics,2022.1.4,Win32,59.83008257,,,left,"[""left""]",[1.1180999999940013],True,left,1.0,0.0,19.0,19.0,19.0,1.0,1.1011,,,,,
,,,,,,,,,,,,,,,,,,,,,0.025,,,,,,,,,,Stimuli/psy_flexible_rotation_30_objects_occ0.7_0.9s/images/train/n02883344_0/n04256520_5/img_b03_box_meridiani_belmondo_bench_sofa_2004_gray.jpg,n02883344_0,n04256520_5,flexible,0.706942,n02828884_3,Stimuli/psy_fixed_rotation_30_objects_occ0.7_0.9s/images/train/n03928116_0/n02828884_3/img_b02_piano_b04_wood_metal_park_bench_2014-3_gray.png,random,fixed,n02883344_0,n04256520_9,Stimuli/canonical view 2/img_n02883344_0_gray.jpg,Stimuli/canonical view 2/img_n04256520_9_gray.jpg,random,left,Experiments/experiment_36/80.jpg,Experiments/experiment_36/81.jpg,Experiments/experiment_36/82.jpg,Experiments/experiment_36/83.jpg,448,1,2023-04-17_18h36.35.269,Occlusion_Psychophysics,2022.1.4,Win32,59.83008257,,,right,"[""right""]",[0.8889000000059468],False,,0.0,0.0,20.0,20.0,20.0,1.0,,,,,,
,,,,,,,,,,,,,,,,,,,,,0.05,,,,,,,,,,Stimuli/psy_fixed_rotation_30_objects_occ0.7_0.9s/images/train/n04256520_9/n02883344_15/img_napoleon_iii_sofa_microwave_box_2012_gray.jpg,n04256520_9,n02883344_15,fixed,0.732031,n02883344_15,Stimuli/psy_fixed_rotation_30_objects_occ0.7_0.9s/images/train/n04256520_9/n02883344_15/img_napoleon_iii_sofa_microwave_box_2012-3_gray.png,foreground,same as foreground,n04256520_9,n02883344_15,Stimuli/canonical view 2/img_n04256520_9_gray.jpg,Stimuli/canonical view 2/img_n02883344_15_gray.jpg,foreground,left,Experiments/experiment_36/84.jpg,Experiments/experiment_36/85.jpg,Experiments/experiment_36/86.jpg,Experiments/experiment_36/87.jpg,448,1,2023-04-17_18h36.35.269,Occlusion_Psychophysics,2022.1.4,Win32,59.83008257,,,left,"[""left""]",[0.8847999999820786],False,,0.0,0.0,21.0,21.0,21.0,1.0,,,,,,
,,,,,,,,,,,,,,,,,,,,,0.05,,,,,,,,,,Stimuli/psy_flexible_rotation_30_objects_occ0.7_0.9s/images/train/n03928116_0/n04379243_0/img_b02_piano_17th_c._monastery_dining_table_2010_2007_gray.jpg,n03928116_0,n04379243_0,flexible,0.795348,n04379243_0,Stimuli/psy_flexible_rotation_30_objects_occ0.7_0.9s/images/train/n03928116_0/n04379243_0/img_b02_piano_17th_c._monastery_dining_table_2010_2007-3_gray.png,foreground,same as foreground,n03928116_0,n04379243_0,Stimuli/canonical view 2/img_n03928116_0_gray.jpg,Stimuli/canonical view 2/img_n04379243_0_gray.jpg,foreground,left,Experiments/experiment_36/88.jpg,Experiments/experiment_36/89.jpg,Experiments/experiment_36/90.jpg,Experiments/experiment_36/91.jpg,448,1,2023-04-17_18h36.35.269,Occlusion_Psychophysics,2022.1.4,Win32,59.83008257,,,right,"[""right""]",[0.8606999999880145],False,,0.0,0.0,22.0,22.0,22.0,1.0,,,,,,
,,,,,,,,,,,,,,,,,,,,,0.05,,,,,,,,,,Stimuli/psy_flexible_rotation_30_objects_occ0.7_0.9s/images/train/n02883344_0/n03928116_4/img_b03_box_dp_33_b_2013__vray_2010_gray.jpg,n02883344_0,n03928116_4,flexible,0.713789,n04256520_4,Stimuli/psy_flexible_rotation_30_objects_occ0.7_0.9s/images/train/n02818832_9/n04256520_4/img_bed01_blue_club_house_italia_nautilus_sofa_2015-3_gray.png,random,flexible,n02883344_0,n03928116_4,Stimuli/canonical view 2/img_n02883344_0_gray.jpg,Stimuli/canonical view 2/img_n03928116_4_gray.jpg,foreground,right,Experiments/experiment_36/92.jpg,Experiments/experiment_36/93.jpg,Experiments/experiment_36/94.jpg,Experiments/experiment_36/95.jpg,448,1,2023-04-17_18h36.35.269,Occlusion_Psychophysics,2022.1.4,Win32,59.83008257,,,right,"[""right""]",[0.8217000000178132],False,,0.0,0.0,23.0,23.0,23.0,1.0,,,,,,
,,,,,,,,,,,,,,,,,,,,,0.025,,,,,,,,,,Stimuli/psy_flexible_rotation_30_objects_occ0.7_0.9s/images/train/n02818832_3/n02933112_4/img_b05_ccm_contemporary_bed_max2013_buffet_2011_gray.jpg,n02818832_3,n02933112_4,flexible,0.741245,n02818832_9,Stimuli/psy_flexible_rotation_30_objects_occ0.7_0.9s/images/train/n04405907_8/n02818832_9/img_stylized_tv_bed01_blue_2006-3_gray.png,random,flexible,n02818832_3,n02933112_4,Stimuli/canonical view 2/img_n02818832_3_gray.jpg,Stimuli/canonical view 2/img_n02933112_4_gray.jpg,foreground,left,Experiments/experiment_36/96.jpg,Experiments/experiment_36/97.jpg,Experiments/experiment_36/98.jpg,Experiments/experiment_36/99.jpg,448,1,2023-04-17_18h36.35.269,Occlusion_Psychophysics,2022.1.4,Win32,59.83008257,,,left,"[""left""]",[1.043200000017805],False,,0.0,0.0,24.0,24.0,24.0,1.0,,,,,,
,,,,,,,,,,,,,,,,,,,,,0.05,,,,,,,,,,Stimuli/psy_fixed_rotation_30_objects_occ0.7_0.9s/images/train/n03928116_0/n03001627_9/img_b02_piano_chair_eames_plastic_armchair_2012_gray.jpg,n03928116_0,n03001627_9,fixed,0.749316,n04405907_9,Stimuli/psy_fixed_rotation_30_objects_occ0.7_0.9s/images/train/n02818832_0/n04405907_9/img_b03_the_sofa_and_chair_company_-_stanley_bed_2014_vray_004_2001-3_gray.png,random,fixed,n03928116_0,n02883344_-1,Stimuli/canonical view 2/img_n03928116_0_gray.jpg,Stimuli/canonical view 2/img_n02883344_-1_gray.jpg,random,right,Experiments/experiment_36/100.jpg,Experiments/experiment_36/101.jpg,Experiments/experiment_36/102.jpg,Experiments/experiment_36/103.jpg,448,1,2023-04-17_18h36.35.269,Occlusion_Psychophysics,2022.1.4,Win32,59.83008257,,,right,"[""right""]",[0.5584000000059177],False,,0.0,0.0,25.0,25.0,25.0,1.0,,,,,,
,,,,,,,,,,,,,,,,,,,,,0.05,,,,,,,,,,Stimuli/psy_flexible_rotation_30_objects_occ0.7_0.9s/images/train/n02933112_4/n04379243_-7/img_buffet_quatre_dining_table_2002_gray.jpg,n02933112_4,n04379243_-7,flexible,0.705184,n03001627_9,Stimuli/psy_fixed_rotation_30_objects_occ0.7_0.9s/images/train/n03001627_9/n03001627_9/img_chair_eames_plastic_armchair_chair_eames_plastic_armchair_2010-3_gray.png,random,fixed,n02933112_4,n02883344_0,Stimuli/canonical view 2/img_n02933112_4_gray.jpg,Stimuli/canonical view 2/img_n02883344_0_gray.jpg,random,left,Experiments/experiment_36/104.jpg,Experiments/experiment_36/105.jpg,Experiments/experiment_36/106.jpg,Experiments/experiment_36/107.jpg,448,1,2023-04-17_18h36.35.269,Occlusion_Psychophysics,2022.1.4,Win32,59.83008257,,,right,"[""right""]",[1.0181999999881555],False,,0.0,0.0,26.0,26.0,26.0,1.0,,,,,,
,,,,,,,,,,,,,,,,,,,,,0.05,,,,,,,,,,Stimuli/psy_fixed_rotation_30_objects_occ0.7_0.9s/images/train/n04379243_-7/n02883344_15/img_quatre_dining_table_microwave_box_2003_gray.jpg,n04379243_-7,n02883344_15,fixed,0.744772,n03928116_10,Stimuli/psy_fixed_rotation_30_objects_occ0.7_0.9s/images/train/n03001627_9/n03928116_10/img_chair_eames_plastic_armchair_ydp_103_r_2012__vray_2013-3_gray.png,random,fixed,n04379243_-7,n02828884_3,Stimuli/canonical view 2/img_n04379243_-7_gray.jpg,Stimuli/canonical view 2/img_n02828884_3_gray.jpg,random,right,Experiments/experiment_36/108.jpg,Experiments/experiment_36/109.jpg,Experiments/experiment_36/110.jpg,Experiments/experiment_36/111.jpg,448,1,2023-04-17_18h36.35.269,Occlusion_Psychophysics,2022.1.4,Win32,59.83008257,,,left,"[""right""]",[1.0629999999999882],False,,0.0,0.0,27.0,27.0,27.0,1.0,,,,,,
,,,,,,,,,,,,,,,,,,,,,0.025,,,,,,,,,,Stimuli/psy_flexible_rotation_30_objects_occ0.7_0.9s/images/train/n04405907_5/n04379243_-7/img_samsung_40_uhd_smart_tv_2011_quatre_dining_table_2012_gray.jpg,n04405907_5,n04379243_-7,flexible,0.785222,n04405907_9,Stimuli/psy_flexible_rotation_30_objects_occ0.7_0.9s/images/train/n02818832_0/n04405907_9/img_b03_the_sofa_and_chair_company_-_stanley_bed_2014_vray_004_2002-3_gray.png,random,flexible,n04405907_5,n04379243_-7,Stimuli/canonical view 2/img_n04405907_5_gray.jpg,Stimuli/canonical view 2/img_n04379243_-7_gray.jpg,foreground,right,Experiments/experiment_36/112.jpg,Experiments/experiment_36/113.jpg,Experiments/experiment_36/114.jpg,Experiments/experiment_36/115.jpg,448,1,2023-04-17_18h36.35.269,Occlusion_Psychophysics,2022.1.4,Win32,59.83008257,,,left,"[""right""]",[1.0503000000118163],False,,0.0,0.0,28.0,28.0,28.0,1.0,,,,,,
,,,,,,,,,,,,,,,,,,,,,0.05,,,,,,,,,,Stimuli/psy_flexible_rotation_30_objects_occ0.7_0.9s/images/train/n02883344_0/n03928116_0/img_b03_box_b02_piano_2006_gray.jpg,n02883344_0,n03928116_0,flexible,0.734736,n03928116_0,Stimuli/psy_flexible_rotation_30_objects_occ0.7_0.9s/images/train/n02883344_0/n03928116_0/img_b03_box_b02_piano_2006-3_gray.png,foreground,same as foreground,n02883344_0,n03928116_0,Stimuli/canonical view 2/img_n02883344_0_gray.jpg,Stimuli/canonical view 2/img_n03928116_0_gray.jpg,foreground,right,Experiments/experiment_36/116.jpg,Experiments/experiment_36/117.jpg,Experiments/experiment_36/118.jpg,Experiments/experiment_36/119.jpg,448,1,2023-04-17_18h36.35.269,Occlusion_Psychophysics,2022.1.4,Win32,59.83008257,,,left,"[""left""]",[0.9499999999999318],False,,0.0,0.0,29.0,29.0,29.0,1.0,,,,,,
,,,,,,,,,,,,,,,,,,,,,0.05,,,,,,,,,,Stimuli/psy_fixed_rotation_30_objects_occ0.7_0.9s/images/train/n04405907_8/n04379243_-7/img_stylized_tv_quatre_dining_table_2013_gray.jpg,n04405907_8,n04379243_-7,fixed,0.88103,n04379243_-7,Stimuli/psy_fixed_rotation_30_objects_occ0.7_0.9s/images/train/n04405907_8/n04379243_-7/img_stylized_tv_quatre_dining_table_2013-3_gray.png,foreground,same as foreground,n04405907_8,n04379243_0,Stimuli/canonical view 2/img_n04405907_8_gray.jpg,Stimuli/canonical view 2/img_n04379243_0_gray.jpg,random,left,Experiments/experiment_36/120.jpg,Experiments/experiment_36/121.jpg,Experiments/experiment_36/122.jpg,Experiments/experiment_36/123.jpg,448,1,2023-04-17_18h36.35.269,Occlusion_Psychophysics,2022.1.4,Win32,59.83008257,,,right,"[""right""]",[0.92169999998805],False,,0.0,0.0,30.0,30.0,30.0,1.0,,,,,,
,,,,,,,,,,,,,,,,,,,,,0.025,,,,,,,,,,Stimuli/psy_flexible_rotation_30_objects_occ0.7_0.9s/images/train/n04379243_0/n03928116_10/img_17th_c._monastery_dining_table_2010_ydp_103_r_2012__vray_2001_gray.jpg,n04379243_0,n03928116_10,flexible,0.87275,n04405907_8,Stimuli/psy_fixed_rotation_30_objects_occ0.7_0.9s/images/train/n02828884_4/n04405907_8/img_b05_c-5_classic_series_bench-2012_stylized_tv_2002-3_gray.png,random,fixed,n04379243_0,n03928116_10,Stimuli/canonical view 2/img_n04379243_0_gray.jpg,Stimuli/canonical view 2/img_n03928116_10_gray.jpg,foreground,left,Experiments/experiment_36/124.jpg,Experiments/experiment_36/125.jpg,Experiments/experiment_36/126.jpg,Experiments/experiment_36/127.jpg,448,1,2023-04-17_18h36.35.269,Occlusion_Psychophysics,2022.1.4,Win32,59.83008257,,,right,"[""right""]",[1.1789000000059104],False,,0.0,0.0,31.0,31.0,31.0,1.0,,,,,,
,,,,,,,,,,,,,,,,,,,,,0.025,,,,,,,,,,Stimuli/psy_fixed_rotation_30_objects_occ0.7_0.9s/images/train/n03001627_9/n02883344_0/img_chair_eames_plastic_armchair_b03_box_2015_gray.jpg,n03001627_9,n02883344_0,fixed,0.799704,n02883344_-1,Stimuli/psy_fixed_rotation_30_objects_occ0.7_0.9s/images/train/n04070727_0/n02883344_-1/img_b03_ka90ivi20r_2013__vray_woven_box_2010-3_gray.png,random,fixed,n03001627_9,n04405907_8,Stimuli/canonical view 2/img_n03001627_9_gray.jpg,Stimuli/canonical view 2/img_n04405907_8_gray.jpg,random,right,Experiments/experiment_36/128.jpg,Experiments/experiment_36/129.jpg,Experiments/experiment_36/130.jpg,Experiments/experiment_36/131.jpg,448,1,2023-04-17_18h36.35.269,Occlusion_Psychophysics,2022.1.4,Win32,59.83008257,,,left,"[""right""]",[1.0715000000000146],False,,0.0,0.0,32.0,32.0,32.0,1.0,,,,,,
,,,,,,,,,,,,,,,,,,,,,0.025,,,,,,,,,,Stimuli/psy_fixed_rotation_30_objects_occ0.7_0.9s/images/train/n04379243_8/n02818832_3/img_glass_table_b05_ccm_contemporary_bed_max2013_2011_gray.jpg,n04379243_8,n02818832_3,fixed,0.752155,n04405907_8,Stimuli/psy_flexible_rotation_30_objects_occ0.7_0.9s/images/train/n04379243_0/n04405907_8/img_17th_c._monastery_dining_table_2010_stylized_tv_2000-3_gray.png,random,flexible,n04379243_8,n02818832_3,Stimuli/canonical view 2/img_n04379243_8_gray.jpg,Stimuli/canonical view 2/img_n02818832_3_gray.jpg,foreground,right,Experiments/experiment_36/132.jpg,Experiments/experiment_36/133.jpg,Experiments/experiment_36/134.jpg,Experiments/experiment_36/135.jpg,448,1,2023-04-17_18h36.35.269,Occlusion_Psychophysics,2022.1.4,Win32,59.83008257,,,right,"[""right""]",[0.7525999999941178],True,left,1.0,0.0,33.0,33.0,33.0,1.0,1.0084,,,,,
,,,,,,,,,,,,,,,,,,,,,0.025,,,,,,,,,,Stimuli/psy_flexible_rotation_30_objects_occ0.7_0.9s/images/train/n03928116_4/n02933112_-2/img_dp_33_b_2013__vray_sink_base_white_wood_2006_gray.jpg,n03928116_4,n02933112_-2,flexible,0.710703,n04379243_0,Stimuli/psy_fixed_rotation_30_objects_occ0.7_0.9s/images/train/n02818832_9/n04379243_0/img_bed01_blue_17th_c._monastery_dining_table_2010_2009-3_gray.png,random,fixed,n03928116_4,n02933112_-2,Stimuli/canonical view 2/img_n03928116_4_gray.jpg,Stimuli/canonical view 2/img_n02933112_-2_gray.jpg,foreground,right,Experiments/experiment_36/136.jpg,Experiments/experiment_36/137.jpg,Experiments/experiment_36/138.jpg,Experiments/experiment_36/139.jpg,448,1,2023-04-17_18h36.35.269,Occlusion_Psychophysics,2022.1.4,Win32,59.83008257,,,left,"[""right""]",[0.9893000000118946],False,,0.0,0.0,34.0,34.0,34.0,1.0,,,,,,
,,,,,,,,,,,,,,,,,,,,,0.025,,,,,,,,,,Stimuli/psy_flexible_rotation_30_objects_occ0.7_0.9s/images/train/n04379243_8/n04405907_8/img_glass_table_stylized_tv_2005_gray.jpg,n04379243_8,n04405907_8,flexible,0.714121,n04405907_8,Stimuli/psy_flexible_rotation_30_objects_occ0.7_0.9s/images/train/n04379243_8/n04405907_8/img_glass_table_stylized_tv_2005-3_gray.png,foreground,same as foreground,n04379243_8,n03001627_8,Stimuli/canonical view 2/img_n04379243_8_gray.jpg,Stimuli/canonical view 2/img_n03001627_8_gray.jpg,random,left,Experiments/experiment_36/140.jpg,Experiments/experiment_36/141.jpg,Experiments/experiment_36/142.jpg,Experiments/experiment_36/143.jpg,448,1,2023-04-17_18h36.35.269,Occlusion_Psychophysics,2022.1.4,Win32,59.83008257,,,right,"[""left""]",[1.7205000000000155],False,,0.0,0.0,35.0,35.0,35.0,1.0,,,,,,
,,,,,,,,,,,,,,,,,,,,,0.05,,,,,,,,,,Stimuli/psy_fixed_rotation_30_objects_occ0.7_0.9s/images/train/n02818832_3/n03928116_0/img_b05_ccm_contemporary_bed_max2013_b02_piano_2010_gray.jpg,n02818832_3,n03928116_0,fixed,0.747169,n02818832_0,Stimuli/psy_fixed_rotation_30_objects_occ0.7_0.9s/images/train/n04379243_-7/n02818832_0/img_quatre_dining_table_b03_the_sofa_and_chair_company_-_stanley_bed_2014_2012-3_gray.png,random,fixed,n02818832_3,n04379243_0,Stimuli/canonical view 2/img_n02818832_3_gray.jpg,Stimuli/canonical view 2/img_n04379243_0_gray.jpg,random,right,Experiments/experiment_36/144.jpg,Experiments/experiment_36/145.jpg,Experiments/experiment_36/146.jpg,Experiments/experiment_36/147.jpg,448,1,2023-04-17_18h36.35.269,Occlusion_Psychophysics,2022.1.4,Win32,59.83008257,,,left,"[""left""]",[0.9050999999940359],False,,0.0,0.0,36.0,36.0,36.0,1.0,,,,,,
,,,,,,,,,,,,,,,,,,,,,0.025,,,,,,,,,,Stimuli/psy_flexible_rotation_30_objects_occ0.7_0.9s/images/train/n03928116_4/n02818832_0/img_dp_33_b_2013__vray_b03_the_sofa_and_chair_company_-_stanley_bed_2014_2009_gray.jpg,n03928116_4,n02818832_0,flexible,0.851772,n03928116_0,Stimuli/psy_fixed_rotation_30_objects_occ0.7_0.9s/images/train/n04379243_-7/n03928116_0/img_quatre_dining_table_b02_piano_2015-3_gray.png,random,fixed,n03928116_4,n02883344_15,Stimuli/canonical view 2/img_n03928116_4_gray.jpg,Stimuli/canonical view 2/img_n02883344_15_gray.jpg,random,left,Experiments/experiment_36/148.jpg,Experiments/experiment_36/149.jpg,Experiments/experiment_36/150.jpg,Experiments/experiment_36/151.jpg,448,1,2023-04-17_18h36.35.269,Occlusion_Psychophysics,2022.1.4,Win32,59.83008257,,,right,"[""right""]",[0.6228000000119209],False,,0.0,0.0,37.0,37.0,37.0,1.0,,,,,,
,,,,,,,,,,,,,,,,,,,,,0.05,,,,,,,,,,Stimuli/psy_flexible_rotation_30_objects_occ0.7_0.9s/images/train/n02828884_3/n02818832_9/img_b04_wood_metal_park_bench_bed01_blue_2011_gray.jpg,n02828884_3,n02818832_9,flexible,0.815922,n04405907_9,Stimuli/psy_flexible_rotation_30_objects_occ0.7_0.9s/images/train/n02818832_0/n04405907_9/img_b03_the_sofa_and_chair_company_-_stanley_bed_2014_vray_004_2005-3_gray.png,random,flexible,n02828884_3,n02933112_-18,Stimuli/canonical view 2/img_n02828884_3_gray.jpg,Stimuli/canonical view 2/img_n02933112_-18_gray.jpg,random,left,Experiments/experiment_36/152.jpg,Experiments/experiment_36/153.jpg,Experiments/experiment_36/154.jpg,Experiments/experiment_36/155.jpg,448,1,2023-04-17_18h36.35.269,Occlusion_Psychophysics,2022.1.4,Win32,59.83008257,,,left,"[""left""]",[0.6840999999940323],False,,0.0,0.0,38.0,38.0,38.0,1.0,,,,,,
,,,,,,,,,,,,,,,,,,,,,0.05,,,,,,,,,,Stimuli/psy_flexible_rotation_30_objects_occ0.7_0.9s/images/train/n02828884_3/n03928116_0/img_b04_wood_metal_park_bench_b02_piano_2002_gray.jpg,n02828884_3,n03928116_0,flexible,0.70751,n03928116_0,Stimuli/psy_flexible_rotation_30_objects_occ0.7_0.9s/images/train/n02828884_3/n03928116_0/img_b04_wood_metal_park_bench_b02_piano_2002-3_gray.png,foreground,same as foreground,n02828884_3,n02883344_0,Stimuli/canonical view 2/img_n02828884_3_gray.jpg,Stimuli/canonical view 2/img_n02883344_0_gray.jpg,random,right,Experiments/experiment_36/156.jpg,Experiments/experiment_36/157.jpg,Experiments/experiment_36/158.jpg,Experiments/experiment_36/159.jpg,448,1,2023-04-17_18h36.35.269,Occlusion_Psychophysics,2022.1.4,Win32,59.83008257,,,left,"[""left""]",[0.738200000017855],False,,0.0,0.0,39.0,39.0,39.0,1.0,,,,,,
,,,,,,,,,,,,,,,,,,,,,0.05,,,,,,,,,,Stimuli/psy_flexible_rotation_30_objects_occ0.7_0.9s/images/train/n02818832_9/n04256520_4/img_bed01_blue_club_house_italia_nautilus_sofa_2011_gray.jpg,n02818832_9,n04256520_4,flexible,0.72767,n02883344_0,Stimuli/psy_fixed_rotation_30_objects_occ0.7_0.9s/images/train/n03928116_0/n02883344_0/img_b02_piano_b03_box_2005-3_gray.png,random,fixed,n02818832_9,n02883344_0,Stimuli/canonical view 2/img_n02818832_9_gray.jpg,Stimuli/canonical view 2/img_n02883344_0_gray.jpg,random,left,Experiments/experiment_36/160.jpg,Experiments/experiment_36/161.jpg,Experiments/experiment_36/162.jpg,Experiments/experiment_36/163.jpg,448,1,2023-04-17_18h36.35.269,Occlusion_Psychophysics,2022.1.4,Win32,59.83008257,,,left,"[""left""]",[0.7062000000179296],False,,0.0,0.0,40.0,40.0,40.0,1.0,,,,,,
,,,,,,,,,,,,,,,,,,,,,0.025,,,,,,,,,,Stimuli/psy_flexible_rotation_30_objects_occ0.7_0.9s/images/train/n04379243_-7/n03928116_10/img_quatre_dining_table_ydp_103_r_2012__vray_2008_gray.jpg,n04379243_-7,n03928116_10,flexible,0.71147,n04405907_8,Stimuli/psy_flexible_rotation_30_objects_occ0.7_0.9s/images/train/n04256520_4/n04405907_8/img_club_house_italia_nautilus_sofa_stylized_tv_2007-3_gray.png,random,flexible,n04379243_-7,n03928116_10,Stimuli/canonical view 2/img_n04379243_-7_gray.jpg,Stimuli/canonical view 2/img_n03928116_10_gray.jpg,foreground,right,Experiments/experiment_36/164.jpg,Experiments/experiment_36/165.jpg,Experiments/experiment_36/166.jpg,Experiments/experiment_36/167.jpg,448,1,2023-04-17_18h36.35.269,Occlusion_Psychophysics,2022.1.4,Win32,59.83008257,,,right,"[""right""]",[1.5175999999939904],False,,0.0,0.0,41.0,41.0,41.0,1.0,,,,,,
,,,,,,,,,,,,,,,,,,,,,0.05,,,,,,,,,,Stimuli/psy_flexible_rotation_30_objects_occ0.7_0.9s/images/train/n02818832_9/n04256520_5/img_bed01_blue_meridiani_belmondo_bench_sofa_2006_gray.jpg,n02818832_9,n04256520_5,flexible,0.774074,n04256520_4,Stimuli/psy_fixed_rotation_30_objects_occ0.7_0.9s/images/train/n02828884_3/n04256520_4/img_b04_wood_metal_park_bench_club_house_italia_nautilus_sofa_2010-3_gray.png,random,fixed,n02818832_9,n04256520_5,Stimuli/canonical view 2/img_n02818832_9_gray.jpg,Stimuli/canonical view 2/img_n04256520_5_gray.jpg,foreground,right,Experiments/experiment_36/168.jpg,Experiments/experiment_36/169.jpg,Experiments/experiment_36/170.jpg,Experiments/experiment_36/171.jpg,448,1,2023-04-17_18h36.35.269,Occlusion_Psychophysics,2022.1.4,Win32,59.83008257,,,left,"[""right""]",[2.3679000000059887],False,,0.0,0.0,42.0,42.0,42.0,1.0,,,,,,
,,,,,,,,,,,,,,,,,,,,,0.05,,,,,,,,,,Stimuli/psy_flexible_rotation_30_objects_occ0.7_0.9s/images/train/n04256520_5/n02883344_15/img_meridiani_belmondo_bench_sofa_microwave_box_2008_gray.jpg,n04256520_5,n02883344_15,flexible,0.735755,n02818832_0,Stimuli/psy_fixed_rotation_30_objects_occ0.7_0.9s/images/train/n04256520_5/n02818832_0/img_meridiani_belmondo_bench_sofa_b03_the_sofa_and_chair_company_-_stanley_bed_2014_2010-3_gray.png,random,fixed,n04256520_5,n02883344_15,Stimuli/canonical view 2/img_n04256520_5_gray.jpg,Stimuli/canonical view 2/img_n02883344_15_gray.jpg,foreground,right,Experiments/experiment_36/172.jpg,Experiments/experiment_36/173.jpg,Experiments/experiment_36/174.jpg,Experiments/experiment_36/175.jpg,448,1,2023-04-17_18h36.35.269,Occlusion_Psychophysics,2022.1.4,Win32,59.83008257,,,left,"[""right""]",[1.1039000000059787],False,,0.0,0.0,43.0,43.0,43.0,1.0,,,,,,
,,,,,,,,,,,,,,,,,,,,,0.025,,,,,,,,,,Stimuli/psy_fixed_rotation_30_objects_occ0.7_0.9s/images/train/n03001627_9/n03928116_10/img_chair_eames_plastic_armchair_ydp_103_r_2012__vray_2008_gray.jpg,n03001627_9,n03928116_10,fixed,0.733314,n02818832_0,Stimuli/psy_fixed_rotation_30_objects_occ0.7_0.9s/images/train/n04256520_4/n02818832_0/img_club_house_italia_nautilus_sofa_b03_the_sofa_and_chair_company_-_stanley_bed_2014_2010-3_gray.png,random,fixed,n03001627_9,n03928116_10,Stimuli/canonical view 2/img_n03001627_9_gray.jpg,Stimuli/canonical view 2/img_n03928116_10_gray.jpg,foreground,left,Experiments/experiment_36/176.jpg,Experiments/experiment_36/177.jpg,Experiments/experiment_36/178.jpg,Experiments/experiment_36/179.jpg,448,1,2023-04-17_18h36.35.269,Occlusion_Psychophysics,2022.1.4,Win32,59.83008257,,,left,"[""left""]",[0.9080000000000155],False,,0.0,0.0,44.0,44.0,44.0,1.0,,,,,,
,,,,,,,,,,,,,,,,,,,,,0.05,,,,,,,,,,Stimuli/psy_fixed_rotation_30_objects_occ0.7_0.9s/images/train/n03001627_-2/n02883344_-1/img_wood_chair_woven_box_2008_gray.jpg,n03001627_-2,n02883344_-1,fixed,0.751988,n02883344_-1,Stimuli/psy_fixed_rotation_30_objects_occ0.7_0.9s/images/train/n03001627_-2/n02883344_-1/img_wood_chair_woven_box_2008-3_gray.png,foreground,same as foreground,n03001627_-2,n03001627_8,Stimuli/canonical view 2/img_n03001627_-2_gray.jpg,Stimuli/canonical view 2/img_n03001627_8_gray.jpg,random,left,Experiments/experiment_36/180.jpg,Experiments/experiment_36/181.jpg,Experiments/experiment_36/182.jpg,Experiments/experiment_36/183.jpg,448,1,2023-04-17_18h36.35.269,Occlusion_Psychophysics,2022.1.4,Win32,59.83008257,,,left,"[""right""]",[1.4709000000060541],False,,0.0,0.0,45.0,45.0,45.0,1.0,,,,,,
,,,,,,,,,,,,,,,,,,,,,0.025,,,,,,,,,,Stimuli/psy_flexible_rotation_30_objects_occ0.7_0.9s/images/train/n04405907_8/n02818832_0/img_stylized_tv_b03_the_sofa_and_chair_company_-_stanley_bed_2014_2000_gray.jpg,n04405907_8,n02818832_0,flexible,0.711579,n04256520_9,Stimuli/psy_fixed_rotation_30_objects_occ0.7_0.9s/images/train/n04256520_9/n04256520_9/img_napoleon_iii_sofa_napoleon_iii_sofa_2004-3_gray.png,random,fixed,n04405907_8,n02933112_-18,Stimuli/canonical view 2/img_n04405907_8_gray.jpg,Stimuli/canonical view 2/img_n02933112_-18_gray.jpg,random,right,Experiments/experiment_36/184.jpg,Experiments/experiment_36/185.jpg,Experiments/experiment_36/186.jpg,Experiments/experiment_36/187.jpg,448,1,2023-04-17_18h36.35.269,Occlusion_Psychophysics,2022.1.4,Win32,59.83008257,,,left,"[""right""]",[0.9337999999820568],False,,0.0,0.0,46.0,46.0,46.0,1.0,,,,,,
,,,,,,,,,,,,,,,,,,,,,0.025,,,,,,,,,,Stimuli/psy_fixed_rotation_30_objects_occ0.7_0.9s/images/train/n03928116_4/n04256520_9/img_dp_33_b_2013__vray_napoleon_iii_sofa_2007_gray.jpg,n03928116_4,n04256520_9,fixed,0.700799,n02818832_3,Stimuli/psy_fixed_rotation_30_objects_occ0.7_0.9s/images/train/n03001627_8/n02818832_3/img_chair_billiani_doll_b05_ccm_contemporary_bed_max2013_2013-3_gray.png,random,fixed,n03928116_4,n04256520_4,Stimuli/canonical view 2/img_n03928116_4_gray.jpg,Stimuli/canonical view 2/img_n04256520_4_gray.jpg,random,left,Experiments/experiment_36/188.jpg,Experiments/experiment_36/189.jpg,Experiments/experiment_36/190.jpg,Experiments/experiment_36/191.jpg,448,1,2023-04-17_18h36.35.269,Occlusion_Psychophysics,2022.1.4,Win32,59.83008257,,,left,"[""left""]",[0.8094000000060078],False,,0.0,0.0,47.0,47.0,47.0,1.0,,,,,,
,,,,,,,,,,,,,,,,,,,,,0.05,,,,,,,,,,Stimuli/psy_flexible_rotation_30_objects_occ0.7_0.9s/images/train/n02933112_4/n04256520_9/img_buffet_napoleon_iii_sofa_2003_gray.jpg,n02933112_4,n04256520_9,flexible,0.703867,n04256520_9,Stimuli/psy_flexible_rotation_30_objects_occ0.7_0.9s/images/train/n02933112_4/n04256520_9/img_buffet_napoleon_iii_sofa_2003-3_gray.png,foreground,same as foreground,n02933112_4,n02933112_-2,Stimuli/canonical view 2/img_n02933112_4_gray.jpg,Stimuli/canonical view 2/img_n02933112_-2_gray.jpg,random,right,Experiments/experiment_36/192.jpg,Experiments/experiment_36/193.jpg,Experiments/experiment_36/194.jpg,Experiments/experiment_36/195.jpg,448,1,2023-04-17_18h36.35.269,Occlusion_Psychophysics,2022.1.4,Win32,59.83008257,,,left,"[""right""]",[1.0694999999999482],False,,0.0,0.0,48.0,48.0,48.0,1.0,,,,,,
,,,,,,,,,,,,,,,,,,,,,0.05,,,,,,,,,,Stimuli/psy_flexible_rotation_30_objects_occ0.7_0.9s/images/train/n03928116_4/n02933112_4/img_dp_33_b_2013__vray_buffet_2000_gray.jpg,n03928116_4,n02933112_4,flexible,0.712929,n02883344_-1,Stimuli/psy_flexible_rotation_30_objects_occ0.7_0.9s/images/train/n02818832_9/n02883344_-1/img_bed01_blue_woven_box_2003-3_gray.png,random,flexible,n03928116_4,n02933112_4,Stimuli/canonical view 2/img_n03928116_4_gray.jpg,Stimuli/canonical view 2/img_n02933112_4_gray.jpg,foreground,right,Experiments/experiment_36/196.jpg,Experiments/experiment_36/197.jpg,Experiments/experiment_36/198.jpg,Experiments/experiment_36/199.jpg,448,1,2023-04-17_18h36.35.269,Occlusion_Psychophysics,2022.1.4,Win32,59.83008257,,,left,"[""right""]",[0.7713000000119337],False,,0.0,0.0,49.0,49.0,49.0,1.0,,,,,,
,,,,,,,,,,,,,,,,,,,,,0.025,,,,,,,,,,Stimuli/psy_flexible_rotation_30_objects_occ0.7_0.9s/images/train/n04379243_-7/n03928116_10/img_quatre_dining_table_ydp_103_r_2012__vray_2006_gray.jpg,n04379243_-7,n03928116_10,flexible,0.724971,n04379243_-7,Stimuli/psy_fixed_rotation_30_objects_occ0.7_0.9s/images/train/n04070727_0/n04379243_-7/img_b03_ka90ivi20r_2013__vray_quatre_dining_table_2001-3_gray.png,random,fixed,n04379243_-7,n02883344_0,Stimuli/canonical view 2/img_n04379243_-7_gray.jpg,Stimuli/canonical view 2/img_n02883344_0_gray.jpg,random,left,Experiments/experiment_36/200.jpg,Experiments/experiment_36/201.jpg,Experiments/experiment_36/202.jpg,Experiments/experiment_36/203.jpg,448,1,2023-04-17_18h36.35.269,Occlusion_Psychophysics,2022.1.4,Win32,59.83008257,,,right,"[""right""]",[0.9997999999820877],False,,0.0,0.0,50.0,50.0,50.0,1.0,,,,,,
,,,,,,,,,,,,,,,,,,,,,0.025,,,,,,,,,,Stimuli/psy_flexible_rotation_30_objects_occ0.7_0.9s/images/train/n04405907_8/n02933112_-2/img_stylized_tv_sink_base_white_wood_2012_gray.jpg,n04405907_8,n02933112_-2,flexible,0.760218,n02818832_0,Stimuli/psy_flexible_rotation_30_objects_occ0.7_0.9s/images/train/n04070727_5/n02818832_0/img_b05_db_apps_tech_06_13_composite_b03_the_sofa_and_chair_company_-_stanley_bed_2014_2012-3_gray.png,random,flexible,n04405907_8,n04379243_8,Stimuli/canonical view 2/img_n04405907_8_gray.jpg,Stimuli/canonical view 2/img_n04379243_8_gray.jpg,random,right,Experiments/experiment_36/204.jpg,Experiments/experiment_36/205.jpg,Experiments/experiment_36/206.jpg,Experiments/experiment_36/207.jpg,448,1,2023-04-17_18h36.35.269,Occlusion_Psychophysics,2022.1.4,Win32,59.83008257,,,right,"[""right""]",[0.9467999999820904],False,,0.0,0.0,51.0,51.0,51.0,1.0,,,,,,
,,,,,,,,,,,,,,,,,,,,,0.05,,,,,,,,,,Stimuli/psy_flexible_rotation_30_objects_occ0.7_0.9s/images/train/n02828884_4/n04405907_8/img_b05_c-5_classic_series_bench-2012_stylized_tv_2004_gray.jpg,n02828884_4,n04405907_8,flexible,0.709959,n04405907_8,Stimuli/psy_flexible_rotation_30_objects_occ0.7_0.9s/images/train/n02828884_4/n04405907_8/img_b05_c-5_classic_series_bench-2012_stylized_tv_2004-3_gray.png,foreground,same as foreground,n02828884_4,n02933112_-2,Stimuli/canonical view 2/img_n02828884_4_gray.jpg,Stimuli/canonical view 2/img_n02933112_-2_gray.jpg,random,left,Experiments/experiment_36/208.jpg,Experiments/experiment_36/209.jpg,Experiments/experiment_36/210.jpg,Experiments/experiment_36/211.jpg,448,1,2023-04-17_18h36.35.269,Occlusion_Psychophysics,2022.1.4,Win32,59.83008257,,,left,"[""left""]",[0.7849999999999682],False,,0.0,0.0,52.0,52.0,52.0,1.0,,,,,,
,,,,,,,,,,,,,,,,,,,,,0.025,,,,,,,,,,Stimuli/psy_flexible_rotation_30_objects_occ0.7_0.9s/images/train/n04405907_5/n02883344_0/img_samsung_40_uhd_smart_tv_2011_b03_box_2002_gray.jpg,n04405907_5,n02883344_0,flexible,0.883414,n02883344_0,Stimuli/psy_flexible_rotation_30_objects_occ0.7_0.9s/images/train/n04405907_5/n02883344_0/img_samsung_40_uhd_smart_tv_2011_b03_box_2002-3_gray.png,foreground,same as foreground,n04405907_5,n02883344_0,Stimuli/canonical view 2/img_n04405907_5_gray.jpg,Stimuli/canonical view 2/img_n02883344_0_gray.jpg,foreground,left,Experiments/experiment_36/212.jpg,Experiments/experiment_36/213.jpg,Experiments/experiment_36/214.jpg,Experiments/experiment_36/215.jpg,448,1,2023-04-17_18h36.35.269,Occlusion_Psychophysics,2022.1.4,Win32,59.83008257,,,right,"[""right""]",[0.8082999999821823],True,right,1.0,0.0,53.0,53.0,53.0,1.0,1.2869,,,,,
,,,,,,,,,,,,,,,,,,,,,0.05,,,,,,,,,,Stimuli/psy_flexible_rotation_30_objects_occ0.7_0.9s/images/train/n04405907_8/n03928116_0/img_stylized_tv_b02_piano_2008_gray.jpg,n04405907_8,n03928116_0,flexible,0.763161,n02933112_-2,Stimuli/psy_flexible_rotation_30_objects_occ0.7_0.9s/images/train/n03928116_0/n02933112_-2/img_b02_piano_sink_base_white_wood_2007-3_gray.png,random,flexible,n04405907_8,n03928116_0,Stimuli/canonical view 2/img_n04405907_8_gray.jpg,Stimuli/canonical view 2/img_n03928116_0_gray.jpg,foreground,right,Experiments/experiment_36/216.jpg,Experiments/experiment_36/217.jpg,Experiments/experiment_36/218.jpg,Experiments/experiment_36/219.jpg,448,1,2023-04-17_18h36.35.269,Occlusion_Psychophysics,2022.1.4,Win32,59.83008257,,,right,"[""right""]",[0.8042999999820495],False,,0.0,0.0,54.0,54.0,54.0,1.0,,,,,,
,,,,,,,,,,,,,,,,,,,,,0.025,,,,,,,,,,Stimuli/psy_flexible_rotation_30_objects_occ0.7_0.9s/images/train/n04256520_9/n02818832_3/img_napoleon_iii_sofa_b05_ccm_contemporary_bed_max2013_2002_gray.jpg,n04256520_9,n02818832_3,flexible,0.708299,n02818832_9,Stimuli/psy_flexible_rotation_30_objects_occ0.7_0.9s/images/train/n02933112_-18/n02818832_9/img_cgaxis_models_48_26_vray_composite_bed01_blue_2005-3_gray.png,random,flexible,n04256520_9,n02818832_3,Stimuli/canonical view 2/img_n04256520_9_gray.jpg,Stimuli/canonical view 2/img_n02818832_3_gray.jpg,foreground,right,Experiments/experiment_36/220.jpg,Experiments/experiment_36/221.jpg,Experiments/experiment_36/222.jpg,Experiments/experiment_36/223.jpg,448,1,2023-04-17_18h36.35.269,Occlusion_Psychophysics,2022.1.4,Win32,59.83008257,,,right,"[""left""]",[1.049900000006005],False,,0.0,0.0,55.0,55.0,55.0,1.0,,,,,,
,,,,,,,,,,,,,,,,,,,,,0.025,,,,,,,,,,Stimuli/psy_fixed_rotation_30_objects_occ0.7_0.9s/images/train/n04405907_8/n02883344_15/img_stylized_tv_microwave_box_2014_gray.jpg,n04405907_8,n02883344_15,fixed,0.813343,n04256520_5,Stimuli/psy_fixed_rotation_30_objects_occ0.7_0.9s/images/train/n02933112_-2/n04256520_5/img_sink_base_white_wood_meridiani_belmondo_bench_sofa_2013-3_gray.png,random,fixed,n04405907_8,n02883344_15,Stimuli/canonical view 2/img_n04405907_8_gray.jpg,Stimuli/canonical view 2/img_n02883344_15_gray.jpg,foreground,right,Experiments/experiment_36/224.jpg,Experiments/experiment_36/225.jpg,Experiments/experiment_36/226.jpg,Experiments/experiment_36/227.jpg,448,1,2023-04-17_18h36.35.269,Occlusion_Psychophysics,2022.1.4,Win32,59.83008257,,,left,"[""right""]",[0.7554999999999836],False,,0.0,0.0,56.0,56.0,56.0,1.0,,,,,,
,,,,,,,,,,,,,,,,,,,,,0.05,,,,,,,,,,Stimuli/psy_flexible_rotation_30_objects_occ0.7_0.9s/images/train/n04379243_0/n02828884_3/img_17th_c._monastery_dining_table_2010_b04_wood_metal_park_bench_2012_gray.jpg,n04379243_0,n02828884_3,flexible,0.764119,n02828884_3,Stimuli/psy_flexible_rotation_30_objects_occ0.7_0.9s/images/train/n04379243_0/n02828884_3/img_17th_c._monastery_dining_table_2010_b04_wood_metal_park_bench_2012-3_gray.png,foreground,same as foreground,n04379243_0,n02828884_3,Stimuli/canonical view 2/img_n04379243_0_gray.jpg,Stimuli/canonical view 2/img_n02828884_3_gray.jpg,foreground,left,Experiments/experiment_36/228.jpg,Experiments/experiment_36/229.jpg,Experiments/experiment_36/230.jpg,Experiments/experiment_36/231.jpg,448,1,2023-04-17_18h36.35.269,Occlusion_Psychophysics,2022.1.4,Win32,59.83008257,,,right,"[""right""]",[0.9524000000059232],False,,0.0,0.0,57.0,57.0,57.0,1.0,,,,,,
,,,,,,,,,,,,,,,,,,,,,0.05,,,,,,,,,,Stimuli/psy_fixed_rotation_30_objects_occ0.7_0.9s/images/train/n04405907_9/n04405907_5/img_vray_004_samsung_40_uhd_smart_tv_2011_2013_gray.jpg,n04405907_9,n04405907_5,fixed,0.713142,n04405907_5,Stimuli/psy_fixed_rotation_30_objects_occ0.7_0.9s/images/train/n04405907_9/n04405907_5/img_vray_004_samsung_40_uhd_smart_tv_2011_2013-3_gray.png,foreground,same as foreground,n04405907_9,n04405907_5,Stimuli/canonical view 2/img_n04405907_9_gray.jpg,Stimuli/canonical view 2/img_n04405907_5_gray.jpg,foreground,left,Experiments/experiment_36/232.jpg,Experiments/experiment_36/233.jpg,Experiments/experiment_36/234.jpg,Experiments/experiment_36/235.jpg,448,1,2023-04-17_18h36.35.269,Occlusion_Psychophysics,2022.1.4,Win32,59.83008257,,,right,"[""left""]",[1.0171999999880654],False,,0.0,0.0,58.0,58.0,58.0,1.0,,,,,,
,,,,,,,,,,,,,,,,,,,,,0.025,,,,,,,,,,Stimuli/psy_flexible_rotation_30_objects_occ0.7_0.9s/images/train/n02828884_9/n04256520_4/img_cr-96_bench_club_house_italia_nautilus_sofa_2005_gray.jpg,n02828884_9,n04256520_4,flexible,0.704821,n04256520_4,Stimuli/psy_flexible_rotation_30_objects_occ0.7_0.9s/images/train/n02828884_9/n04256520_4/img_cr-96_bench_club_house_italia_nautilus_sofa_2005-3_gray.png,foreground,same as foreground,n02828884_9,n04379243_0,Stimuli/canonical view 2/img_n02828884_9_gray.jpg,Stimuli/canonical view 2/img_n04379243_0_gray.jpg,random,right,Experiments/experiment_36/236.jpg,Experiments/experiment_36/237.jpg,Experiments/experiment_36/238.jpg,Experiments/experiment_36/239.jpg,448,1,2023-04-17_18h36.35.269,Occlusion_Psychophysics,2022.1.4,Win32,59.83008257,,,left,"[""left""]",[1.2679999999999154],False,,0.0,0.0,59.0,59.0,59.0,1.0,,,,,,
,,,,,,,,,,,,,,,,,,,,,0.05,,,,,,,,,,Stimuli/psy_fixed_rotation_30_objects_occ0.7_0.9s/images/train/n03928116_10/n03928116_4/img_ydp_103_r_2012__vray_dp_33_b_2013__vray_2009_gray.jpg,n03928116_10,n03928116_4,fixed,0.72443,n03928116_4,Stimuli/psy_fixed_rotation_30_objects_occ0.7_0.9s/images/train/n03928116_10/n03928116_4/img_ydp_103_r_2012__vray_dp_33_b_2013__vray_2009-3_gray.png,foreground,same as foreground,n03928116_10,n04405907_8,Stimuli/canonical view 2/img_n03928116_10_gray.jpg,Stimuli/canonical view 2/img_n04405907_8_gray.jpg,random,left,Experiments/experiment_36/240.jpg,Experiments/experiment_36/241.jpg,Experiments/experiment_36/242.jpg,Experiments/experiment_36/243.jpg,448,1,2023-04-17_18h36.35.269,Occlusion_Psychophysics,2022.1.4,Win32,59.83008257,,,right,"[""left""]",[1.1516999999880682],False,,0.0,0.0,60.0,60.0,60.0,1.0,,,,,,
,,,,,,,,,,,,,,,,,,,,,0.05,,,,,,,,,,Stimuli/psy_flexible_rotation_30_objects_occ0.7_0.9s/images/train/n04405907_9/n04256520_5/img_vray_004_meridiani_belmondo_bench_sofa_2008_gray.jpg,n04405907_9,n04256520_5,flexible,0.764349,n04256520_5,Stimuli/psy_flexible_rotation_30_objects_occ0.7_0.9s/images/train/n04405907_9/n04256520_5/img_vray_004_meridiani_belmondo_bench_sofa_2008-3_gray.png,foreground,same as foreground,n04405907_9,n04256520_5,Stimuli/canonical view 2/img_n04405907_9_gray.jpg,Stimuli/canonical view 2/img_n04256520_5_gray.jpg,foreground,right,Experiments/experiment_36/244.jpg,Experiments/experiment_36/245.jpg,Experiments/experiment_36/246.jpg,Experiments/experiment_36/247.jpg,448,1,2023-04-17_18h36.35.269,Occlusion_Psychophysics,2022.1.4,Win32,59.83008257,,,right,"[""left""]",[1.4850000000000136],False,,0.0,0.0,61.0,61.0,61.0,1.0,,,,,,
,,,,,,,,,,,,,,,,,,,,,0.05,,,,,,,,,,Stimuli/psy_flexible_rotation_30_objects_occ0.7_0.9s/images/train/n04405907_5/n02883344_0/img_samsung_40_uhd_smart_tv_2011_b03_box_2012_gray.jpg,n04405907_5,n02883344_0,flexible,0.75188,n03928116_0,Stimuli/psy_flexible_rotation_30_objects_occ0.7_0.9s/images/train/n04405907_8/n03928116_0/img_stylized_tv_b02_piano_2013-3_gray.png,random,flexible,n04405907_5,n02818832_9,Stimuli/canonical view 2/img_n04405907_5_gray.jpg,Stimuli/canonical view 2/img_n02818832_9_gray.jpg,random,right,Experiments/experiment_36/248.jpg,Experiments/experiment_36/249.jpg,Experiments/experiment_36/250.jpg,Experiments/experiment_36/251.jpg,448,1,2023-04-17_18h36.35.269,Occlusion_Psychophysics,2022.1.4,Win32,59.83008257,,,left,"[""right""]",[0.9270999999939704],False,,0.0,0.0,62.0,62.0,62.0,1.0,,,,,,
,,,,,,,,,,,,,,,,,,,,,0.025,,,,,,,,,,Stimuli/psy_flexible_rotation_30_objects_occ0.7_0.9s/images/train/n02933112_-18/n04405907_9/img_cgaxis_models_48_26_vray_composite_vray_004_2011_gray.jpg,n02933112_-18,n04405907_9,flexible,0.705233,n04256520_9,Stimuli/psy_flexible_rotation_30_objects_occ0.7_0.9s/images/train/n02828884_4/n04256520_9/img_b05_c-5_classic_series_bench-2012_napoleon_iii_sofa_2013-3_gray.png,random,flexible,n02933112_-18,n04405907_9,Stimuli/canonical view 2/img_n02933112_-18_gray.jpg,Stimuli/canonical view 2/img_n04405907_9_gray.jpg,foreground,left,Experiments/experiment_36/252.jpg,Experiments/experiment_36/253.jpg,Experiments/experiment_36/254.jpg,Experiments/experiment_36/255.jpg,448,1,2023-04-17_18h36.35.269,Occlusion_Psychophysics,2022.1.4,Win32,59.83008257,,,right,"[""left""]",[1.6352999999820668],False,,0.0,0.0,63.0,63.0,63.0,1.0,,,,,,
,,,,,,,,,,,,,,,,,,,,,0.05,,,,,,,,,,Stimuli/psy_flexible_rotation_30_objects_occ0.7_0.9s/images/train/n02933112_-18/n02933112_4/img_cgaxis_models_48_26_vray_composite_buffet_2001_gray.jpg,n02933112_-18,n02933112_4,flexible,0.763402,n02933112_4,Stimuli/psy_flexible_rotation_30_objects_occ0.7_0.9s/images/train/n02933112_-18/n02933112_4/img_cgaxis_models_48_26_vray_composite_buffet_2001-3_gray.png,foreground,same as foreground,n02933112_-18,n04379243_8,Stimuli/canonical view 2/img_n02933112_-18_gray.jpg,Stimuli/canonical view 2/img_n04379243_8_gray.jpg,random,left,Experiments/experiment_36/256.jpg,Experiments/experiment_36/257.jpg,Experiments/experiment_36/258.jpg,Experiments/experiment_36/259.jpg,448,1,2023-04-17_18h36.35.269,Occlusion_Psychophysics,2022.1.4,Win32,59.83008257,,,left,"[""right""]",[0.8576999999880854],False,,0.0,0.0,64.0,64.0,64.0,1.0,,,,,,
,,,,,,,,,,,,,,,,,,,,,0.05,,,,,,,,,,Stimuli/psy_flexible_rotation_30_objects_occ0.7_0.9s/images/train/n02818832_9/n02828884_4/img_bed01_blue_b05_c-5_classic_series_bench-2012_2005_gray.jpg,n02818832_9,n02828884_4,flexible,0.806751,n02828884_4,Stimuli/psy_flexible_rotation_30_objects_occ0.7_0.9s/images/train/n02818832_9/n02828884_4/img_bed01_blue_b05_c-5_classic_series_bench-2012_2005-3_gray.png,foreground,same as foreground,n02818832_9,n04405907_8,Stimuli/canonical view 2/img_n02818832_9_gray.jpg,Stimuli/canonical view 2/img_n04405907_8_gray.jpg,random,right,Experiments/experiment_36/260.jpg,Experiments/experiment_36/261.jpg,Experiments/experiment_36/262.jpg,Experiments/experiment_36/263.jpg,448,1,2023-04-17_18h36.35.269,Occlusion_Psychophysics,2022.1.4,Win32,59.83008257,,,right,"[""right""]",[1.1369000000059941],False,,0.0,0.0,65.0,65.0,65.0,1.0,,,,,,
,,,,,,,,,,,,,,,,,,,,,0.025,,,,,,,,,,Stimuli/psy_flexible_rotation_30_objects_occ0.7_0.9s/images/train/n04379243_8/n02883344_0/img_glass_table_b03_box_2013_gray.jpg,n04379243_8,n02883344_0,flexible,0.735141,n04256520_5,Stimuli/psy_flexible_rotation_30_objects_occ0.7_0.9s/images/train/n02828884_9/n04256520_5/img_cr-96_bench_meridiani_belmondo_bench_sofa_2009-3_gray.png,random,flexible,n04379243_8,n02933112_-2,Stimuli/canonical view 2/img_n04379243_8_gray.jpg,Stimuli/canonical view 2/img_n02933112_-2_gray.jpg,random,left,Experiments/experiment_36/264.jpg,Experiments/experiment_36/265.jpg,Experiments/experiment_36/266.jpg,Experiments/experiment_36/267.jpg,448,1,2023-04-17_18h36.35.269,Occlusion_Psychophysics,2022.1.4,Win32,59.83008257,,,left,"[""left""]",[1.6038000000119155],False,,0.0,0.0,66.0,66.0,66.0,1.0,,,,,,
,,,,,,,,,,,,,,,,,,,,,0.05,,,,,,,,,,Stimuli/psy_fixed_rotation_30_objects_occ0.7_0.9s/images/train/n03928116_0/n04379243_-7/img_b02_piano_quatre_dining_table_2009_gray.jpg,n03928116_0,n04379243_-7,fixed,0.842501,n03928116_0,Stimuli/psy_fixed_rotation_30_objects_occ0.7_0.9s/images/train/n04405907_5/n03928116_0/img_samsung_40_uhd_smart_tv_2011_b02_piano_2007-3_gray.png,random,fixed,n03928116_0,n04379243_-7,Stimuli/canonical view 2/img_n03928116_0_gray.jpg,Stimuli/canonical view 2/img_n04379243_-7_gray.jpg,foreground,right,Experiments/experiment_36/268.jpg,Experiments/experiment_36/269.jpg,Experiments/experiment_36/270.jpg,Experiments/experiment_36/271.jpg,448,1,2023-04-17_18h36.35.269,Occlusion_Psychophysics,2022.1.4,Win32,59.83008257,,,left,"[""left""]",[0.8613000000119655],False,,0.0,0.0,67.0,67.0,67.0,1.0,,,,,,
,,,,,,,,,,,,,,,,,,,,,0.025,,,,,,,,,,Stimuli/psy_flexible_rotation_30_objects_occ0.7_0.9s/images/train/n04256520_9/n02818832_0/img_napoleon_iii_sofa_b03_the_sofa_and_chair_company_-_stanley_bed_2014_2015_gray.jpg,n04256520_9,n02818832_0,flexible,0.71131,n02818832_0,Stimuli/psy_flexible_rotation_30_objects_occ0.7_0.9s/images/train/n04256520_9/n02818832_0/img_napoleon_iii_sofa_b03_the_sofa_and_chair_company_-_stanley_bed_2014_2015-3_gray.png,foreground,same as foreground,n04256520_9,n02818832_3,Stimuli/canonical view 2/img_n04256520_9_gray.jpg,Stimuli/canonical view 2/img_n02818832_3_gray.jpg,random,right,Experiments/experiment_36/272.jpg,Experiments/experiment_36/273.jpg,Experiments/experiment_36/274.jpg,Experiments/experiment_36/275.jpg,448,1,2023-04-17_18h36.35.269,Occlusion_Psychophysics,2022.1.4,Win32,59.83008257,,,left,"[""left""]",[0.9839000000059741],False,,0.0,0.0,68.0,68.0,68.0,1.0,,,,,,
,,,,,,,,,,,,,,,,,,,,,0.025,,,,,,,,,,Stimuli/psy_fixed_rotation_30_objects_occ0.7_0.9s/images/train/n02933112_-2/n04405907_8/img_sink_base_white_wood_stylized_tv_2008_gray.jpg,n02933112_-2,n04405907_8,fixed,0.715792,n02818832_9,Stimuli/psy_fixed_rotation_30_objects_occ0.7_0.9s/images/train/n02818832_0/n02818832_9/img_b03_the_sofa_and_chair_company_-_stanley_bed_2014_bed01_blue_2000-3_gray.png,random,fixed,n02933112_-2,n03928116_0,Stimuli/canonical view 2/img_n02933112_-2_gray.jpg,Stimuli/canonical view 2/img_n03928116_0_gray.jpg,random,left,Experiments/experiment_36/276.jpg,Experiments/experiment_36/277.jpg,Experiments/experiment_36/278.jpg,Experiments/experiment_36/279.jpg,448,1,2023-04-17_18h36.35.269,Occlusion_Psychophysics,2022.1.4,Win32,59.83008257,,,left,"[""right""]",[1.1251999999881264],False,,0.0,0.0,69.0,69.0,69.0,1.0,,,,,,
,,,,,,,,,,,,,,,,,,,,,0.05,,,,,,,,,,Stimuli/psy_fixed_rotation_30_objects_occ0.7_0.9s/images/train/n04256520_4/n03928116_0/img_club_house_italia_nautilus_sofa_b02_piano_2006_gray.jpg,n04256520_4,n03928116_0,fixed,0.819119,n03928116_0,Stimuli/psy_fixed_rotation_30_objects_occ0.7_0.9s/images/train/n04256520_4/n03928116_0/img_club_house_italia_nautilus_sofa_b02_piano_2006-3_gray.png,foreground,same as foreground,n04256520_4,n04379243_-7,Stimuli/canonical view 2/img_n04256520_4_gray.jpg,Stimuli/canonical view 2/img_n04379243_-7_gray.jpg,random,right,Experiments/experiment_36/280.jpg,Experiments/experiment_36/281.jpg,Experiments/experiment_36/282.jpg,Experiments/experiment_36/283.jpg,448,1,2023-04-17_18h36.35.269,Occlusion_Psychophysics,2022.1.4,Win32,59.83008257,,,right,"[""right""]",[1.4299000000060005],False,,0.0,0.0,70.0,70.0,70.0,1.0,,,,,,
,,,,,,,,,,,,,,,,,,,,,0.05,,,,,,,,,,Stimuli/psy_flexible_rotation_30_objects_occ0.7_0.9s/images/train/n03928116_4/n04379243_-7/img_dp_33_b_2013__vray_quatre_dining_table_2010_gray.jpg,n03928116_4,n04379243_-7,flexible,0.758516,n04379243_-7,Stimuli/psy_flexible_rotation_30_objects_occ0.7_0.9s/images/train/n03928116_4/n04379243_-7/img_dp_33_b_2013__vray_quatre_dining_table_2010-3_gray.png,foreground,same as foreground,n03928116_4,n04379243_-7,Stimuli/canonical view 2/img_n03928116_4_gray.jpg,Stimuli/canonical view 2/img_n04379243_-7_gray.jpg,foreground,right,Experiments/experiment_36/284.jpg,Experiments/experiment_36/285.jpg,Experiments/experiment_36/286.jpg,Experiments/experiment_36/287.jpg,448,1,2023-04-17_18h36.35.269,Occlusion_Psychophysics,2022.1.4,Win32,59.83008257,,,left,"[""left""]",[1.0508999999760817],False,,0.0,0.0,71.0,71.0,71.0,1.0,,,,,,
,,,,,,,,,,,,,,,,,,,,,0.05,,,,,,,,,,Stimuli/psy_flexible_rotation_30_objects_occ0.7_0.9s/images/train/n02883344_-1/n02828884_3/img_woven_box_b04_wood_metal_park_bench_2004_gray.jpg,n02883344_-1,n02828884_3,flexible,0.776125,n02828884_3,Stimuli/psy_flexible_rotation_30_objects_occ0.7_0.9s/images/train/n02883344_-1/n02828884_3/img_woven_box_b04_wood_metal_park_bench_2004-3_gray.png,foreground,same as foreground,n02883344_-1,n02828884_3,Stimuli/canonical view 2/img_n02883344_-1_gray.jpg,Stimuli/canonical view 2/img_n02828884_3_gray.jpg,foreground,right,Experiments/experiment_36/288.jpg,Experiments/experiment_36/289.jpg,Experiments/experiment_36/290.jpg,Experiments/experiment_36/291.jpg,448,1,2023-04-17_18h36.35.269,Occlusion_Psychophysics,2022.1.4,Win32,59.83008257,,,right,"[""right""]",[0.8585000000000491],False,,0.0,0.0,72.0,72.0,72.0,1.0,,,,,,
,,,,,,,,,,,,,,,,,,,,,0.05,,,,,,,,,,Stimuli/psy_flexible_rotation_30_objects_occ0.7_0.9s/images/train/n04379243_0/n04256520_5/img_17th_c._monastery_dining_table_2010_meridiani_belmondo_bench_sofa_2009_gray.jpg,n04379243_0,n04256520_5,flexible,0.735258,n04256520_5,Stimuli/psy_flexible_rotation_30_objects_occ0.7_0.9s/images/train/n04379243_0/n04256520_5/img_17th_c._monastery_dining_table_2010_meridiani_belmondo_bench_sofa_2009-3_gray.png,foreground,same as foreground,n04379243_0,n04256520_5,Stimuli/canonical view 2/img_n04379243_0_gray.jpg,Stimuli/canonical view 2/img_n04256520_5_gray.jpg,foreground,right,Experiments/experiment_36/292.jpg,Experiments/experiment_36/293.jpg,Experiments/experiment_36/294.jpg,Experiments/experiment_36/295.jpg,448,1,2023-04-17_18h36.35.269,Occlusion_Psychophysics,2022.1.4,Win32,59.83008257,,,right,"[""right""]",[0.8886999999881482],True,right,1.0,0.0,73.0,73.0,73.0,1.0,0.9233,,,,,
,,,,,,,,,,,,,,,,,,,,,0.05,,,,,,,,,,Stimuli/psy_fixed_rotation_30_objects_occ0.7_0.9s/images/train/n02883344_-1/n02818832_0/img_woven_box_b03_the_sofa_and_chair_company_-_stanley_bed_2014_2001_gray.jpg,n02883344_-1,n02818832_0,fixed,0.821308,n02818832_0,Stimuli/psy_fixed_rotation_30_objects_occ0.7_0.9s/images/train/n02883344_-1/n02818832_0/img_woven_box_b03_the_sofa_and_chair_company_-_stanley_bed_2014_2001-3_gray.png,foreground,same as foreground,n02883344_-1,n02818832_0,Stimuli/canonical view 2/img_n02883344_-1_gray.jpg,Stimuli/canonical view 2/img_n02818832_0_gray.jpg,foreground,right,Experiments/experiment_36/296.jpg,Experiments/experiment_36/297.jpg,Experiments/experiment_36/298.jpg,Experiments/experiment_36/299.jpg,448,1,2023-04-17_18h36.35.269,Occlusion_Psychophysics,2022.1.4,Win32,59.83008257,,,left,"[""left""]",[1.5945999999939886],False,,0.0,0.0,74.0,74.0,74.0,1.0,,,,,,
,,,,,,,,,,,,,,,,,,,,,0.025,,,,,,,,,,Stimuli/psy_flexible_rotation_30_objects_occ0.7_0.9s/images/train/n04256520_9/n02933112_4/img_napoleon_iii_sofa_buffet_2005_gray.jpg,n04256520_9,n02933112_4,flexible,0.716535,n02933112_4,Stimuli/psy_flexible_rotation_30_objects_occ0.7_0.9s/images/train/n04256520_9/n02933112_4/img_napoleon_iii_sofa_buffet_2005-3_gray.png,foreground,same as foreground,n04256520_9,n02933112_4,Stimuli/canonical view 2/img_n04256520_9_gray.jpg,Stimuli/canonical view 2/img_n02933112_4_gray.jpg,foreground,left,Experiments/experiment_36/300.jpg,Experiments/experiment_36/301.jpg,Experiments/experiment_36/302.jpg,Experiments/experiment_36/303.jpg,448,1,2023-04-17_18h36.35.269,Occlusion_Psychophysics,2022.1.4,Win32,59.83008257,,,left,"[""left""]",[0.7572000000178605],False,,0.0,0.0,75.0,75.0,75.0,1.0,,,,,,
,,,,,,,,,,,,,,,,,,,,,0.025,,,,,,,,,,Stimuli/psy_flexible_rotation_30_objects_occ0.7_0.9s/images/train/n02933112_4/n04405907_8/img_buffet_stylized_tv_2012_gray.jpg,n02933112_4,n04405907_8,flexible,0.722377,n03001627_8,Stimuli/psy_flexible_rotation_30_objects_occ0.7_0.9s/images/train/n03928116_0/n03001627_8/img_b02_piano_chair_billiani_doll_2002-3_gray.png,random,flexible,n02933112_4,n02818832_0,Stimuli/canonical view 2/img_n02933112_4_gray.jpg,Stimuli/canonical view 2/img_n02818832_0_gray.jpg,random,left,Experiments/experiment_36/304.jpg,Experiments/experiment_36/305.jpg,Experiments/experiment_36/306.jpg,Experiments/experiment_36/307.jpg,448,1,2023-04-17_18h36.35.269,Occlusion_Psychophysics,2022.1.4,Win32,59.83008257,,,left,"[""left""]",[0.7523000000119282],False,,0.0,0.0,76.0,76.0,76.0,1.0,,,,,,
,,,,,,,,,,,,,,,,,,,,,0.025,,,,,,,,,,Stimuli/psy_flexible_rotation_30_objects_occ0.7_0.9s/images/train/n02883344_-1/n04405907_9/img_woven_box_vray_004_2012_gray.jpg,n02883344_-1,n04405907_9,flexible,0.885568,n04405907_9,Stimuli/psy_flexible_rotation_30_objects_occ0.7_0.9s/images/train/n02883344_-1/n04405907_9/img_woven_box_vray_004_2012-3_gray.png,foreground,same as foreground,n02883344_-1,n04405907_9,Stimuli/canonical view 2/img_n02883344_-1_gray.jpg,Stimuli/canonical view 2/img_n04405907_9_gray.jpg,foreground,left,Experiments/experiment_36/308.jpg,Experiments/experiment_36/309.jpg,Experiments/experiment_36/310.jpg,Experiments/experiment_36/311.jpg,448,1,2023-04-17_18h36.35.269,Occlusion_Psychophysics,2022.1.4,Win32,59.83008257,,,right,"[""right""]",[0.7702999999820577],False,,0.0,0.0,77.0,77.0,77.0,1.0,,,,,,
,,,,,,,,,,,,,,,,,,,,,0.025,,,,,,,,,,Stimuli/psy_flexible_rotation_30_objects_occ0.7_0.9s/images/train/n02883344_-1/n04405907_5/img_woven_box_samsung_40_uhd_smart_tv_2011_2007_gray.jpg,n02883344_-1,n04405907_5,flexible,0.776314,n04405907_5,Stimuli/psy_flexible_rotation_30_objects_occ0.7_0.9s/images/train/n02883344_-1/n04405907_5/img_woven_box_samsung_40_uhd_smart_tv_2011_2007-3_gray.png,foreground,same as foreground,n02883344_-1,n04405907_5,Stimuli/canonical view 2/img_n02883344_-1_gray.jpg,Stimuli/canonical view 2/img_n04405907_5_gray.jpg,foreground,right,Experiments/experiment_36/312.jpg,Experiments/experiment_36/313.jpg,Experiments/experiment_36/314.jpg,Experiments/experiment_36/315.jpg,448,1,2023-04-17_18h36.35.269,Occlusion_Psychophysics,2022.1.4,Win32,59.83008257,,,left,"[""left""]",[0.8836999999881527],False,,0.0,0.0,78.0,78.0,78.0,1.0,,,,,,
,,,,,,,,,,,,,,,,,,,,,0.05,,,,,,,,,,Stimuli/psy_fixed_rotation_30_objects_occ0.7_0.9s/images/train/n04379243_-7/n04405907_8/img_quatre_dining_table_stylized_tv_2009_gray.jpg,n04379243_-7,n04405907_8,fixed,0.708124,n04379243_8,Stimuli/psy_fixed_rotation_30_objects_occ0.7_0.9s/images/train/n02818832_0/n04379243_8/img_b03_the_sofa_and_chair_company_-_stanley_bed_2014_glass_table_2005-3_gray.png,random,fixed,n04379243_-7,n04405907_8,Stimuli/canonical view 2/img_n04379243_-7_gray.jpg,Stimuli/canonical view 2/img_n04405907_8_gray.jpg,foreground,left,Experiments/experiment_36/316.jpg,Experiments/experiment_36/317.jpg,Experiments/experiment_36/318.jpg,Experiments/experiment_36/319.jpg,448,1,2023-04-17_18h36.35.269,Occlusion_Psychophysics,2022.1.4,Win32,59.83008257,,,left,"[""right""]",[1.3082999999821823],False,,0.0,0.0,79.0,79.0,79.0,1.0,,,,,,
,,,,,,,,,,,,,,,,,,,,,0.05,,,,,,,,,,Stimuli/psy_flexible_rotation_30_objects_occ0.7_0.9s/images/train/n04379243_0/n04405907_9/img_17th_c._monastery_dining_table_2010_vray_004_2007_gray.jpg,n04379243_0,n04405907_9,flexible,0.746778,n02933112_-18,Stimuli/psy_flexible_rotation_30_objects_occ0.7_0.9s/images/train/n02818832_9/n02933112_-18/img_bed01_blue_cgaxis_models_48_26_vray_composite_2005-3_gray.png,random,flexible,n04379243_0,n04405907_9,Stimuli/canonical view 2/img_n04379243_0_gray.jpg,Stimuli/canonical view 2/img_n04405907_9_gray.jpg,foreground,right,Experiments/experiment_36/320.jpg,Experiments/experiment_36/321.jpg,Experiments/experiment_36/322.jpg,Experiments/experiment_36/323.jpg,448,1,2023-04-17_18h36.35.269,Occlusion_Psychophysics,2022.1.4,Win32,59.83008257,,,left,"[""left""]",[0.70900000000006],False,,0.0,0.0,80.0,80.0,80.0,1.0,,,,,,
,,,,,,,,,,,,,,,,,,,,,0.025,,,,,,,,,,Stimuli/psy_fixed_rotation_30_objects_occ0.7_0.9s/images/train/n02828884_9/n02933112_-2/img_cr-96_bench_sink_base_white_wood_2007_gray.jpg,n02828884_9,n02933112_-2,fixed,0.773359,n04405907_8,Stimuli/psy_fixed_rotation_30_objects_occ0.7_0.9s/images/train/n02933112_4/n04405907_8/img_buffet_stylized_tv_2001-3_gray.png,random,fixed,n02828884_9,n04405907_5,Stimuli/canonical view 2/img_n02828884_9_gray.jpg,Stimuli/canonical view 2/img_n04405907_5_gray.jpg,random,right,Experiments/experiment_36/324.jpg,Experiments/experiment_36/325.jpg,Experiments/experiment_36/326.jpg,Experiments/experiment_36/327.jpg,448,1,2023-04-17_18h36.35.269,Occlusion_Psychophysics,2022.1.4,Win32,59.83008257,,,right,"[""right""]",[1.023599999994076],False,,0.0,0.0,81.0,81.0,81.0,1.0,,,,,,
,,,,,,,,,,,,,,,,,,,,,0.05,,,,,,,,,,Stimuli/psy_flexible_rotation_30_objects_occ0.7_0.9s/images/train/n03928116_0/n04405907_9/img_b02_piano_vray_004_2001_gray.jpg,n03928116_0,n04405907_9,flexible,0.784077,n04405907_9,Stimuli/psy_flexible_rotation_30_objects_occ0.7_0.9s/images/train/n03928116_0/n04405907_9/img_b02_piano_vray_004_2001-3_gray.png,foreground,same as foreground,n03928116_0,n04405907_9,Stimuli/canonical view 2/img_n03928116_0_gray.jpg,Stimuli/canonical view 2/img_n04405907_9_gray.jpg,foreground,left,Experiments/experiment_36/328.jpg,Experiments/experiment_36/329.jpg,Experiments/experiment_36/330.jpg,Experiments/experiment_36/331.jpg,448,1,2023-04-17_18h36.35.269,Occlusion_Psychophysics,2022.1.4,Win32,59.83008257,,,left,"[""right""]",[2.0357000000178687],False,,0.0,0.0,82.0,82.0,82.0,1.0,,,,,,
,,,,,,,,,,,,,,,,,,,,,0.025,,,,,,,,,,Stimuli/psy_flexible_rotation_30_objects_occ0.7_0.9s/images/train/n04256520_4/n02818832_3/img_club_house_italia_nautilus_sofa_b05_ccm_contemporary_bed_max2013_2005_gray.jpg,n04256520_4,n02818832_3,flexible,0.785256,n04379243_-7,Stimuli/psy_flexible_rotation_30_objects_occ0.7_0.9s/images/train/n03928116_4/n04379243_-7/img_dp_33_b_2013__vray_quatre_dining_table_2013-3_gray.png,random,flexible,n04256520_4,n02818832_3,Stimuli/canonical view 2/img_n04256520_4_gray.jpg,Stimuli/canonical view 2/img_n02818832_3_gray.jpg,foreground,right,Experiments/experiment_36/332.jpg,Experiments/experiment_36/333.jpg,Experiments/experiment_36/334.jpg,Experiments/experiment_36/335.jpg,448,1,2023-04-17_18h36.35.269,Occlusion_Psychophysics,2022.1.4,Win32,59.83008257,,,right,"[""left""]",[1.286699999988059],False,,0.0,0.0,83.0,83.0,83.0,1.0,,,,,,
,,,,,,,,,,,,,,,,,,,,,0.025,,,,,,,,,,Stimuli/psy_flexible_rotation_30_objects_occ0.7_0.9s/images/train/n03928116_4/n02933112_4/img_dp_33_b_2013__vray_buffet_2004_gray.jpg,n03928116_4,n02933112_4,flexible,0.800313,n02933112_4,Stimuli/psy_flexible_rotation_30_objects_occ0.7_0.9s/images/train/n03928116_4/n02933112_4/img_dp_33_b_2013__vray_buffet_2004-3_gray.png,foreground,same as foreground,n03928116_4,n02933112_4,Stimuli/canonical view 2/img_n03928116_4_gray.jpg,Stimuli/canonical view 2/img_n02933112_4_gray.jpg,foreground,right,Experiments/experiment_36/336.jpg,Experiments/experiment_36/337.jpg,Experiments/experiment_36/338.jpg,Experiments/experiment_36/339.jpg,448,1,2023-04-17_18h36.35.269,Occlusion_Psychophysics,2022.1.4,Win32,59.83008257,,,right,"[""right""]",[1.378900000005956],False,,0.0,0.0,84.0,84.0,84.0,1.0,,,,,,
,,,,,,,,,,,,,,,,,,,,,0.05,,,,,,,,,,Stimuli/psy_fixed_rotation_30_objects_occ0.7_0.9s/images/train/n04405907_8/n02818832_3/img_stylized_tv_b05_ccm_contemporary_bed_max2013_2001_gray.jpg,n04405907_8,n02818832_3,fixed,0.784757,n02828884_3,Stimuli/psy_flexible_rotation_30_objects_occ0.7_0.9s/images/train/n02818832_9/n02828884_3/img_bed01_blue_b04_wood_metal_park_bench_2012-3_gray.png,random,flexible,n04405907_8,n02883344_0,Stimuli/canonical view 2/img_n04405907_8_gray.jpg,Stimuli/canonical view 2/img_n02883344_0_gray.jpg,random,left,Experiments/experiment_36/340.jpg,Experiments/experiment_36/341.jpg,Experiments/experiment_36/342.jpg,Experiments/experiment_36/343.jpg,448,1,2023-04-17_18h36.35.269,Occlusion_Psychophysics,2022.1.4,Win32,59.83008257,,,right,"[""left""]",[1.7030999999940377],False,,0.0,0.0,85.0,85.0,85.0,1.0,,,,,,
,,,,,,,,,,,,,,,,,,,,,0.05,,,,,,,,,,Stimuli/psy_flexible_rotation_30_objects_occ0.7_0.9s/images/train/n04405907_8/n04405907_5/img_stylized_tv_samsung_40_uhd_smart_tv_2011_2009_gray.jpg,n04405907_8,n04405907_5,flexible,0.743558,n04405907_5,Stimuli/psy_flexible_rotation_30_objects_occ0.7_0.9s/images/train/n04405907_8/n04405907_5/img_stylized_tv_samsung_40_uhd_smart_tv_2011_2009-3_gray.png,foreground,same as foreground,n04405907_8,n04405907_5,Stimuli/canonical view 2/img_n04405907_8_gray.jpg,Stimuli/canonical view 2/img_n04405907_5_gray.jpg,foreground,right,Experiments/experiment_36/344.jpg,Experiments/experiment_36/345.jpg,Experiments/experiment_36/346.jpg,Experiments/experiment_36/347.jpg,448,1,2023-04-17_18h36.35.269,Occlusion_Psychophysics,2022.1.4,Win32,59.83008257,,,left,"[""left""]",[0.8614000000060287],False,,0.0,0.0,86.0,86.0,86.0,1.0,,,,,,
,,,,,,,,,,,,,,,,,,,,,0.025,,,,,,,,,,Stimuli/psy_fixed_rotation_30_objects_occ0.7_0.9s/images/train/n04405907_9/n04379243_8/img_vray_004_glass_table_2004_gray.jpg,n04405907_9,n04379243_8,fixed,0.746461,n04379243_-7,Stimuli/psy_flexible_rotation_30_objects_occ0.7_0.9s/images/train/n04070727_3/n04379243_-7/img_b05_db_apps_tech_06_02_2_composite_quatre_dining_table_2004-3_gray.png,random,flexible,n04405907_9,n04379243_8,Stimuli/canonical view 2/img_n04405907_9_gray.jpg,Stimuli/canonical view 2/img_n04379243_8_gray.jpg,foreground,left,Experiments/experiment_36/348.jpg,Experiments/experiment_36/349.jpg,Experiments/experiment_36/350.jpg,Experiments/experiment_36/351.jpg,448,1,2023-04-17_18h36.35.269,Occlusion_Psychophysics,2022.1.4,Win32,59.83008257,,,right,"[""left""]",[1.5014000000059013],False,,0.0,0.0,87.0,87.0,87.0,1.0,,,,,,
,,,,,,,,,,,,,,,,,,,,,0.05,,,,,,,,,,Stimuli/psy_fixed_rotation_30_objects_occ0.7_0.9s/images/train/n02818832_9/n04379243_0/img_bed01_blue_17th_c._monastery_dining_table_2010_2003_gray.jpg,n02818832_9,n04379243_0,fixed,0.738537,n04379243_0,Stimuli/psy_fixed_rotation_30_objects_occ0.7_0.9s/images/train/n02818832_9/n04379243_0/img_bed01_blue_17th_c._monastery_dining_table_2010_2003-3_gray.png,foreground,same as foreground,n02818832_9,n04379243_0,Stimuli/canonical view 2/img_n02818832_9_gray.jpg,Stimuli/canonical view 2/img_n04379243_0_gray.jpg,foreground,left,Experiments/experiment_36/352.jpg,Experiments/experiment_36/353.jpg,Experiments/experiment_36/354.jpg,Experiments/experiment_36/355.jpg,448,1,2023-04-17_18h36.35.269,Occlusion_Psychophysics,2022.1.4,Win32,59.83008257,,,right,"[""right""]",[0.7666000000238],False,,0.0,0.0,88.0,88.0,88.0,1.0,,,,,,
,,,,,,,,,,,,,,,,,,,,,0.05,,,,,,,,,,Stimuli/psy_fixed_rotation_30_objects_occ0.7_0.9s/images/train/n04379243_-7/n02883344_15/img_quatre_dining_table_microwave_box_2015_gray.jpg,n04379243_-7,n02883344_15,fixed,0.703013,n02818832_0,Stimuli/psy_fixed_rotation_30_objects_occ0.7_0.9s/images/train/n02883344_-1/n02818832_0/img_woven_box_b03_the_sofa_and_chair_company_-_stanley_bed_2014_2000-3_gray.png,random,fixed,n04379243_-7,n02883344_15,Stimuli/canonical view 2/img_n04379243_-7_gray.jpg,Stimuli/canonical view 2/img_n02883344_15_gray.jpg,foreground,left,Experiments/experiment_36/356.jpg,Experiments/experiment_36/357.jpg,Experiments/experiment_36/358.jpg,Experiments/experiment_36/359.jpg,448,1,2023-04-17_18h36.35.269,Occlusion_Psychophysics,2022.1.4,Win32,59.83008257,,,right,"[""right""]",[1.3076999999880172],False,,0.0,0.0,89.0,89.0,89.0,1.0,,,,,,
,,,,,,,,,,,,,,,,,,,,,0.025,,,,,,,,,,Stimuli/psy_flexible_rotation_30_objects_occ0.7_0.9s/images/train/n04256520_5/n03928116_0/img_meridiani_belmondo_bench_sofa_b02_piano_2009_gray.jpg,n04256520_5,n03928116_0,flexible,0.708782,n04379243_0,Stimuli/psy_flexible_rotation_30_objects_occ0.7_0.9s/images/train/n04256520_9/n04379243_0/img_napoleon_iii_sofa_17th_c._monastery_dining_table_2010_2007-3_gray.png,random,flexible,n04256520_5,n03928116_0,Stimuli/canonical view 2/img_n04256520_5_gray.jpg,Stimuli/canonical view 2/img_n03928116_0_gray.jpg,foreground,left,Experiments/experiment_36/360.jpg,Experiments/experiment_36/361.jpg,Experiments/experiment_36/362.jpg,Experiments/experiment_36/363.jpg,448,1,2023-04-17_18h36.35.269,Occlusion_Psychophysics,2022.1.4,Win32,59.83008257,,,left,"[""left""]",[1.0248999999761281],False,,0.0,0.0,90.0,90.0,90.0,1.0,,,,,,
,,,,,,,,,,,,,,,,,,,,,0.05,,,,,,,,,,Stimuli/psy_flexible_rotation_30_objects_occ0.7_0.9s/images/train/n03001627_9/n04256520_9/img_chair_eames_plastic_armchair_napoleon_iii_sofa_2010_gray.jpg,n03001627_9,n04256520_9,flexible,0.70354,n04256520_9,Stimuli/psy_flexible_rotation_30_objects_occ0.7_0.9s/images/train/n03001627_9/n04256520_9/img_chair_eames_plastic_armchair_napoleon_iii_sofa_2010-3_gray.png,foreground,same as foreground,n03001627_9,n02818832_9,Stimuli/canonical view 2/img_n03001627_9_gray.jpg,Stimuli/canonical view 2/img_n02818832_9_gray.jpg,random,right,Experiments/experiment_36/364.jpg,Experiments/experiment_36/365.jpg,Experiments/experiment_36/366.jpg,Experiments/experiment_36/367.jpg,448,1,2023-04-17_18h36.35.269,Occlusion_Psychophysics,2022.1.4,Win32,59.83008257,,,right,"[""right""]",[0.8009999999999309],False,,0.0,0.0,91.0,91.0,91.0,1.0,,,,,,
,,,,,,,,,,,,,,,,,,,,,0.05,,,,,,,,,,Stimuli/psy_fixed_rotation_30_objects_occ0.7_0.9s/images/train/n02883344_0/n03928116_0/img_b03_box_b02_piano_2013_gray.jpg,n02883344_0,n03928116_0,fixed,0.723591,n03001627_-2,Stimuli/psy_fixed_rotation_30_objects_occ0.7_0.9s/images/train/n04070727_3/n03001627_-2/img_b05_db_apps_tech_06_02_2_composite_wood_chair_2015-3_gray.png,random,fixed,n02883344_0,n04379243_0,Stimuli/canonical view 2/img_n02883344_0_gray.jpg,Stimuli/canonical view 2/img_n04379243_0_gray.jpg,random,left,Experiments/experiment_36/368.jpg,Experiments/experiment_36/369.jpg,Experiments/experiment_36/370.jpg,Experiments/experiment_36/371.jpg,448,1,2023-04-17_18h36.35.269,Occlusion_Psychophysics,2022.1.4,Win32,59.83008257,,,left,"[""left""]",[1.1929000000059204],False,,0.0,0.0,92.0,92.0,92.0,1.0,,,,,,
,,,,,,,,,,,,,,,,,,,,,0.05,,,,,,,,,,Stimuli/psy_fixed_rotation_30_objects_occ0.7_0.9s/images/train/n04405907_8/n04256520_4/img_stylized_tv_club_house_italia_nautilus_sofa_2002_gray.jpg,n04405907_8,n04256520_4,fixed,0.726846,n04405907_5,Stimuli/psy_flexible_rotation_30_objects_occ0.7_0.9s/images/train/n04256520_4/n04405907_5/img_club_house_italia_nautilus_sofa_samsung_40_uhd_smart_tv_2011_2009-3_gray.png,random,flexible,n04405907_8,n02818832_3,Stimuli/canonical view 2/img_n04405907_8_gray.jpg,Stimuli/canonical view 2/img_n02818832_3_gray.jpg,random,left,Experiments/experiment_36/372.jpg,Experiments/experiment_36/373.jpg,Experiments/experiment_36/374.jpg,Experiments/experiment_36/375.jpg,448,1,2023-04-17_18h36.35.269,Occlusion_Psychophysics,2022.1.4,Win32,59.83008257,,,right,"[""right""]",[1.1599000000060187],False,,0.0,0.0,93.0,93.0,93.0,1.0,,,,,,
,,,,,,,,,,,,,,,,,,,,,0.025,,,,,,,,,,Stimuli/psy_fixed_rotation_30_objects_occ0.7_0.9s/images/train/n02883344_0/n02828884_9/img_b03_box_cr-96_bench_2000_gray.jpg,n02883344_0,n02828884_9,fixed,0.726518,n02828884_9,Stimuli/psy_fixed_rotation_30_objects_occ0.7_0.9s/images/train/n02883344_0/n02828884_9/img_b03_box_cr-96_bench_2000-3_gray.png,foreground,same as foreground,n02883344_0,n02828884_9,Stimuli/canonical view 2/img_n02883344_0_gray.jpg,Stimuli/canonical view 2/img_n02828884_9_gray.jpg,foreground,left,Experiments/experiment_36/376.jpg,Experiments/experiment_36/377.jpg,Experiments/experiment_36/378.jpg,Experiments/experiment_36/379.jpg,448,1,2023-04-17_18h36.35.269,Occlusion_Psychophysics,2022.1.4,Win32,59.83008257,,,right,"[""right""]",[1.023599999994076],False,,0.0,0.0,94.0,94.0,94.0,1.0,,,,,,
,,,,,,,,,,,,,,,,,,,,,0.025,,,,,,,,,,Stimuli/psy_flexible_rotation_30_objects_occ0.7_0.9s/images/train/n02828884_3/n02818832_0/img_b04_wood_metal_park_bench_b03_the_sofa_and_chair_company_-_stanley_bed_2014_2014_gray.jpg,n02828884_3,n02818832_0,flexible,0.73394,n02933112_4,Stimuli/psy_fixed_rotation_30_objects_occ0.7_0.9s/images/train/n04379243_-7/n02933112_4/img_quatre_dining_table_buffet_2004-3_gray.png,random,fixed,n02828884_3,n02818832_0,Stimuli/canonical view 2/img_n02828884_3_gray.jpg,Stimuli/canonical view 2/img_n02818832_0_gray.jpg,foreground,left,Experiments/experiment_36/380.jpg,Experiments/experiment_36/381.jpg,Experiments/experiment_36/382.jpg,Experiments/experiment_36/383.jpg,448,1,2023-04-17_18h36.35.269,Occlusion_Psychophysics,2022.1.4,Win32,59.83008257,,,left,"[""left""]",[0.8013000000119064],False,,0.0,0.0,95.0,95.0,95.0,1.0,,,,,,
,,,,,,,,,,,,,,,,,,,,,0.05,,,,,,,,,,Stimuli/psy_fixed_rotation_30_objects_occ0.7_0.9s/images/train/n02933112_-2/n04405907_5/img_sink_base_white_wood_samsung_40_uhd_smart_tv_2011_2015_gray.jpg,n02933112_-2,n04405907_5,fixed,0.764322,n02883344_15,Stimuli/psy_flexible_rotation_30_objects_occ0.7_0.9s/images/train/n04405907_8/n02883344_15/img_stylized_tv_microwave_box_2013-3_gray.png,random,flexible,n02933112_-2,n02818832_3,Stimuli/canonical view 2/img_n02933112_-2_gray.jpg,Stimuli/canonical view 2/img_n02818832_3_gray.jpg,random,right,Experiments/experiment_36/384.jpg,Experiments/experiment_36/385.jpg,Experiments/experiment_36/386.jpg,Experiments/experiment_36/387.jpg,448,1,2023-04-17_18h36.35.269,Occlusion_Psychophysics,2022.1.4,Win32,59.83008257,,,left,"[""left""]",[0.9464999999999009],False,,0.0,0.0,96.0,96.0,96.0,1.0,,,,,,
,,,,,,,,,,,,,,,,,,,,,0.025,,,,,,,,,,Stimuli/psy_flexible_rotation_30_objects_occ0.7_0.9s/images/train/n04405907_9/n04256520_5/img_vray_004_meridiani_belmondo_bench_sofa_2010_gray.jpg,n04405907_9,n04256520_5,flexible,0.770324,n04256520_5,Stimuli/psy_flexible_rotation_30_objects_occ0.7_0.9s/images/train/n04405907_9/n04256520_5/img_vray_004_meridiani_belmondo_bench_sofa_2010-3_gray.png,foreground,same as foreground,n04405907_9,n04256520_4,Stimuli/canonical view 2/img_n04405907_9_gray.jpg,Stimuli/canonical view 2/img_n04256520_4_gray.jpg,random,left,Experiments/experiment_36/388.jpg,Experiments/experiment_36/389.jpg,Experiments/experiment_36/390.jpg,Experiments/experiment_36/391.jpg,448,1,2023-04-17_18h36.35.269,Occlusion_Psychophysics,2022.1.4,Win32,59.83008257,,,right,"[""right""]",[0.8501999999881491],False,,0.0,0.0,97.0,97.0,97.0,1.0,,,,,,
,,,,,,,,,,,,,,,,,,,,,0.025,,,,,,,,,,Stimuli/psy_flexible_rotation_30_objects_occ0.7_0.9s/images/train/n02818832_3/n02933112_4/img_b05_ccm_contemporary_bed_max2013_buffet_2001_gray.jpg,n02818832_3,n02933112_4,flexible,0.776188,n02933112_4,Stimuli/psy_flexible_rotation_30_objects_occ0.7_0.9s/images/train/n02818832_3/n02933112_4/img_b05_ccm_contemporary_bed_max2013_buffet_2001-3_gray.png,foreground,same as foreground,n02818832_3,n02933112_4,Stimuli/canonical view 2/img_n02818832_3_gray.jpg,Stimuli/canonical view 2/img_n02933112_4_gray.jpg,foreground,right,Experiments/experiment_36/392.jpg,Experiments/experiment_36/393.jpg,Experiments/experiment_36/394.jpg,Experiments/experiment_36/395.jpg,448,1,2023-04-17_18h36.35.269,Occlusion_Psychophysics,2022.1.4,Win32,59.83008257,,,left,"[""left""]",[1.574700000017856],False,,0.0,0.0,98.0,98.0,98.0,1.0,,,,,,
,,,,,,,,,,,,,,,,,,,,,0.025,,,,,,,,,,Stimuli/psy_fixed_rotation_30_objects_occ0.7_0.9s/images/train/n04256520_5/n02933112_-2/img_meridiani_belmondo_bench_sofa_sink_base_white_wood_2007_gray.jpg,n04256520_5,n02933112_-2,fixed,0.839088,n02818832_0,Stimuli/psy_flexible_rotation_30_objects_occ0.7_0.9s/images/train/n04405907_8/n02818832_0/img_stylized_tv_b03_the_sofa_and_chair_company_-_stanley_bed_2014_2001-3_gray.png,random,flexible,n04256520_5,n02933112_-2,Stimuli/canonical view 2/img_n04256520_5_gray.jpg,Stimuli/canonical view 2/img_n02933112_-2_gray.jpg,foreground,left,Experiments/experiment_36/396.jpg,Experiments/experiment_36/397.jpg,Experiments/experiment_36/398.jpg,Experiments/experiment_36/399.jpg,448,1,2023-04-17_18h36.35.269,Occlusion_Psychophysics,2022.1.4,Win32,59.83008257,,,right,"[""right""]",[1.0025000000000546],False,,0.0,0.0,99.0,99.0,99.0,1.0,,,,,,
,,,,,,,,,,,,,,,,,,,,,,,,,,,,,,,,,,,,,,,,,,,,,,,,,,448,1,2023-04-17_18h36.35.269,Occlusion_Psychophysics,2022.1.4,Win32,59.83008257,,,,,,,,,,,,,,,0.0,0.0,0.0,0.0,1.0
,,,,,,,,,,,,,,,,,,,,,0.025,,,,,,,,,,Stimuli/psy_fixed_rotation_30_objects_occ0.7_0.9s/images/train/n02828884_9/n02933112_-2/img_cr-96_bench_sink_base_white_wood_2010_gray.jpg,n02828884_9,n02933112_-2,fixed,0.739037,n02933112_-2,Stimuli/psy_fixed_rotation_30_objects_occ0.7_0.9s/images/train/n02828884_9/n02933112_-2/img_cr-96_bench_sink_base_white_wood_2010-3_gray.png,foreground,same as foreground,n02828884_9,n02933112_-2,Stimuli/canonical view 2/img_n02828884_9_gray.jpg,Stimuli/canonical view 2/img_n02933112_-2_gray.jpg,foreground,left,Experiments/experiment_36/400.jpg,Experiments/experiment_36/401.jpg,Experiments/experiment_36/402.jpg,Experiments/experiment_36/403.jpg,448,1,2023-04-17_18h36.35.269,Occlusion_Psychophysics,2022.1.4,Win32,59.83008257,,,left,"[""left""]",[0.6444999999999936],False,,0.0,0.0,0.0,0.0,0.0,1.0,,,,,,
,,,,,,,,,,,,,,,,,,,,,0.025,,,,,,,,,,Stimuli/psy_fixed_rotation_30_objects_occ0.7_0.9s/images/train/n03001627_9/n04405907_5/img_chair_eames_plastic_armchair_samsung_40_uhd_smart_tv_2011_2009_gray.jpg,n03001627_9,n04405907_5,fixed,0.758045,n02818832_9,Stimuli/psy_flexible_rotation_30_objects_occ0.7_0.9s/images/train/n03928116_10/n02818832_9/img_ydp_103_r_2012__vray_bed01_blue_2013-3_gray.png,random,flexible,n03001627_9,n04405907_5,Stimuli/canonical view 2/img_n03001627_9_gray.jpg,Stimuli/canonical view 2/img_n04405907_5_gray.jpg,foreground,left,Experiments/experiment_36/404.jpg,Experiments/experiment_36/405.jpg,Experiments/experiment_36/406.jpg,Experiments/experiment_36/407.jpg,448,1,2023-04-17_18h36.35.269,Occlusion_Psychophysics,2022.1.4,Win32,59.83008257,,,right,"[""right""]",[0.5580999999940559],False,,0.0,0.0,1.0,1.0,1.0,1.0,,,,,,
,,,,,,,,,,,,,,,,,,,,,0.05,,,,,,,,,,Stimuli/psy_fixed_rotation_30_objects_occ0.7_0.9s/images/train/n02818832_3/n02883344_0/img_b05_ccm_contemporary_bed_max2013_b03_box_2011_gray.jpg,n02818832_3,n02883344_0,fixed,0.884796,n02883344_0,Stimuli/psy_fixed_rotation_30_objects_occ0.7_0.9s/images/train/n02818832_3/n02883344_0/img_b05_ccm_contemporary_bed_max2013_b03_box_2011-3_gray.png,foreground,same as foreground,n02818832_3,n02883344_0,Stimuli/canonical view 2/img_n02818832_3_gray.jpg,Stimuli/canonical view 2/img_n02883344_0_gray.jpg,foreground,left,Experiments/experiment_36/408.jpg,Experiments/experiment_36/409.jpg,Experiments/experiment_36/410.jpg,Experiments/experiment_36/411.jpg,448,1,2023-04-17_18h36.35.269,Occlusion_Psychophysics,2022.1.4,Win32,59.83008257,,,right,"[""left""]",[1.2649000000060369],False,,0.0,0.0,2.0,2.0,2.0,1.0,,,,,,
,,,,,,,,,,,,,,,,,,,,,0.025,,,,,,,,,,Stimuli/psy_fixed_rotation_30_objects_occ0.7_0.9s/images/train/n02828884_4/n04405907_8/img_b05_c-5_classic_series_bench-2012_stylized_tv_2011_gray.jpg,n02828884_4,n04405907_8,fixed,0.737594,n04405907_8,Stimuli/psy_fixed_rotation_30_objects_occ0.7_0.9s/images/train/n02828884_4/n04405907_8/img_b05_c-5_classic_series_bench-2012_stylized_tv_2011-3_gray.png,foreground,same as foreground,n02828884_4,n02883344_-1,Stimuli/canonical view 2/img_n02828884_4_gray.jpg,Stimuli/canonical view 2/img_n02883344_-1_gray.jpg,random,left,Experiments/experiment_36/412.jpg,Experiments/experiment_36/413.jpg,Experiments/experiment_36/414.jpg,Experiments/experiment_36/415.jpg,448,1,2023-04-17_18h36.35.269,Occlusion_Psychophysics,2022.1.4,Win32,59.83008257,,,right,"[""right""]",[0.8507999999820868],False,,0.0,0.0,3.0,3.0,3.0,1.0,,,,,,
,,,,,,,,,,,,,,,,,,,,,0.025,,,,,,,,,,Stimuli/psy_flexible_rotation_30_objects_occ0.7_0.9s/images/train/n02828884_4/n04256520_9/img_b05_c-5_classic_series_bench-2012_napoleon_iii_sofa_2007_gray.jpg,n02828884_4,n04256520_9,flexible,0.720263,n04256520_9,Stimuli/psy_flexible_rotation_30_objects_occ0.7_0.9s/images/train/n02828884_4/n04256520_9/img_b05_c-5_classic_series_bench-2012_napoleon_iii_sofa_2007-3_gray.png,foreground,same as foreground,n02828884_4,n04256520_9,Stimuli/canonical view 2/img_n02828884_4_gray.jpg,Stimuli/canonical view 2/img_n04256520_9_gray.jpg,foreground,right,Experiments/experiment_36/416.jpg,Experiments/experiment_36/417.jpg,Experiments/experiment_36/418.jpg,Experiments/experiment_36/419.jpg,448,1,2023-04-17_18h36.35.269,Occlusion_Psychophysics,2022.1.4,Win32,59.83008257,,,left,"[""left""]",[0.5708000000119],False,,0.0,0.0,4.0,4.0,4.0,1.0,,,,,,
,,,,,,,,,,,,,,,,,,,,,0.025,,,,,,,,,,Stimuli/psy_flexible_rotation_30_objects_occ0.7_0.9s/images/train/n02828884_3/n02883344_-1/img_b04_wood_metal_park_bench_woven_box_2007_gray.jpg,n02828884_3,n02883344_-1,flexible,0.767629,n02883344_-1,Stimuli/psy_flexible_rotation_30_objects_occ0.7_0.9s/images/train/n02828884_3/n02883344_-1/img_b04_wood_metal_park_bench_woven_box_2007-3_gray.png,foreground,same as foreground,n02828884_3,n03001627_8,Stimuli/canonical view 2/img_n02828884_3_gray.jpg,Stimuli/canonical view 2/img_n03001627_8_gray.jpg,random,right,Experiments/experiment_36/420.jpg,Experiments/experiment_36/421.jpg,Experiments/experiment_36/422.jpg,Experiments/experiment_36/423.jpg,448,1,2023-04-17_18h36.35.269,Occlusion_Psychophysics,2022.1.4,Win32,59.83008257,,,right,"[""right""]",[0.8556000000238555],False,,0.0,0.0,5.0,5.0,5.0,1.0,,,,,,
,,,,,,,,,,,,,,,,,,,,,0.025,,,,,,,,,,Stimuli/psy_flexible_rotation_30_objects_occ0.7_0.9s/images/train/n02883344_-1/n02818832_3/img_woven_box_b05_ccm_contemporary_bed_max2013_2014_gray.jpg,n02883344_-1,n02818832_3,flexible,0.768612,n02828884_3,Stimuli/psy_fixed_rotation_30_objects_occ0.7_0.9s/images/train/n02883344_0/n02828884_3/img_b03_box_b04_wood_metal_park_bench_2000-3_gray.png,random,fixed,n02883344_-1,n02828884_3,Stimuli/canonical view 2/img_n02883344_-1_gray.jpg,Stimuli/canonical view 2/img_n02828884_3_gray.jpg,random,left,Experiments/experiment_36/424.jpg,Experiments/experiment_36/425.jpg,Experiments/experiment_36/426.jpg,Experiments/experiment_36/427.jpg,448,1,2023-04-17_18h36.35.269,Occlusion_Psychophysics,2022.1.4,Win32,59.83008257,,,right,"[""left""]",[1.0218000000119218],False,,0.0,0.0,6.0,6.0,6.0,1.0,,,,,,
,,,,,,,,,,,,,,,,,,,,,0.05,,,,,,,,,,Stimuli/psy_fixed_rotation_30_objects_occ0.7_0.9s/images/train/n02933112_-2/n03928116_0/img_sink_base_white_wood_b02_piano_2010_gray.jpg,n02933112_-2,n03928116_0,fixed,0.74363,n04405907_9,Stimuli/psy_flexible_rotation_30_objects_occ0.7_0.9s/images/train/n04379243_0/n04405907_9/img_17th_c._monastery_dining_table_2010_vray_004_2002-3_gray.png,random,flexible,n02933112_-2,n02828884_3,Stimuli/canonical view 2/img_n02933112_-2_gray.jpg,Stimuli/canonical view 2/img_n02828884_3_gray.jpg,random,right,Experiments/experiment_36/428.jpg,Experiments/experiment_36/429.jpg,Experiments/experiment_36/430.jpg,Experiments/experiment_36/431.jpg,448,1,2023-04-17_18h36.35.269,Occlusion_Psychophysics,2022.1.4,Win32,59.83008257,,,left,"[""left""]",[1.177099999994084],False,,0.0,0.0,7.0,7.0,7.0,1.0,,,,,,
,,,,,,,,,,,,,,,,,,,,,0.05,,,,,,,,,,Stimuli/psy_fixed_rotation_30_objects_occ0.7_0.9s/images/train/n03928116_0/n04379243_-7/img_b02_piano_quatre_dining_table_2012_gray.jpg,n03928116_0,n04379243_-7,fixed,0.804011,n04379243_-7,Stimuli/psy_fixed_rotation_30_objects_occ0.7_0.9s/images/train/n03928116_0/n04379243_-7/img_b02_piano_quatre_dining_table_2012-3_gray.png,foreground,same as foreground,n03928116_0,n02883344_15,Stimuli/canonical view 2/img_n03928116_0_gray.jpg,Stimuli/canonical view 2/img_n02883344_15_gray.jpg,random,left,Experiments/experiment_36/432.jpg,Experiments/experiment_36/433.jpg,Experiments/experiment_36/434.jpg,Experiments/experiment_36/435.jpg,448,1,2023-04-17_18h36.35.269,Occlusion_Psychophysics,2022.1.4,Win32,59.83008257,,,right,"[""right""]",[0.5377999999820986],True,right,1.0,0.0,8.0,8.0,8.0,1.0,0.7963,,,,,
,,,,,,,,,,,,,,,,,,,,,0.025,,,,,,,,,,Stimuli/psy_fixed_rotation_30_objects_occ0.7_0.9s/images/train/n02933112_-18/n02818832_3/img_cgaxis_models_48_26_vray_composite_b05_ccm_contemporary_bed_max2013_2008_gray.jpg,n02933112_-18,n02818832_3,fixed,0.80206,n02818832_3,Stimuli/psy_fixed_rotation_30_objects_occ0.7_0.9s/images/train/n02933112_-18/n02818832_3/img_cgaxis_models_48_26_vray_composite_b05_ccm_contemporary_bed_max2013_2008-3_gray.png,foreground,same as foreground,n02933112_-18,n02818832_9,Stimuli/canonical view 2/img_n02933112_-18_gray.jpg,Stimuli/canonical view 2/img_n02818832_9_gray.jpg,random,left,Experiments/experiment_36/436.jpg,Experiments/experiment_36/437.jpg,Experiments/experiment_36/438.jpg,Experiments/experiment_36/439.jpg,448,1,2023-04-17_18h36.35.269,Occlusion_Psychophysics,2022.1.4,Win32,59.83008257,,,right,"[""right""]",[1.469799999982115],False,,0.0,0.0,9.0,9.0,9.0,1.0,,,,,,
,,,,,,,,,,,,,,,,,,,,,0.025,,,,,,,,,,Stimuli/psy_flexible_rotation_30_objects_occ0.7_0.9s/images/train/n03001627_9/n04405907_5/img_chair_eames_plastic_armchair_samsung_40_uhd_smart_tv_2011_2000_gray.jpg,n03001627_9,n04405907_5,flexible,0.759091,n04256520_4,Stimuli/psy_fixed_rotation_30_objects_occ0.7_0.9s/images/train/n02883344_-1/n04256520_4/img_woven_box_club_house_italia_nautilus_sofa_2009-3_gray.png,random,fixed,n03001627_9,n04405907_5,Stimuli/canonical view 2/img_n03001627_9_gray.jpg,Stimuli/canonical view 2/img_n04405907_5_gray.jpg,foreground,left,Experiments/experiment_36/440.jpg,Experiments/experiment_36/441.jpg,Experiments/experiment_36/442.jpg,Experiments/experiment_36/443.jpg,448,1,2023-04-17_18h36.35.269,Occlusion_Psychophysics,2022.1.4,Win32,59.83008257,,,right,"[""right""]",[0.5949000000059641],False,,0.0,0.0,10.0,10.0,10.0,1.0,,,,,,
,,,,,,,,,,,,,,,,,,,,,0.025,,,,,,,,,,Stimuli/psy_fixed_rotation_30_objects_occ0.7_0.9s/images/train/n04256520_9/n04405907_5/img_napoleon_iii_sofa_samsung_40_uhd_smart_tv_2011_2007_gray.jpg,n04256520_9,n04405907_5,fixed,0.708238,n02818832_9,Stimuli/psy_flexible_rotation_30_objects_occ0.7_0.9s/images/train/n02933112_-2/n02818832_9/img_sink_base_white_wood_bed01_blue_2014-3_gray.png,random,flexible,n04256520_9,n03928116_0,Stimuli/canonical view 2/img_n04256520_9_gray.jpg,Stimuli/canonical view 2/img_n03928116_0_gray.jpg,random,right,Experiments/experiment_36/444.jpg,Experiments/experiment_36/445.jpg,Experiments/experiment_36/446.jpg,Experiments/experiment_36/447.jpg,448,1,2023-04-17_18h36.35.269,Occlusion_Psychophysics,2022.1.4,Win32,59.83008257,,,right,"[""right""]",[0.6682000000179187],False,,0.0,0.0,11.0,11.0,11.0,1.0,,,,,,
,,,,,,,,,,,,,,,,,,,,,0.05,,,,,,,,,,Stimuli/psy_fixed_rotation_30_objects_occ0.7_0.9s/images/train/n02818832_9/n02883344_-1/img_bed01_blue_woven_box_2002_gray.jpg,n02818832_9,n02883344_-1,fixed,0.735468,n02883344_-1,Stimuli/psy_fixed_rotation_30_objects_occ0.7_0.9s/images/train/n02818832_9/n02883344_-1/img_bed01_blue_woven_box_2002-3_gray.png,foreground,same as foreground,n02818832_9,n02883344_-1,Stimuli/canonical view 2/img_n02818832_9_gray.jpg,Stimuli/canonical view 2/img_n02883344_-1_gray.jpg,foreground,left,Experiments/experiment_36/448.jpg,Experiments/experiment_36/449.jpg,Experiments/experiment_36/450.jpg,Experiments/experiment_36/451.jpg,448,1,2023-04-17_18h36.35.269,Occlusion_Psychophysics,2022.1.4,Win32,59.83008257,,,right,"[""right""]",[0.6550999999940359],False,,0.0,0.0,12.0,12.0,12.0,1.0,,,,,,
,,,,,,,,,,,,,,,,,,,,,0.05,,,,,,,,,,Stimuli/psy_fixed_rotation_30_objects_occ0.7_0.9s/images/train/n02883344_-1/n02828884_3/img_woven_box_b04_wood_metal_park_bench_2002_gray.jpg,n02883344_-1,n02828884_3,fixed,0.73879,n04405907_9,Stimuli/psy_fixed_rotation_30_objects_occ0.7_0.9s/images/train/n04379243_8/n04405907_9/img_glass_table_vray_004_2014-3_gray.png,random,fixed,n02883344_-1,n02828884_3,Stimuli/canonical view 2/img_n02883344_-1_gray.jpg,Stimuli/canonical view 2/img_n02828884_3_gray.jpg,foreground,right,Experiments/experiment_36/452.jpg,Experiments/experiment_36/453.jpg,Experiments/experiment_36/454.jpg,Experiments/experiment_36/455.jpg,448,1,2023-04-17_18h36.35.269,Occlusion_Psychophysics,2022.1.4,Win32,59.83008257,,,right,"[""right""]",[0.8342000000178587],False,,0.0,0.0,13.0,13.0,13.0,1.0,,,,,,
