in_color,Instructions_key.keys,Instructions_key.rt,Tutorial_instruction_key.keys,Tutorial_instruction_key.rt,Tutorial_fixation_ley.keys,Tutorial_fixation_ley.rt,Tutorial_single_img_key.keys,Tutorial_single_img_key.rt,Tutorial_intra_trial_fixation_key.keys,Tutorial_intra_trial_fixation_key.rt,Tutorial_stimulus_key.keys,Tutorial_stimulus_key.rt,Tutorial_response_key.keys,Tutorial_response_key.rt,Tutorial_attention_check_key.keys,Tutorial_attention_check_key.rt,advance_or_repeat.keys,advance_or_repeat.rt,Practice_instructions_key.keys,Practice_instructions_key.rt,intra_trial_duration,Practice_key_response.keys,Practice_key_response.rt,Practice_react_key.keys,Practice_react_key.rt,Practice_loop.thisRepN,Practice_loop.thisTrialN,Practice_loop.thisN,Practice_loop.thisIndex,Practice_loop.ran,multi_object_filepath,background_id,foreground_id,multi_object_rotation,occlusion_level,single_object_id,single_object_filepath,single_is_foreground_or_random,single_object_rotation,background_choice_id,alt_choice_id,background_option_filepath,alternative_option_filepath,alternative_is_foreground_or_random,location_of_correct_answer,multi_object_exp_filename,single_object_exp_filename,background_option_exp_filename,alternative_option_exp_filename,participant,session,date,expName,psychopyVersion,OS,frameRate,Practice_end_key.keys,Practice_end_key.rt,correct_answer,Input_selection.keys,Input_selection.rt,Was_attention_check,Attention_check.keys,Attention_check.corr,Each_session_loop.thisRepN,Each_session_loop.thisTrialN,Each_session_loop.thisN,Each_session_loop.thisIndex,Each_session_loop.ran,Attention_check.rt,Num_sessions.thisRepN,Num_sessions.thisTrialN,Num_sessions.thisN,Num_sessions.thisIndex,Num_sessions.ran
False,space,53.0689,space,2.6513,space,2.0333,space,3.6379,space,1.5585,space,8.6666,left,4.4954,space,5.0213,a,5.4977,space,2.9224,0.05,left,1.4031,a,2.9977,0.0,0.0,0.0,0.0,1.0,Stimuli/psy_fixed_rotation_30_objects_occ0.7_0.9s/images/train/n04256520_5/n04405907_5/img_meridiani_belmondo_bench_sofa_samsung_40_uhd_smart_tv_2011_2011_gray.jpg,n04256520_5,n04405907_5,fixed,0.725331,n04256520_4,Stimuli/psy_fixed_rotation_30_objects_occ0.7_0.9s/images/train/n02883344_-1/n04256520_4/img_woven_box_club_house_italia_nautilus_sofa_2004-3_gray.png,random,fixed,n04256520_5,n02933112_-2,Stimuli/canonical view 2/img_n04256520_5_gray.jpg,Stimuli/canonical view 2/img_n02933112_-2_gray.jpg,random,left,Experiments/experiment_48/1000.jpg,Experiments/experiment_48/1001.jpg,Experiments/experiment_48/1002.jpg,Experiments/experiment_48/1003.jpg,473,1,2023-06-28_14h24.05.795,Occlusion_Psychophysics,2022.1.4,Win32,240.1536984,,,,,,,,,,,,,,,,,,,
,,,,,,,,,,,,,,,,,,,,,0.05,,,,,,,,,,Stimuli/psy_flexible_rotation_30_objects_occ0.7_0.9s/images/train/n04256520_5/n02818832_0/img_meridiani_belmondo_bench_sofa_b03_the_sofa_and_chair_company_-_stanley_bed_2014_2014_gray.jpg,n04256520_5,n02818832_0,flexible,0.706709,n02933112_-2,Stimuli/psy_fixed_rotation_30_objects_occ0.7_0.9s/images/train/n04405907_8/n02933112_-2/img_stylized_tv_sink_base_white_wood_2014-3_gray.png,random,fixed,n04256520_5,n04379243_-7,Stimuli/canonical view 2/img_n04256520_5_gray.jpg,Stimuli/canonical view 2/img_n04379243_-7_gray.jpg,random,left,Experiments/experiment_48/0.jpg,Experiments/experiment_48/1.jpg,Experiments/experiment_48/2.jpg,Experiments/experiment_48/3.jpg,473,1,2023-06-28_14h24.05.795,Occlusion_Psychophysics,2022.1.4,Win32,240.1536984,space,0.9401,right,"[""left""]",[1.5495999999996002],False,,0.0,0.0,0.0,0.0,0.0,1.0,,,,,,
,,,,,,,,,,,,,,,,,,,,,0.025,,,,,,,,,,Stimuli/psy_flexible_rotation_30_objects_occ0.7_0.9s/images/train/n02883344_-1/n02818832_3/img_woven_box_b05_ccm_contemporary_bed_max2013_2000_gray.jpg,n02883344_-1,n02818832_3,flexible,0.75467,n02818832_3,Stimuli/psy_flexible_rotation_30_objects_occ0.7_0.9s/images/train/n02883344_-1/n02818832_3/img_woven_box_b05_ccm_contemporary_bed_max2013_2000-3_gray.png,foreground,same as foreground,n02883344_-1,n02818832_0,Stimuli/canonical view 2/img_n02883344_-1_gray.jpg,Stimuli/canonical view 2/img_n02818832_0_gray.jpg,random,right,Experiments/experiment_48/4.jpg,Experiments/experiment_48/5.jpg,Experiments/experiment_48/6.jpg,Experiments/experiment_48/7.jpg,473,1,2023-06-28_14h24.05.795,Occlusion_Psychophysics,2022.1.4,Win32,240.1536984,,,right,"[""right""]",[1.358099999999581],False,,0.0,0.0,1.0,1.0,1.0,1.0,,,,,,
,,,,,,,,,,,,,,,,,,,,,0.05,,,,,,,,,,Stimuli/psy_flexible_rotation_30_objects_occ0.7_0.9s/images/train/n02933112_4/n04405907_5/img_buffet_samsung_40_uhd_smart_tv_2011_2007_gray.jpg,n02933112_4,n04405907_5,flexible,0.759066,n04405907_5,Stimuli/psy_flexible_rotation_30_objects_occ0.7_0.9s/images/train/n02933112_4/n04405907_5/img_buffet_samsung_40_uhd_smart_tv_2011_2007-3_gray.png,foreground,same as foreground,n02933112_4,n04256520_5,Stimuli/canonical view 2/img_n02933112_4_gray.jpg,Stimuli/canonical view 2/img_n04256520_5_gray.jpg,random,left,Experiments/experiment_48/8.jpg,Experiments/experiment_48/9.jpg,Experiments/experiment_48/10.jpg,Experiments/experiment_48/11.jpg,473,1,2023-06-28_14h24.05.795,Occlusion_Psychophysics,2022.1.4,Win32,240.1536984,,,left,"[""right""]",[1.0494999999999663],False,,0.0,0.0,2.0,2.0,2.0,1.0,,,,,,
,,,,,,,,,,,,,,,,,,,,,0.05,,,,,,,,,,Stimuli/psy_flexible_rotation_30_objects_occ0.7_0.9s/images/train/n02818832_0/n04405907_9/img_b03_the_sofa_and_chair_company_-_stanley_bed_2014_vray_004_2005_gray.jpg,n02818832_0,n04405907_9,flexible,0.838316,n04405907_9,Stimuli/psy_flexible_rotation_30_objects_occ0.7_0.9s/images/train/n02818832_0/n04405907_9/img_b03_the_sofa_and_chair_company_-_stanley_bed_2014_vray_004_2005-3_gray.png,foreground,same as foreground,n02818832_0,n04405907_9,Stimuli/canonical view 2/img_n02818832_0_gray.jpg,Stimuli/canonical view 2/img_n04405907_9_gray.jpg,foreground,left,Experiments/experiment_48/12.jpg,Experiments/experiment_48/13.jpg,Experiments/experiment_48/14.jpg,Experiments/experiment_48/15.jpg,473,1,2023-06-28_14h24.05.795,Occlusion_Psychophysics,2022.1.4,Win32,240.1536984,,,left,"[""left""]",[0.5999000000003889],False,,0.0,0.0,3.0,3.0,3.0,1.0,,,,,,
,,,,,,,,,,,,,,,,,,,,,0.025,,,,,,,,,,Stimuli/psy_flexible_rotation_30_objects_occ0.7_0.9s/images/train/n02818832_0/n04405907_5/img_b03_the_sofa_and_chair_company_-_stanley_bed_2014_samsung_40_uhd_smart_tv_2011_2015_gray.jpg,n02818832_0,n04405907_5,flexible,0.779752,n04405907_5,Stimuli/psy_flexible_rotation_30_objects_occ0.7_0.9s/images/train/n02818832_0/n04405907_5/img_b03_the_sofa_and_chair_company_-_stanley_bed_2014_samsung_40_uhd_smart_tv_2011_2015-3_gray.png,foreground,same as foreground,n02818832_0,n04405907_5,Stimuli/canonical view 2/img_n02818832_0_gray.jpg,Stimuli/canonical view 2/img_n04405907_5_gray.jpg,foreground,left,Experiments/experiment_48/16.jpg,Experiments/experiment_48/17.jpg,Experiments/experiment_48/18.jpg,Experiments/experiment_48/19.jpg,473,1,2023-06-28_14h24.05.795,Occlusion_Psychophysics,2022.1.4,Win32,240.1536984,,,left,"[""left""]",[0.8512999999989006],False,,0.0,0.0,4.0,4.0,4.0,1.0,,,,,,
,,,,,,,,,,,,,,,,,,,,,0.05,,,,,,,,,,Stimuli/psy_fixed_rotation_30_objects_occ0.7_0.9s/images/train/n02818832_3/n04379243_-7/img_b05_ccm_contemporary_bed_max2013_quatre_dining_table_2014_gray.jpg,n02818832_3,n04379243_-7,fixed,0.768271,n02883344_-1,Stimuli/psy_fixed_rotation_30_objects_occ0.7_0.9s/images/train/n04070727_0/n02883344_-1/img_b03_ka90ivi20r_2013__vray_woven_box_2015-3_gray.png,random,fixed,n02818832_3,n04256520_5,Stimuli/canonical view 2/img_n02818832_3_gray.jpg,Stimuli/canonical view 2/img_n04256520_5_gray.jpg,random,right,Experiments/experiment_48/20.jpg,Experiments/experiment_48/21.jpg,Experiments/experiment_48/22.jpg,Experiments/experiment_48/23.jpg,473,1,2023-06-28_14h24.05.795,Occlusion_Psychophysics,2022.1.4,Win32,240.1536984,,,right,"[""right""]",[1.0078000000007705],False,,0.0,0.0,5.0,5.0,5.0,1.0,,,,,,
,,,,,,,,,,,,,,,,,,,,,0.025,,,,,,,,,,Stimuli/psy_fixed_rotation_30_objects_occ0.7_0.9s/images/train/n02883344_15/n02933112_4/img_microwave_box_buffet_2004_gray.jpg,n02883344_15,n02933112_4,fixed,0.712382,n02933112_4,Stimuli/psy_fixed_rotation_30_objects_occ0.7_0.9s/images/train/n02883344_15/n02933112_4/img_microwave_box_buffet_2004-3_gray.png,foreground,same as foreground,n02883344_15,n02933112_4,Stimuli/canonical view 2/img_n02883344_15_gray.jpg,Stimuli/canonical view 2/img_n02933112_4_gray.jpg,foreground,left,Experiments/experiment_48/24.jpg,Experiments/experiment_48/25.jpg,Experiments/experiment_48/26.jpg,Experiments/experiment_48/27.jpg,473,1,2023-06-28_14h24.05.795,Occlusion_Psychophysics,2022.1.4,Win32,240.1536984,,,left,"[""left""]",[0.6506999999993468],False,,0.0,0.0,6.0,6.0,6.0,1.0,,,,,,
,,,,,,,,,,,,,,,,,,,,,0.05,,,,,,,,,,Stimuli/psy_fixed_rotation_30_objects_occ0.7_0.9s/images/train/n02933112_4/n02933112_-2/img_buffet_sink_base_white_wood_2006_gray.jpg,n02933112_4,n02933112_-2,fixed,0.718586,n02933112_-2,Stimuli/psy_fixed_rotation_30_objects_occ0.7_0.9s/images/train/n02933112_4/n02933112_-2/img_buffet_sink_base_white_wood_2006-3_gray.png,foreground,same as foreground,n02933112_4,n02933112_-2,Stimuli/canonical view 2/img_n02933112_4_gray.jpg,Stimuli/canonical view 2/img_n02933112_-2_gray.jpg,foreground,left,Experiments/experiment_48/28.jpg,Experiments/experiment_48/29.jpg,Experiments/experiment_48/30.jpg,Experiments/experiment_48/31.jpg,473,1,2023-06-28_14h24.05.795,Occlusion_Psychophysics,2022.1.4,Win32,240.1536984,,,right,"[""right""]",[0.5097000000010894],False,,0.0,0.0,7.0,7.0,7.0,1.0,,,,,,
,,,,,,,,,,,,,,,,,,,,,0.05,,,,,,,,,,Stimuli/psy_flexible_rotation_30_objects_occ0.7_0.9s/images/train/n04379243_0/n02828884_3/img_17th_c._monastery_dining_table_2010_b04_wood_metal_park_bench_2005_gray.jpg,n04379243_0,n02828884_3,flexible,0.761224,n02828884_3,Stimuli/psy_flexible_rotation_30_objects_occ0.7_0.9s/images/train/n04379243_0/n02828884_3/img_17th_c._monastery_dining_table_2010_b04_wood_metal_park_bench_2005-3_gray.png,foreground,same as foreground,n04379243_0,n02828884_3,Stimuli/canonical view 2/img_n04379243_0_gray.jpg,Stimuli/canonical view 2/img_n02828884_3_gray.jpg,foreground,left,Experiments/experiment_48/32.jpg,Experiments/experiment_48/33.jpg,Experiments/experiment_48/34.jpg,Experiments/experiment_48/35.jpg,473,1,2023-06-28_14h24.05.795,Occlusion_Psychophysics,2022.1.4,Win32,240.1536984,,,right,"[""right""]",[1.050099999999702],False,,0.0,0.0,8.0,8.0,8.0,1.0,,,,,,
,,,,,,,,,,,,,,,,,,,,,0.025,,,,,,,,,,Stimuli/psy_flexible_rotation_30_objects_occ0.7_0.9s/images/train/n02883344_-1/n04405907_5/img_woven_box_samsung_40_uhd_smart_tv_2011_2002_gray.jpg,n02883344_-1,n04405907_5,flexible,0.743468,n04405907_5,Stimuli/psy_flexible_rotation_30_objects_occ0.7_0.9s/images/train/n02883344_-1/n04405907_5/img_woven_box_samsung_40_uhd_smart_tv_2011_2002-3_gray.png,foreground,same as foreground,n02883344_-1,n04405907_5,Stimuli/canonical view 2/img_n02883344_-1_gray.jpg,Stimuli/canonical view 2/img_n04405907_5_gray.jpg,foreground,right,Experiments/experiment_48/36.jpg,Experiments/experiment_48/37.jpg,Experiments/experiment_48/38.jpg,Experiments/experiment_48/39.jpg,473,1,2023-06-28_14h24.05.795,Occlusion_Psychophysics,2022.1.4,Win32,240.1536984,,,left,"[""left""]",[0.8372000000010758],False,,0.0,0.0,9.0,9.0,9.0,1.0,,,,,,
,,,,,,,,,,,,,,,,,,,,,0.05,,,,,,,,,,Stimuli/psy_flexible_rotation_30_objects_occ0.7_0.9s/images/train/n04379243_-7/n02818832_0/img_quatre_dining_table_b03_the_sofa_and_chair_company_-_stanley_bed_2014_2011_gray.jpg,n04379243_-7,n02818832_0,flexible,0.720465,n02818832_0,Stimuli/psy_flexible_rotation_30_objects_occ0.7_0.9s/images/train/n04379243_-7/n02818832_0/img_quatre_dining_table_b03_the_sofa_and_chair_company_-_stanley_bed_2014_2011-3_gray.png,foreground,same as foreground,n04379243_-7,n02828884_3,Stimuli/canonical view 2/img_n04379243_-7_gray.jpg,Stimuli/canonical view 2/img_n02828884_3_gray.jpg,random,left,Experiments/experiment_48/40.jpg,Experiments/experiment_48/41.jpg,Experiments/experiment_48/42.jpg,Experiments/experiment_48/43.jpg,473,1,2023-06-28_14h24.05.795,Occlusion_Psychophysics,2022.1.4,Win32,240.1536984,,,right,"[""right""]",[1.256300000000806],False,,0.0,0.0,10.0,10.0,10.0,1.0,,,,,,
,,,,,,,,,,,,,,,,,,,,,0.025,,,,,,,,,,Stimuli/psy_fixed_rotation_30_objects_occ0.7_0.9s/images/train/n02883344_-1/n04379243_0/img_woven_box_17th_c._monastery_dining_table_2010_2013_gray.jpg,n02883344_-1,n04379243_0,fixed,0.70304,n04379243_0,Stimuli/psy_fixed_rotation_30_objects_occ0.7_0.9s/images/train/n02883344_-1/n04379243_0/img_woven_box_17th_c._monastery_dining_table_2010_2013-3_gray.png,foreground,same as foreground,n02883344_-1,n02828884_3,Stimuli/canonical view 2/img_n02883344_-1_gray.jpg,Stimuli/canonical view 2/img_n02828884_3_gray.jpg,random,left,Experiments/experiment_48/44.jpg,Experiments/experiment_48/45.jpg,Experiments/experiment_48/46.jpg,Experiments/experiment_48/47.jpg,473,1,2023-06-28_14h24.05.795,Occlusion_Psychophysics,2022.1.4,Win32,240.1536984,,,right,"[""right""]",[0.9885999999995647],False,,0.0,0.0,11.0,11.0,11.0,1.0,,,,,,
,,,,,,,,,,,,,,,,,,,,,0.05,,,,,,,,,,Stimuli/psy_flexible_rotation_30_objects_occ0.7_0.9s/images/train/n02828884_9/n04256520_4/img_cr-96_bench_club_house_italia_nautilus_sofa_2014_gray.jpg,n02828884_9,n04256520_4,flexible,0.702931,n04379243_8,Stimuli/psy_fixed_rotation_30_objects_occ0.7_0.9s/images/train/n02818832_0/n04379243_8/img_b03_the_sofa_and_chair_company_-_stanley_bed_2014_glass_table_2004-3_gray.png,random,fixed,n02828884_9,n03001627_8,Stimuli/canonical view 2/img_n02828884_9_gray.jpg,Stimuli/canonical view 2/img_n03001627_8_gray.jpg,random,right,Experiments/experiment_48/48.jpg,Experiments/experiment_48/49.jpg,Experiments/experiment_48/50.jpg,Experiments/experiment_48/51.jpg,473,1,2023-06-28_14h24.05.795,Occlusion_Psychophysics,2022.1.4,Win32,240.1536984,,,left,"[""left""]",[0.8033000000007178],False,,0.0,0.0,12.0,12.0,12.0,1.0,,,,,,
,,,,,,,,,,,,,,,,,,,,,0.025,,,,,,,,,,Stimuli/psy_flexible_rotation_30_objects_occ0.7_0.9s/images/train/n04379243_-7/n04379243_0/img_quatre_dining_table_17th_c._monastery_dining_table_2010_2006_gray.jpg,n04379243_-7,n04379243_0,flexible,0.730964,n02883344_-1,Stimuli/psy_flexible_rotation_30_objects_occ0.7_0.9s/images/train/n03928116_10/n02883344_-1/img_ydp_103_r_2012__vray_woven_box_2005-3_gray.png,random,flexible,n04379243_-7,n04379243_0,Stimuli/canonical view 2/img_n04379243_-7_gray.jpg,Stimuli/canonical view 2/img_n04379243_0_gray.jpg,foreground,left,Experiments/experiment_48/52.jpg,Experiments/experiment_48/53.jpg,Experiments/experiment_48/54.jpg,Experiments/experiment_48/55.jpg,473,1,2023-06-28_14h24.05.795,Occlusion_Psychophysics,2022.1.4,Win32,240.1536984,,,right,"[""left""]",[0.6114000000003443],True,right,1.0,0.0,13.0,13.0,13.0,1.0,1.2713,,,,,
,,,,,,,,,,,,,,,,,,,,,0.025,,,,,,,,,,Stimuli/psy_flexible_rotation_30_objects_occ0.7_0.9s/images/train/n04379243_8/n02883344_0/img_glass_table_b03_box_2001_gray.jpg,n04379243_8,n02883344_0,flexible,0.896865,n02883344_0,Stimuli/psy_flexible_rotation_30_objects_occ0.7_0.9s/images/train/n04379243_8/n02883344_0/img_glass_table_b03_box_2001-3_gray.png,foreground,same as foreground,n04379243_8,n04405907_5,Stimuli/canonical view 2/img_n04379243_8_gray.jpg,Stimuli/canonical view 2/img_n04405907_5_gray.jpg,random,left,Experiments/experiment_48/56.jpg,Experiments/experiment_48/57.jpg,Experiments/experiment_48/58.jpg,Experiments/experiment_48/59.jpg,473,1,2023-06-28_14h24.05.795,Occlusion_Psychophysics,2022.1.4,Win32,240.1536984,,,left,"[""left""]",[0.7473000000007914],False,,0.0,0.0,14.0,14.0,14.0,1.0,,,,,,
,,,,,,,,,,,,,,,,,,,,,0.05,,,,,,,,,,Stimuli/psy_fixed_rotation_30_objects_occ0.7_0.9s/images/train/n03001627_-2/n02933112_-18/img_wood_chair_cgaxis_models_48_26_vray_composite_2012_gray.jpg,n03001627_-2,n02933112_-18,fixed,0.747138,n02933112_-18,Stimuli/psy_fixed_rotation_30_objects_occ0.7_0.9s/images/train/n03001627_-2/n02933112_-18/img_wood_chair_cgaxis_models_48_26_vray_composite_2012-3_gray.png,foreground,same as foreground,n03001627_-2,n02933112_-18,Stimuli/canonical view 2/img_n03001627_-2_gray.jpg,Stimuli/canonical view 2/img_n02933112_-18_gray.jpg,foreground,left,Experiments/experiment_48/60.jpg,Experiments/experiment_48/61.jpg,Experiments/experiment_48/62.jpg,Experiments/experiment_48/63.jpg,473,1,2023-06-28_14h24.05.795,Occlusion_Psychophysics,2022.1.4,Win32,240.1536984,,,left,"[""left""]",[0.5875999999996111],False,,0.0,0.0,15.0,15.0,15.0,1.0,,,,,,
,,,,,,,,,,,,,,,,,,,,,0.05,,,,,,,,,,Stimuli/psy_flexible_rotation_30_objects_occ0.7_0.9s/images/train/n03928116_0/n02933112_-2/img_b02_piano_sink_base_white_wood_2012_gray.jpg,n03928116_0,n02933112_-2,flexible,0.710671,n02933112_-2,Stimuli/psy_flexible_rotation_30_objects_occ0.7_0.9s/images/train/n03928116_0/n02933112_-2/img_b02_piano_sink_base_white_wood_2012-3_gray.png,foreground,same as foreground,n03928116_0,n02818832_0,Stimuli/canonical view 2/img_n03928116_0_gray.jpg,Stimuli/canonical view 2/img_n02818832_0_gray.jpg,random,left,Experiments/experiment_48/64.jpg,Experiments/experiment_48/65.jpg,Experiments/experiment_48/66.jpg,Experiments/experiment_48/67.jpg,473,1,2023-06-28_14h24.05.795,Occlusion_Psychophysics,2022.1.4,Win32,240.1536984,,,left,"[""left""]",[0.5716000000015811],False,,0.0,0.0,16.0,16.0,16.0,1.0,,,,,,
,,,,,,,,,,,,,,,,,,,,,0.025,,,,,,,,,,Stimuli/psy_flexible_rotation_30_objects_occ0.7_0.9s/images/train/n04405907_9/n04405907_5/img_vray_004_samsung_40_uhd_smart_tv_2011_2004_gray.jpg,n04405907_9,n04405907_5,flexible,0.716905,n04405907_5,Stimuli/psy_flexible_rotation_30_objects_occ0.7_0.9s/images/train/n04405907_9/n04405907_5/img_vray_004_samsung_40_uhd_smart_tv_2011_2004-3_gray.png,foreground,same as foreground,n04405907_9,n04405907_5,Stimuli/canonical view 2/img_n04405907_9_gray.jpg,Stimuli/canonical view 2/img_n04405907_5_gray.jpg,foreground,left,Experiments/experiment_48/68.jpg,Experiments/experiment_48/69.jpg,Experiments/experiment_48/70.jpg,Experiments/experiment_48/71.jpg,473,1,2023-06-28_14h24.05.795,Occlusion_Psychophysics,2022.1.4,Win32,240.1536984,,,right,"[""right""]",[1.3121999999992795],False,,0.0,0.0,17.0,17.0,17.0,1.0,,,,,,
,,,,,,,,,,,,,,,,,,,,,0.025,,,,,,,,,,Stimuli/psy_flexible_rotation_30_objects_occ0.7_0.9s/images/train/n04405907_9/n04256520_9/img_vray_004_napoleon_iii_sofa_2005_gray.jpg,n04405907_9,n04256520_9,flexible,0.853969,n04256520_9,Stimuli/psy_flexible_rotation_30_objects_occ0.7_0.9s/images/train/n04405907_9/n04256520_9/img_vray_004_napoleon_iii_sofa_2005-3_gray.png,foreground,same as foreground,n04405907_9,n04256520_9,Stimuli/canonical view 2/img_n04405907_9_gray.jpg,Stimuli/canonical view 2/img_n04256520_9_gray.jpg,foreground,left,Experiments/experiment_48/72.jpg,Experiments/experiment_48/73.jpg,Experiments/experiment_48/74.jpg,Experiments/experiment_48/75.jpg,473,1,2023-06-28_14h24.05.795,Occlusion_Psychophysics,2022.1.4,Win32,240.1536984,,,right,"[""left""]",[0.5315000000000509],False,,0.0,0.0,18.0,18.0,18.0,1.0,,,,,,
,,,,,,,,,,,,,,,,,,,,,0.05,,,,,,,,,,Stimuli/psy_fixed_rotation_30_objects_occ0.7_0.9s/images/train/n03001627_9/n04405907_8/img_chair_eames_plastic_armchair_stylized_tv_2013_gray.jpg,n03001627_9,n04405907_8,fixed,0.708084,n04256520_4,Stimuli/psy_fixed_rotation_30_objects_occ0.7_0.9s/images/train/n03928116_0/n04256520_4/img_b02_piano_club_house_italia_nautilus_sofa_2011-3_gray.png,random,fixed,n03001627_9,n03928116_0,Stimuli/canonical view 2/img_n03001627_9_gray.jpg,Stimuli/canonical view 2/img_n03928116_0_gray.jpg,random,left,Experiments/experiment_48/76.jpg,Experiments/experiment_48/77.jpg,Experiments/experiment_48/78.jpg,Experiments/experiment_48/79.jpg,473,1,2023-06-28_14h24.05.795,Occlusion_Psychophysics,2022.1.4,Win32,240.1536984,,,right,"[""right""]",[1.1099000000003798],False,,0.0,0.0,19.0,19.0,19.0,1.0,,,,,,
,,,,,,,,,,,,,,,,,,,,,0.05,,,,,,,,,,Stimuli/psy_fixed_rotation_30_objects_occ0.7_0.9s/images/train/n04379243_0/n02933112_-18/img_17th_c._monastery_dining_table_2010_cgaxis_models_48_26_vray_composite_2005_gray.jpg,n04379243_0,n02933112_-18,fixed,0.749423,n04256520_5,Stimuli/psy_fixed_rotation_30_objects_occ0.7_0.9s/images/train/n04379243_8/n04256520_5/img_glass_table_meridiani_belmondo_bench_sofa_2008-3_gray.png,random,fixed,n04379243_0,n02828884_4,Stimuli/canonical view 2/img_n04379243_0_gray.jpg,Stimuli/canonical view 2/img_n02828884_4_gray.jpg,random,right,Experiments/experiment_48/80.jpg,Experiments/experiment_48/81.jpg,Experiments/experiment_48/82.jpg,Experiments/experiment_48/83.jpg,473,1,2023-06-28_14h24.05.795,Occlusion_Psychophysics,2022.1.4,Win32,240.1536984,,,right,"[""right""]",[0.9004000000003316],False,,0.0,0.0,20.0,20.0,20.0,1.0,,,,,,
,,,,,,,,,,,,,,,,,,,,,0.025,,,,,,,,,,Stimuli/psy_fixed_rotation_30_objects_occ0.7_0.9s/images/train/n02883344_0/n02818832_9/img_b03_box_bed01_blue_2004_gray.jpg,n02883344_0,n02818832_9,fixed,0.712855,n02818832_9,Stimuli/psy_fixed_rotation_30_objects_occ0.7_0.9s/images/train/n02883344_0/n02818832_9/img_b03_box_bed01_blue_2004-3_gray.png,foreground,same as foreground,n02883344_0,n04405907_9,Stimuli/canonical view 2/img_n02883344_0_gray.jpg,Stimuli/canonical view 2/img_n04405907_9_gray.jpg,random,left,Experiments/experiment_48/84.jpg,Experiments/experiment_48/85.jpg,Experiments/experiment_48/86.jpg,Experiments/experiment_48/87.jpg,473,1,2023-06-28_14h24.05.795,Occlusion_Psychophysics,2022.1.4,Win32,240.1536984,,,left,"[""left""]",[0.4975000000000591],False,,0.0,0.0,21.0,21.0,21.0,1.0,,,,,,
,,,,,,,,,,,,,,,,,,,,,0.05,,,,,,,,,,Stimuli/psy_fixed_rotation_30_objects_occ0.7_0.9s/images/train/n04379243_0/n02933112_-18/img_17th_c._monastery_dining_table_2010_cgaxis_models_48_26_vray_composite_2007_gray.jpg,n04379243_0,n02933112_-18,fixed,0.769884,n02883344_15,Stimuli/psy_fixed_rotation_30_objects_occ0.7_0.9s/images/train/n04256520_9/n02883344_15/img_napoleon_iii_sofa_microwave_box_2015-3_gray.png,random,fixed,n04379243_0,n02933112_-18,Stimuli/canonical view 2/img_n04379243_0_gray.jpg,Stimuli/canonical view 2/img_n02933112_-18_gray.jpg,foreground,right,Experiments/experiment_48/88.jpg,Experiments/experiment_48/89.jpg,Experiments/experiment_48/90.jpg,Experiments/experiment_48/91.jpg,473,1,2023-06-28_14h24.05.795,Occlusion_Psychophysics,2022.1.4,Win32,240.1536984,,,right,"[""right""]",[0.5287999999989097],False,,0.0,0.0,22.0,22.0,22.0,1.0,,,,,,
,,,,,,,,,,,,,,,,,,,,,0.025,,,,,,,,,,Stimuli/psy_fixed_rotation_30_objects_occ0.7_0.9s/images/train/n03928116_10/n02933112_4/img_ydp_103_r_2012__vray_buffet_2011_gray.jpg,n03928116_10,n02933112_4,fixed,0.730159,n02933112_-18,Stimuli/psy_fixed_rotation_30_objects_occ0.7_0.9s/images/train/n02828884_3/n02933112_-18/img_b04_wood_metal_park_bench_cgaxis_models_48_26_vray_composite_2004-3_gray.png,random,fixed,n03928116_10,n03001627_-2,Stimuli/canonical view 2/img_n03928116_10_gray.jpg,Stimuli/canonical view 2/img_n03001627_-2_gray.jpg,random,left,Experiments/experiment_48/92.jpg,Experiments/experiment_48/93.jpg,Experiments/experiment_48/94.jpg,Experiments/experiment_48/95.jpg,473,1,2023-06-28_14h24.05.795,Occlusion_Psychophysics,2022.1.4,Win32,240.1536984,,,right,"[""left""]",[1.3537000000011403],False,,0.0,0.0,23.0,23.0,23.0,1.0,,,,,,
,,,,,,,,,,,,,,,,,,,,,0.025,,,,,,,,,,Stimuli/psy_flexible_rotation_30_objects_occ0.7_0.9s/images/train/n02818832_0/n03928116_0/img_b03_the_sofa_and_chair_company_-_stanley_bed_2014_b02_piano_2010_gray.jpg,n02818832_0,n03928116_0,flexible,0.705978,n03928116_0,Stimuli/psy_flexible_rotation_30_objects_occ0.7_0.9s/images/train/n02818832_0/n03928116_0/img_b03_the_sofa_and_chair_company_-_stanley_bed_2014_b02_piano_2010-3_gray.png,foreground,same as foreground,n02818832_0,n03928116_0,Stimuli/canonical view 2/img_n02818832_0_gray.jpg,Stimuli/canonical view 2/img_n03928116_0_gray.jpg,foreground,left,Experiments/experiment_48/96.jpg,Experiments/experiment_48/97.jpg,Experiments/experiment_48/98.jpg,Experiments/experiment_48/99.jpg,473,1,2023-06-28_14h24.05.795,Occlusion_Psychophysics,2022.1.4,Win32,240.1536984,,,right,"[""right""]",[1.561700000001224],False,,0.0,0.0,24.0,24.0,24.0,1.0,,,,,,
,,,,,,,,,,,,,,,,,,,,,0.05,,,,,,,,,,Stimuli/psy_fixed_rotation_30_objects_occ0.7_0.9s/images/train/n04405907_5/n02883344_0/img_samsung_40_uhd_smart_tv_2011_b03_box_2000_gray.jpg,n04405907_5,n02883344_0,fixed,0.726582,n04405907_8,Stimuli/psy_fixed_rotation_30_objects_occ0.7_0.9s/images/train/n03001627_9/n04405907_8/img_chair_eames_plastic_armchair_stylized_tv_2002-3_gray.png,random,fixed,n04405907_5,n02883344_0,Stimuli/canonical view 2/img_n04405907_5_gray.jpg,Stimuli/canonical view 2/img_n02883344_0_gray.jpg,foreground,left,Experiments/experiment_48/100.jpg,Experiments/experiment_48/101.jpg,Experiments/experiment_48/102.jpg,Experiments/experiment_48/103.jpg,473,1,2023-06-28_14h24.05.795,Occlusion_Psychophysics,2022.1.4,Win32,240.1536984,,,left,"[""left""]",[0.5769000000003643],False,,0.0,0.0,25.0,25.0,25.0,1.0,,,,,,
,,,,,,,,,,,,,,,,,,,,,0.025,,,,,,,,,,Stimuli/psy_fixed_rotation_30_objects_occ0.7_0.9s/images/train/n02818832_3/n04379243_-7/img_b05_ccm_contemporary_bed_max2013_quatre_dining_table_2013_gray.jpg,n02818832_3,n04379243_-7,fixed,0.896731,n04379243_-7,Stimuli/psy_fixed_rotation_30_objects_occ0.7_0.9s/images/train/n02818832_3/n04379243_-7/img_b05_ccm_contemporary_bed_max2013_quatre_dining_table_2013-3_gray.png,foreground,same as foreground,n02818832_3,n04379243_-7,Stimuli/canonical view 2/img_n02818832_3_gray.jpg,Stimuli/canonical view 2/img_n04379243_-7_gray.jpg,foreground,left,Experiments/experiment_48/104.jpg,Experiments/experiment_48/105.jpg,Experiments/experiment_48/106.jpg,Experiments/experiment_48/107.jpg,473,1,2023-06-28_14h24.05.795,Occlusion_Psychophysics,2022.1.4,Win32,240.1536984,,,right,"[""left""]",[0.9689999999999372],False,,0.0,0.0,26.0,26.0,26.0,1.0,,,,,,
,,,,,,,,,,,,,,,,,,,,,0.025,,,,,,,,,,Stimuli/psy_fixed_rotation_30_objects_occ0.7_0.9s/images/train/n02818832_0/n04256520_9/img_b03_the_sofa_and_chair_company_-_stanley_bed_2014_napoleon_iii_sofa_2006_gray.jpg,n02818832_0,n04256520_9,fixed,0.797137,n04256520_9,Stimuli/psy_fixed_rotation_30_objects_occ0.7_0.9s/images/train/n02818832_0/n04256520_9/img_b03_the_sofa_and_chair_company_-_stanley_bed_2014_napoleon_iii_sofa_2006-3_gray.png,foreground,same as foreground,n02818832_0,n04256520_9,Stimuli/canonical view 2/img_n02818832_0_gray.jpg,Stimuli/canonical view 2/img_n04256520_9_gray.jpg,foreground,right,Experiments/experiment_48/108.jpg,Experiments/experiment_48/109.jpg,Experiments/experiment_48/110.jpg,Experiments/experiment_48/111.jpg,473,1,2023-06-28_14h24.05.795,Occlusion_Psychophysics,2022.1.4,Win32,240.1536984,,,right,"[""left""]",[0.6268999999984999],False,,0.0,0.0,27.0,27.0,27.0,1.0,,,,,,
,,,,,,,,,,,,,,,,,,,,,0.05,,,,,,,,,,Stimuli/psy_flexible_rotation_30_objects_occ0.7_0.9s/images/train/n02933112_4/n04256520_5/img_buffet_meridiani_belmondo_bench_sofa_2007_gray.jpg,n02933112_4,n04256520_5,flexible,0.797577,n03001627_-2,Stimuli/psy_flexible_rotation_30_objects_occ0.7_0.9s/images/train/n03928116_4/n03001627_-2/img_dp_33_b_2013__vray_wood_chair_2004-3_gray.png,random,flexible,n02933112_4,n02828884_3,Stimuli/canonical view 2/img_n02933112_4_gray.jpg,Stimuli/canonical view 2/img_n02828884_3_gray.jpg,random,left,Experiments/experiment_48/112.jpg,Experiments/experiment_48/113.jpg,Experiments/experiment_48/114.jpg,Experiments/experiment_48/115.jpg,473,1,2023-06-28_14h24.05.795,Occlusion_Psychophysics,2022.1.4,Win32,240.1536984,,,left,"[""left""]",[1.942800000000716],False,,0.0,0.0,28.0,28.0,28.0,1.0,,,,,,
,,,,,,,,,,,,,,,,,,,,,0.025,,,,,,,,,,Stimuli/psy_flexible_rotation_30_objects_occ0.7_0.9s/images/train/n04405907_9/n04405907_8/img_vray_004_stylized_tv_2009_gray.jpg,n04405907_9,n04405907_8,flexible,0.774856,n02883344_-1,Stimuli/psy_flexible_rotation_30_objects_occ0.7_0.9s/images/train/n04379243_8/n02883344_-1/img_glass_table_woven_box_2013-3_gray.png,random,flexible,n04405907_9,n04405907_8,Stimuli/canonical view 2/img_n04405907_9_gray.jpg,Stimuli/canonical view 2/img_n04405907_8_gray.jpg,foreground,left,Experiments/experiment_48/116.jpg,Experiments/experiment_48/117.jpg,Experiments/experiment_48/118.jpg,Experiments/experiment_48/119.jpg,473,1,2023-06-28_14h24.05.795,Occlusion_Psychophysics,2022.1.4,Win32,240.1536984,,,right,"[""right""]",[1.692800000000716],False,,0.0,0.0,29.0,29.0,29.0,1.0,,,,,,
,,,,,,,,,,,,,,,,,,,,,0.025,,,,,,,,,,Stimuli/psy_flexible_rotation_30_objects_occ0.7_0.9s/images/train/n04405907_5/n03928116_10/img_samsung_40_uhd_smart_tv_2011_ydp_103_r_2012__vray_2009_gray.jpg,n04405907_5,n03928116_10,flexible,0.780292,n03928116_10,Stimuli/psy_flexible_rotation_30_objects_occ0.7_0.9s/images/train/n04405907_5/n03928116_10/img_samsung_40_uhd_smart_tv_2011_ydp_103_r_2012__vray_2009-3_gray.png,foreground,same as foreground,n04405907_5,n03928116_10,Stimuli/canonical view 2/img_n04405907_5_gray.jpg,Stimuli/canonical view 2/img_n03928116_10_gray.jpg,foreground,left,Experiments/experiment_48/120.jpg,Experiments/experiment_48/121.jpg,Experiments/experiment_48/122.jpg,Experiments/experiment_48/123.jpg,473,1,2023-06-28_14h24.05.795,Occlusion_Psychophysics,2022.1.4,Win32,240.1536984,,,left,"[""left""]",[0.9506999999993013],True,right,1.0,0.0,30.0,30.0,30.0,1.0,1.4628,,,,,
,,,,,,,,,,,,,,,,,,,,,0.05,,,,,,,,,,Stimuli/psy_fixed_rotation_30_objects_occ0.7_0.9s/images/train/n04379243_-7/n04405907_5/img_quatre_dining_table_samsung_40_uhd_smart_tv_2011_2013_gray.jpg,n04379243_-7,n04405907_5,fixed,0.723322,n04256520_9,Stimuli/psy_flexible_rotation_30_objects_occ0.7_0.9s/images/train/n04256520_4/n04256520_9/img_club_house_italia_nautilus_sofa_napoleon_iii_sofa_2003-3_gray.png,random,flexible,n04379243_-7,n04405907_5,Stimuli/canonical view 2/img_n04379243_-7_gray.jpg,Stimuli/canonical view 2/img_n04405907_5_gray.jpg,foreground,right,Experiments/experiment_48/124.jpg,Experiments/experiment_48/125.jpg,Experiments/experiment_48/126.jpg,Experiments/experiment_48/127.jpg,473,1,2023-06-28_14h24.05.795,Occlusion_Psychophysics,2022.1.4,Win32,240.1536984,,,left,"[""left""]",[0.9985000000000355],False,,0.0,0.0,31.0,31.0,31.0,1.0,,,,,,
,,,,,,,,,,,,,,,,,,,,,0.025,,,,,,,,,,Stimuli/psy_fixed_rotation_30_objects_occ0.7_0.9s/images/train/n03928116_0/n04256520_4/img_b02_piano_club_house_italia_nautilus_sofa_2012_gray.jpg,n03928116_0,n04256520_4,fixed,0.774792,n04256520_4,Stimuli/psy_fixed_rotation_30_objects_occ0.7_0.9s/images/train/n03928116_0/n04256520_4/img_b02_piano_club_house_italia_nautilus_sofa_2012-3_gray.png,foreground,same as foreground,n03928116_0,n02883344_15,Stimuli/canonical view 2/img_n03928116_0_gray.jpg,Stimuli/canonical view 2/img_n02883344_15_gray.jpg,random,left,Experiments/experiment_48/128.jpg,Experiments/experiment_48/129.jpg,Experiments/experiment_48/130.jpg,Experiments/experiment_48/131.jpg,473,1,2023-06-28_14h24.05.795,Occlusion_Psychophysics,2022.1.4,Win32,240.1536984,,,right,"[""left""]",[1.0345999999996138],False,,0.0,0.0,32.0,32.0,32.0,1.0,,,,,,
,,,,,,,,,,,,,,,,,,,,,0.025,,,,,,,,,,Stimuli/psy_fixed_rotation_30_objects_occ0.7_0.9s/images/train/n04379243_0/n03928116_10/img_17th_c._monastery_dining_table_2010_ydp_103_r_2012__vray_2006_gray.jpg,n04379243_0,n03928116_10,fixed,0.788704,n03928116_10,Stimuli/psy_fixed_rotation_30_objects_occ0.7_0.9s/images/train/n04379243_0/n03928116_10/img_17th_c._monastery_dining_table_2010_ydp_103_r_2012__vray_2006-3_gray.png,foreground,same as foreground,n04379243_0,n03928116_10,Stimuli/canonical view 2/img_n04379243_0_gray.jpg,Stimuli/canonical view 2/img_n03928116_10_gray.jpg,foreground,right,Experiments/experiment_48/132.jpg,Experiments/experiment_48/133.jpg,Experiments/experiment_48/134.jpg,Experiments/experiment_48/135.jpg,473,1,2023-06-28_14h24.05.795,Occlusion_Psychophysics,2022.1.4,Win32,240.1536984,,,right,"[""left""]",[1.6371999999992113],False,,0.0,0.0,33.0,33.0,33.0,1.0,,,,,,
,,,,,,,,,,,,,,,,,,,,,0.025,,,,,,,,,,Stimuli/psy_fixed_rotation_30_objects_occ0.7_0.9s/images/train/n02828884_3/n02933112_-2/img_b04_wood_metal_park_bench_sink_base_white_wood_2014_gray.jpg,n02828884_3,n02933112_-2,fixed,0.762055,n02883344_-1,Stimuli/psy_flexible_rotation_30_objects_occ0.7_0.9s/images/train/n02828884_3/n02883344_-1/img_b04_wood_metal_park_bench_woven_box_2005-3_gray.png,random,flexible,n02828884_3,n02933112_-2,Stimuli/canonical view 2/img_n02828884_3_gray.jpg,Stimuli/canonical view 2/img_n02933112_-2_gray.jpg,foreground,right,Experiments/experiment_48/136.jpg,Experiments/experiment_48/137.jpg,Experiments/experiment_48/138.jpg,Experiments/experiment_48/139.jpg,473,1,2023-06-28_14h24.05.795,Occlusion_Psychophysics,2022.1.4,Win32,240.1536984,,,right,"[""right""]",[0.9320999999996502],False,,0.0,0.0,34.0,34.0,34.0,1.0,,,,,,
,,,,,,,,,,,,,,,,,,,,,0.05,,,,,,,,,,Stimuli/psy_flexible_rotation_30_objects_occ0.7_0.9s/images/train/n02828884_3/n02883344_-1/img_b04_wood_metal_park_bench_woven_box_2014_gray.jpg,n02828884_3,n02883344_-1,flexible,0.71986,n02883344_-1,Stimuli/psy_flexible_rotation_30_objects_occ0.7_0.9s/images/train/n02828884_3/n02883344_-1/img_b04_wood_metal_park_bench_woven_box_2014-3_gray.png,foreground,same as foreground,n02828884_3,n02883344_-1,Stimuli/canonical view 2/img_n02828884_3_gray.jpg,Stimuli/canonical view 2/img_n02883344_-1_gray.jpg,foreground,right,Experiments/experiment_48/140.jpg,Experiments/experiment_48/141.jpg,Experiments/experiment_48/142.jpg,Experiments/experiment_48/143.jpg,473,1,2023-06-28_14h24.05.795,Occlusion_Psychophysics,2022.1.4,Win32,240.1536984,,,left,"[""left""]",[0.7345000000000255],False,,0.0,0.0,35.0,35.0,35.0,1.0,,,,,,
,,,,,,,,,,,,,,,,,,,,,0.025,,,,,,,,,,Stimuli/psy_flexible_rotation_30_objects_occ0.7_0.9s/images/train/n02818832_9/n04379243_0/img_bed01_blue_17th_c._monastery_dining_table_2010_2008_gray.jpg,n02818832_9,n04379243_0,flexible,0.751779,n04379243_0,Stimuli/psy_flexible_rotation_30_objects_occ0.7_0.9s/images/train/n02818832_9/n04379243_0/img_bed01_blue_17th_c._monastery_dining_table_2010_2008-3_gray.png,foreground,same as foreground,n02818832_9,n04379243_0,Stimuli/canonical view 2/img_n02818832_9_gray.jpg,Stimuli/canonical view 2/img_n04379243_0_gray.jpg,foreground,left,Experiments/experiment_48/144.jpg,Experiments/experiment_48/145.jpg,Experiments/experiment_48/146.jpg,Experiments/experiment_48/147.jpg,473,1,2023-06-28_14h24.05.795,Occlusion_Psychophysics,2022.1.4,Win32,240.1536984,,,right,"[""left""]",[0.8659999999999854],False,,0.0,0.0,36.0,36.0,36.0,1.0,,,,,,
,,,,,,,,,,,,,,,,,,,,,0.05,,,,,,,,,,Stimuli/psy_flexible_rotation_30_objects_occ0.7_0.9s/images/train/n02883344_0/n02883344_15/img_b03_box_microwave_box_2004_gray.jpg,n02883344_0,n02883344_15,flexible,0.812943,n02883344_15,Stimuli/psy_flexible_rotation_30_objects_occ0.7_0.9s/images/train/n02883344_0/n02883344_15/img_b03_box_microwave_box_2004-3_gray.png,foreground,same as foreground,n02883344_0,n02883344_15,Stimuli/canonical view 2/img_n02883344_0_gray.jpg,Stimuli/canonical view 2/img_n02883344_15_gray.jpg,foreground,right,Experiments/experiment_48/148.jpg,Experiments/experiment_48/149.jpg,Experiments/experiment_48/150.jpg,Experiments/experiment_48/151.jpg,473,1,2023-06-28_14h24.05.795,Occlusion_Psychophysics,2022.1.4,Win32,240.1536984,,,left,"[""left""]",[1.3096999999993386],False,,0.0,0.0,37.0,37.0,37.0,1.0,,,,,,
,,,,,,,,,,,,,,,,,,,,,0.025,,,,,,,,,,Stimuli/psy_fixed_rotation_30_objects_occ0.7_0.9s/images/train/n02933112_-18/n04405907_8/img_cgaxis_models_48_26_vray_composite_stylized_tv_2003_gray.jpg,n02933112_-18,n04405907_8,fixed,0.736937,n02828884_3,Stimuli/psy_flexible_rotation_30_objects_occ0.7_0.9s/images/train/n04256520_5/n02828884_3/img_meridiani_belmondo_bench_sofa_b04_wood_metal_park_bench_2005-3_gray.png,random,flexible,n02933112_-18,n04379243_-7,Stimuli/canonical view 2/img_n02933112_-18_gray.jpg,Stimuli/canonical view 2/img_n04379243_-7_gray.jpg,random,left,Experiments/experiment_48/152.jpg,Experiments/experiment_48/153.jpg,Experiments/experiment_48/154.jpg,Experiments/experiment_48/155.jpg,473,1,2023-06-28_14h24.05.795,Occlusion_Psychophysics,2022.1.4,Win32,240.1536984,,,right,"[""right""]",[1.2110000000000127],False,,0.0,0.0,38.0,38.0,38.0,1.0,,,,,,
,,,,,,,,,,,,,,,,,,,,,0.05,,,,,,,,,,Stimuli/psy_flexible_rotation_30_objects_occ0.7_0.9s/images/train/n02933112_4/n02828884_3/img_buffet_b04_wood_metal_park_bench_2008_gray.jpg,n02933112_4,n02828884_3,flexible,0.710307,n02883344_15,Stimuli/psy_fixed_rotation_30_objects_occ0.7_0.9s/images/train/n04070727_5/n02883344_15/img_b05_db_apps_tech_06_13_composite_microwave_box_2001-3_gray.png,random,fixed,n02933112_4,n02828884_3,Stimuli/canonical view 2/img_n02933112_4_gray.jpg,Stimuli/canonical view 2/img_n02828884_3_gray.jpg,foreground,right,Experiments/experiment_48/156.jpg,Experiments/experiment_48/157.jpg,Experiments/experiment_48/158.jpg,Experiments/experiment_48/159.jpg,473,1,2023-06-28_14h24.05.795,Occlusion_Psychophysics,2022.1.4,Win32,240.1536984,,,right,"[""left""]",[1.4956999999992604],False,,0.0,0.0,39.0,39.0,39.0,1.0,,,,,,
,,,,,,,,,,,,,,,,,,,,,0.05,,,,,,,,,,Stimuli/psy_fixed_rotation_30_objects_occ0.7_0.9s/images/train/n02883344_0/n04256520_9/img_b03_box_napoleon_iii_sofa_2011_gray.jpg,n02883344_0,n04256520_9,fixed,0.714201,n04256520_9,Stimuli/psy_fixed_rotation_30_objects_occ0.7_0.9s/images/train/n02883344_0/n04256520_9/img_b03_box_napoleon_iii_sofa_2011-3_gray.png,foreground,same as foreground,n02883344_0,n03001627_9,Stimuli/canonical view 2/img_n02883344_0_gray.jpg,Stimuli/canonical view 2/img_n03001627_9_gray.jpg,random,left,Experiments/experiment_48/160.jpg,Experiments/experiment_48/161.jpg,Experiments/experiment_48/162.jpg,Experiments/experiment_48/163.jpg,473,1,2023-06-28_14h24.05.795,Occlusion_Psychophysics,2022.1.4,Win32,240.1536984,,,left,"[""right""]",[1.143699999999285],False,,0.0,0.0,40.0,40.0,40.0,1.0,,,,,,
,,,,,,,,,,,,,,,,,,,,,0.05,,,,,,,,,,Stimuli/psy_fixed_rotation_30_objects_occ0.7_0.9s/images/train/n04256520_4/n02818832_9/img_club_house_italia_nautilus_sofa_bed01_blue_2004_gray.jpg,n04256520_4,n02818832_9,fixed,0.759433,n02818832_9,Stimuli/psy_fixed_rotation_30_objects_occ0.7_0.9s/images/train/n04256520_4/n02818832_9/img_club_house_italia_nautilus_sofa_bed01_blue_2004-3_gray.png,foreground,same as foreground,n04256520_4,n03928116_10,Stimuli/canonical view 2/img_n04256520_4_gray.jpg,Stimuli/canonical view 2/img_n03928116_10_gray.jpg,random,right,Experiments/experiment_48/164.jpg,Experiments/experiment_48/165.jpg,Experiments/experiment_48/166.jpg,Experiments/experiment_48/167.jpg,473,1,2023-06-28_14h24.05.795,Occlusion_Psychophysics,2022.1.4,Win32,240.1536984,,,right,"[""right""]",[0.9827999999988606],False,,0.0,0.0,41.0,41.0,41.0,1.0,,,,,,
,,,,,,,,,,,,,,,,,,,,,0.025,,,,,,,,,,Stimuli/psy_fixed_rotation_30_objects_occ0.7_0.9s/images/train/n02818832_9/n04379243_-7/img_bed01_blue_quatre_dining_table_2000_gray.jpg,n02818832_9,n04379243_-7,fixed,0.728552,n04379243_-7,Stimuli/psy_fixed_rotation_30_objects_occ0.7_0.9s/images/train/n02818832_9/n04379243_-7/img_bed01_blue_quatre_dining_table_2000-3_gray.png,foreground,same as foreground,n02818832_9,n04379243_-7,Stimuli/canonical view 2/img_n02818832_9_gray.jpg,Stimuli/canonical view 2/img_n04379243_-7_gray.jpg,foreground,right,Experiments/experiment_48/168.jpg,Experiments/experiment_48/169.jpg,Experiments/experiment_48/170.jpg,Experiments/experiment_48/171.jpg,473,1,2023-06-28_14h24.05.795,Occlusion_Psychophysics,2022.1.4,Win32,240.1536984,,,right,"[""right""]",[0.7896999999993568],False,,0.0,0.0,42.0,42.0,42.0,1.0,,,,,,
,,,,,,,,,,,,,,,,,,,,,0.05,,,,,,,,,,Stimuli/psy_fixed_rotation_30_objects_occ0.7_0.9s/images/train/n02818832_3/n02933112_4/img_b05_ccm_contemporary_bed_max2013_buffet_2014_gray.jpg,n02818832_3,n02933112_4,fixed,0.701446,n02933112_4,Stimuli/psy_fixed_rotation_30_objects_occ0.7_0.9s/images/train/n02818832_3/n02933112_4/img_b05_ccm_contemporary_bed_max2013_buffet_2014-3_gray.png,foreground,same as foreground,n02818832_3,n02933112_4,Stimuli/canonical view 2/img_n02818832_3_gray.jpg,Stimuli/canonical view 2/img_n02933112_4_gray.jpg,foreground,left,Experiments/experiment_48/172.jpg,Experiments/experiment_48/173.jpg,Experiments/experiment_48/174.jpg,Experiments/experiment_48/175.jpg,473,1,2023-06-28_14h24.05.795,Occlusion_Psychophysics,2022.1.4,Win32,240.1536984,,,right,"[""left""]",[1.3319000000004735],False,,0.0,0.0,43.0,43.0,43.0,1.0,,,,,,
,,,,,,,,,,,,,,,,,,,,,0.025,,,,,,,,,,Stimuli/psy_fixed_rotation_30_objects_occ0.7_0.9s/images/train/n03928116_4/n04405907_9/img_dp_33_b_2013__vray_vray_004_2007_gray.jpg,n03928116_4,n04405907_9,fixed,0.745055,n04405907_9,Stimuli/psy_fixed_rotation_30_objects_occ0.7_0.9s/images/train/n03928116_4/n04405907_9/img_dp_33_b_2013__vray_vray_004_2007-3_gray.png,foreground,same as foreground,n03928116_4,n04405907_9,Stimuli/canonical view 2/img_n03928116_4_gray.jpg,Stimuli/canonical view 2/img_n04405907_9_gray.jpg,foreground,left,Experiments/experiment_48/176.jpg,Experiments/experiment_48/177.jpg,Experiments/experiment_48/178.jpg,Experiments/experiment_48/179.jpg,473,1,2023-06-28_14h24.05.795,Occlusion_Psychophysics,2022.1.4,Win32,240.1536984,,,right,"[""left""]",[1.2876000000015893],False,,0.0,0.0,44.0,44.0,44.0,1.0,,,,,,
,,,,,,,,,,,,,,,,,,,,,0.05,,,,,,,,,,Stimuli/psy_fixed_rotation_30_objects_occ0.7_0.9s/images/train/n02818832_3/n04379243_-7/img_b05_ccm_contemporary_bed_max2013_quatre_dining_table_2006_gray.jpg,n02818832_3,n04379243_-7,fixed,0.708861,n04405907_5,Stimuli/psy_fixed_rotation_30_objects_occ0.7_0.9s/images/train/n04256520_5/n04405907_5/img_meridiani_belmondo_bench_sofa_samsung_40_uhd_smart_tv_2011_2001-3_gray.png,random,fixed,n02818832_3,n04379243_-7,Stimuli/canonical view 2/img_n02818832_3_gray.jpg,Stimuli/canonical view 2/img_n04379243_-7_gray.jpg,foreground,right,Experiments/experiment_48/180.jpg,Experiments/experiment_48/181.jpg,Experiments/experiment_48/182.jpg,Experiments/experiment_48/183.jpg,473,1,2023-06-28_14h24.05.795,Occlusion_Psychophysics,2022.1.4,Win32,240.1536984,,,left,"[""left""]",[1.380699999999365],False,,0.0,0.0,45.0,45.0,45.0,1.0,,,,,,
,,,,,,,,,,,,,,,,,,,,,0.05,,,,,,,,,,Stimuli/psy_flexible_rotation_30_objects_occ0.7_0.9s/images/train/n02828884_3/n02818832_0/img_b04_wood_metal_park_bench_b03_the_sofa_and_chair_company_-_stanley_bed_2014_2014_gray.jpg,n02828884_3,n02818832_0,flexible,0.73394,n02818832_0,Stimuli/psy_flexible_rotation_30_objects_occ0.7_0.9s/images/train/n02828884_3/n02818832_0/img_b04_wood_metal_park_bench_b03_the_sofa_and_chair_company_-_stanley_bed_2014_2014-3_gray.png,foreground,same as foreground,n02828884_3,n02828884_4,Stimuli/canonical view 2/img_n02828884_3_gray.jpg,Stimuli/canonical view 2/img_n02828884_4_gray.jpg,random,right,Experiments/experiment_48/184.jpg,Experiments/experiment_48/185.jpg,Experiments/experiment_48/186.jpg,Experiments/experiment_48/187.jpg,473,1,2023-06-28_14h24.05.795,Occlusion_Psychophysics,2022.1.4,Win32,240.1536984,,,right,"[""right""]",[0.7125999999996111],False,,0.0,0.0,46.0,46.0,46.0,1.0,,,,,,
,,,,,,,,,,,,,,,,,,,,,0.025,,,,,,,,,,Stimuli/psy_flexible_rotation_30_objects_occ0.7_0.9s/images/train/n03928116_4/n02933112_-2/img_dp_33_b_2013__vray_sink_base_white_wood_2012_gray.jpg,n03928116_4,n02933112_-2,flexible,0.73383,n02933112_-2,Stimuli/psy_flexible_rotation_30_objects_occ0.7_0.9s/images/train/n03928116_4/n02933112_-2/img_dp_33_b_2013__vray_sink_base_white_wood_2012-3_gray.png,foreground,same as foreground,n03928116_4,n04405907_8,Stimuli/canonical view 2/img_n03928116_4_gray.jpg,Stimuli/canonical view 2/img_n04405907_8_gray.jpg,random,right,Experiments/experiment_48/188.jpg,Experiments/experiment_48/189.jpg,Experiments/experiment_48/190.jpg,Experiments/experiment_48/191.jpg,473,1,2023-06-28_14h24.05.795,Occlusion_Psychophysics,2022.1.4,Win32,240.1536984,,,right,"[""right""]",[1.3372999999988906],False,,0.0,0.0,47.0,47.0,47.0,1.0,,,,,,
,,,,,,,,,,,,,,,,,,,,,0.05,,,,,,,,,,Stimuli/psy_flexible_rotation_30_objects_occ0.7_0.9s/images/train/n03001627_9/n04405907_8/img_chair_eames_plastic_armchair_stylized_tv_2000_gray.jpg,n03001627_9,n04405907_8,flexible,0.870124,n04256520_9,Stimuli/psy_flexible_rotation_30_objects_occ0.7_0.9s/images/train/n04256520_5/n04256520_9/img_meridiani_belmondo_bench_sofa_napoleon_iii_sofa_2007-3_gray.png,random,flexible,n03001627_9,n02883344_15,Stimuli/canonical view 2/img_n03001627_9_gray.jpg,Stimuli/canonical view 2/img_n02883344_15_gray.jpg,random,left,Experiments/experiment_48/192.jpg,Experiments/experiment_48/193.jpg,Experiments/experiment_48/194.jpg,Experiments/experiment_48/195.jpg,473,1,2023-06-28_14h24.05.795,Occlusion_Psychophysics,2022.1.4,Win32,240.1536984,,,right,"[""right""]",[0.9730999999997039],False,,0.0,0.0,48.0,48.0,48.0,1.0,,,,,,
,,,,,,,,,,,,,,,,,,,,,0.025,,,,,,,,,,Stimuli/psy_fixed_rotation_30_objects_occ0.7_0.9s/images/train/n04405907_8/n02883344_-1/img_stylized_tv_woven_box_2005_gray.jpg,n04405907_8,n02883344_-1,fixed,0.724331,n03928116_0,Stimuli/psy_fixed_rotation_30_objects_occ0.7_0.9s/images/train/n02933112_4/n03928116_0/img_buffet_b02_piano_2009-3_gray.png,random,fixed,n04405907_8,n03928116_10,Stimuli/canonical view 2/img_n04405907_8_gray.jpg,Stimuli/canonical view 2/img_n03928116_10_gray.jpg,random,left,Experiments/experiment_48/196.jpg,Experiments/experiment_48/197.jpg,Experiments/experiment_48/198.jpg,Experiments/experiment_48/199.jpg,473,1,2023-06-28_14h24.05.795,Occlusion_Psychophysics,2022.1.4,Win32,240.1536984,,,right,"[""right""]",[1.137200000001144],False,,0.0,0.0,49.0,49.0,49.0,1.0,,,,,,
,,,,,,,,,,,,,,,,,,,,,0.025,,,,,,,,,,Stimuli/psy_flexible_rotation_30_objects_occ0.7_0.9s/images/train/n02883344_0/n02828884_9/img_b03_box_cr-96_bench_2006_gray.jpg,n02883344_0,n02828884_9,flexible,0.709756,n02828884_9,Stimuli/psy_flexible_rotation_30_objects_occ0.7_0.9s/images/train/n02883344_0/n02828884_9/img_b03_box_cr-96_bench_2006-3_gray.png,foreground,same as foreground,n02883344_0,n02818832_9,Stimuli/canonical view 2/img_n02883344_0_gray.jpg,Stimuli/canonical view 2/img_n02818832_9_gray.jpg,random,left,Experiments/experiment_48/200.jpg,Experiments/experiment_48/201.jpg,Experiments/experiment_48/202.jpg,Experiments/experiment_48/203.jpg,473,1,2023-06-28_14h24.05.795,Occlusion_Psychophysics,2022.1.4,Win32,240.1536984,,,right,"[""right""]",[0.9618000000008351],False,,0.0,0.0,50.0,50.0,50.0,1.0,,,,,,
,,,,,,,,,,,,,,,,,,,,,0.025,,,,,,,,,,Stimuli/psy_flexible_rotation_30_objects_occ0.7_0.9s/images/train/n04256520_5/n04405907_9/img_meridiani_belmondo_bench_sofa_vray_004_2013_gray.jpg,n04256520_5,n04405907_9,flexible,0.700012,n04405907_9,Stimuli/psy_flexible_rotation_30_objects_occ0.7_0.9s/images/train/n04256520_5/n04405907_9/img_meridiani_belmondo_bench_sofa_vray_004_2013-3_gray.png,foreground,same as foreground,n04256520_5,n03001627_-2,Stimuli/canonical view 2/img_n04256520_5_gray.jpg,Stimuli/canonical view 2/img_n03001627_-2_gray.jpg,random,right,Experiments/experiment_48/204.jpg,Experiments/experiment_48/205.jpg,Experiments/experiment_48/206.jpg,Experiments/experiment_48/207.jpg,473,1,2023-06-28_14h24.05.795,Occlusion_Psychophysics,2022.1.4,Win32,240.1536984,,,right,"[""right""]",[0.8533999999984871],False,,0.0,0.0,51.0,51.0,51.0,1.0,,,,,,
,,,,,,,,,,,,,,,,,,,,,0.05,,,,,,,,,,Stimuli/psy_fixed_rotation_30_objects_occ0.7_0.9s/images/train/n02883344_-1/n02933112_-18/img_woven_box_cgaxis_models_48_26_vray_composite_2002_gray.jpg,n02883344_-1,n02933112_-18,fixed,0.764266,n02828884_3,Stimuli/psy_fixed_rotation_30_objects_occ0.7_0.9s/images/train/n04405907_5/n02828884_3/img_samsung_40_uhd_smart_tv_2011_b04_wood_metal_park_bench_2002-3_gray.png,random,fixed,n02883344_-1,n02818832_9,Stimuli/canonical view 2/img_n02883344_-1_gray.jpg,Stimuli/canonical view 2/img_n02818832_9_gray.jpg,random,left,Experiments/experiment_48/208.jpg,Experiments/experiment_48/209.jpg,Experiments/experiment_48/210.jpg,Experiments/experiment_48/211.jpg,473,1,2023-06-28_14h24.05.795,Occlusion_Psychophysics,2022.1.4,Win32,240.1536984,,,left,"[""left""]",[0.5497999999988679],False,,0.0,0.0,52.0,52.0,52.0,1.0,,,,,,
,,,,,,,,,,,,,,,,,,,,,0.025,,,,,,,,,,Stimuli/psy_flexible_rotation_30_objects_occ0.7_0.9s/images/train/n03001627_9/n04256520_4/img_chair_eames_plastic_armchair_club_house_italia_nautilus_sofa_2000_gray.jpg,n03001627_9,n04256520_4,flexible,0.726688,n02828884_3,Stimuli/psy_fixed_rotation_30_objects_occ0.7_0.9s/images/train/n04405907_9/n02828884_3/img_vray_004_b04_wood_metal_park_bench_2013-3_gray.png,random,fixed,n03001627_9,n04379243_8,Stimuli/canonical view 2/img_n03001627_9_gray.jpg,Stimuli/canonical view 2/img_n04379243_8_gray.jpg,random,left,Experiments/experiment_48/212.jpg,Experiments/experiment_48/213.jpg,Experiments/experiment_48/214.jpg,Experiments/experiment_48/215.jpg,473,1,2023-06-28_14h24.05.795,Occlusion_Psychophysics,2022.1.4,Win32,240.1536984,,,right,"[""right""]",[0.5063999999985072],False,,0.0,0.0,53.0,53.0,53.0,1.0,,,,,,
,,,,,,,,,,,,,,,,,,,,,0.05,,,,,,,,,,Stimuli/psy_fixed_rotation_30_objects_occ0.7_0.9s/images/train/n04379243_8/n04405907_9/img_glass_table_vray_004_2001_gray.jpg,n04379243_8,n04405907_9,fixed,0.766854,n04405907_9,Stimuli/psy_fixed_rotation_30_objects_occ0.7_0.9s/images/train/n04379243_8/n04405907_9/img_glass_table_vray_004_2001-3_gray.png,foreground,same as foreground,n04379243_8,n04405907_9,Stimuli/canonical view 2/img_n04379243_8_gray.jpg,Stimuli/canonical view 2/img_n04405907_9_gray.jpg,foreground,right,Experiments/experiment_48/216.jpg,Experiments/experiment_48/217.jpg,Experiments/experiment_48/218.jpg,Experiments/experiment_48/219.jpg,473,1,2023-06-28_14h24.05.795,Occlusion_Psychophysics,2022.1.4,Win32,240.1536984,,,right,"[""right""]",[0.5980999999997039],False,,0.0,0.0,54.0,54.0,54.0,1.0,,,,,,
,,,,,,,,,,,,,,,,,,,,,0.025,,,,,,,,,,Stimuli/psy_fixed_rotation_30_objects_occ0.7_0.9s/images/train/n04405907_5/n02883344_15/img_samsung_40_uhd_smart_tv_2011_microwave_box_2003_gray.jpg,n04405907_5,n02883344_15,fixed,0.758246,n02883344_15,Stimuli/psy_fixed_rotation_30_objects_occ0.7_0.9s/images/train/n04405907_5/n02883344_15/img_samsung_40_uhd_smart_tv_2011_microwave_box_2003-3_gray.png,foreground,same as foreground,n04405907_5,n04405907_9,Stimuli/canonical view 2/img_n04405907_5_gray.jpg,Stimuli/canonical view 2/img_n04405907_9_gray.jpg,random,right,Experiments/experiment_48/220.jpg,Experiments/experiment_48/221.jpg,Experiments/experiment_48/222.jpg,Experiments/experiment_48/223.jpg,473,1,2023-06-28_14h24.05.795,Occlusion_Psychophysics,2022.1.4,Win32,240.1536984,,,right,"[""right""]",[0.922900000000368],False,,0.0,0.0,55.0,55.0,55.0,1.0,,,,,,
,,,,,,,,,,,,,,,,,,,,,0.05,,,,,,,,,,Stimuli/psy_flexible_rotation_30_objects_occ0.7_0.9s/images/train/n02933112_-18/n02818832_3/img_cgaxis_models_48_26_vray_composite_b05_ccm_contemporary_bed_max2013_2007_gray.jpg,n02933112_-18,n02818832_3,flexible,0.861601,n02883344_15,Stimuli/psy_fixed_rotation_30_objects_occ0.7_0.9s/images/train/n04070727_5/n02883344_15/img_b05_db_apps_tech_06_13_composite_microwave_box_2006-3_gray.png,random,fixed,n02933112_-18,n02818832_3,Stimuli/canonical view 2/img_n02933112_-18_gray.jpg,Stimuli/canonical view 2/img_n02818832_3_gray.jpg,foreground,right,Experiments/experiment_48/224.jpg,Experiments/experiment_48/225.jpg,Experiments/experiment_48/226.jpg,Experiments/experiment_48/227.jpg,473,1,2023-06-28_14h24.05.795,Occlusion_Psychophysics,2022.1.4,Win32,240.1536984,,,left,"[""left""]",[1.7927000000011049],False,,0.0,0.0,56.0,56.0,56.0,1.0,,,,,,
,,,,,,,,,,,,,,,,,,,,,0.05,,,,,,,,,,Stimuli/psy_flexible_rotation_30_objects_occ0.7_0.9s/images/train/n03928116_10/n04379243_-7/img_ydp_103_r_2012__vray_quatre_dining_table_2009_gray.jpg,n03928116_10,n04379243_-7,flexible,0.704143,n04405907_9,Stimuli/psy_fixed_rotation_30_objects_occ0.7_0.9s/images/train/n04379243_0/n04405907_9/img_17th_c._monastery_dining_table_2010_vray_004_2015-3_gray.png,random,fixed,n03928116_10,n02828884_4,Stimuli/canonical view 2/img_n03928116_10_gray.jpg,Stimuli/canonical view 2/img_n02828884_4_gray.jpg,random,left,Experiments/experiment_48/228.jpg,Experiments/experiment_48/229.jpg,Experiments/experiment_48/230.jpg,Experiments/experiment_48/231.jpg,473,1,2023-06-28_14h24.05.795,Occlusion_Psychophysics,2022.1.4,Win32,240.1536984,,,right,"[""left""]",[0.8204000000004044],False,,0.0,0.0,57.0,57.0,57.0,1.0,,,,,,
,,,,,,,,,,,,,,,,,,,,,0.025,,,,,,,,,,Stimuli/psy_fixed_rotation_30_objects_occ0.7_0.9s/images/train/n04379243_8/n02818832_3/img_glass_table_b05_ccm_contemporary_bed_max2013_2000_gray.jpg,n04379243_8,n02818832_3,fixed,0.842708,n02933112_-2,Stimuli/psy_fixed_rotation_30_objects_occ0.7_0.9s/images/train/n03928116_0/n02933112_-2/img_b02_piano_sink_base_white_wood_2003-3_gray.png,random,fixed,n04379243_8,n04256520_5,Stimuli/canonical view 2/img_n04379243_8_gray.jpg,Stimuli/canonical view 2/img_n04256520_5_gray.jpg,random,left,Experiments/experiment_48/232.jpg,Experiments/experiment_48/233.jpg,Experiments/experiment_48/234.jpg,Experiments/experiment_48/235.jpg,473,1,2023-06-28_14h24.05.795,Occlusion_Psychophysics,2022.1.4,Win32,240.1536984,,,right,"[""left""]",[1.7270999999996093],False,,0.0,0.0,58.0,58.0,58.0,1.0,,,,,,
,,,,,,,,,,,,,,,,,,,,,0.05,,,,,,,,,,Stimuli/psy_flexible_rotation_30_objects_occ0.7_0.9s/images/train/n02818832_0/n02933112_-18/img_b03_the_sofa_and_chair_company_-_stanley_bed_2014_cgaxis_models_48_26_vray_composite_2001_gray.jpg,n02818832_0,n02933112_-18,flexible,0.762607,n02828884_3,Stimuli/psy_fixed_rotation_30_objects_occ0.7_0.9s/images/train/n02883344_-1/n02828884_3/img_woven_box_b04_wood_metal_park_bench_2008-3_gray.png,random,fixed,n02818832_0,n03928116_10,Stimuli/canonical view 2/img_n02818832_0_gray.jpg,Stimuli/canonical view 2/img_n03928116_10_gray.jpg,random,right,Experiments/experiment_48/236.jpg,Experiments/experiment_48/237.jpg,Experiments/experiment_48/238.jpg,Experiments/experiment_48/239.jpg,473,1,2023-06-28_14h24.05.795,Occlusion_Psychophysics,2022.1.4,Win32,240.1536984,,,right,"[""right""]",[0.7404000000003634],False,,0.0,0.0,59.0,59.0,59.0,1.0,,,,,,
,,,,,,,,,,,,,,,,,,,,,0.05,,,,,,,,,,Stimuli/psy_flexible_rotation_30_objects_occ0.7_0.9s/images/train/n04405907_5/n02818832_9/img_samsung_40_uhd_smart_tv_2011_bed01_blue_2005_gray.jpg,n04405907_5,n02818832_9,flexible,0.765625,n04405907_9,Stimuli/psy_fixed_rotation_30_objects_occ0.7_0.9s/images/train/n04256520_4/n04405907_9/img_club_house_italia_nautilus_sofa_vray_004_2004-3_gray.png,random,fixed,n04405907_5,n04379243_0,Stimuli/canonical view 2/img_n04405907_5_gray.jpg,Stimuli/canonical view 2/img_n04379243_0_gray.jpg,random,right,Experiments/experiment_48/240.jpg,Experiments/experiment_48/241.jpg,Experiments/experiment_48/242.jpg,Experiments/experiment_48/243.jpg,473,1,2023-06-28_14h24.05.795,Occlusion_Psychophysics,2022.1.4,Win32,240.1536984,,,left,"[""left""]",[0.5539000000003398],False,,0.0,0.0,60.0,60.0,60.0,1.0,,,,,,
,,,,,,,,,,,,,,,,,,,,,0.05,,,,,,,,,,Stimuli/psy_fixed_rotation_30_objects_occ0.7_0.9s/images/train/n04256520_9/n02818832_9/img_napoleon_iii_sofa_bed01_blue_2011_gray.jpg,n04256520_9,n02818832_9,fixed,0.736989,n04379243_-7,Stimuli/psy_flexible_rotation_30_objects_occ0.7_0.9s/images/train/n02818832_3/n04379243_-7/img_b05_ccm_contemporary_bed_max2013_quatre_dining_table_2007-3_gray.png,random,flexible,n04256520_9,n02883344_-1,Stimuli/canonical view 2/img_n04256520_9_gray.jpg,Stimuli/canonical view 2/img_n02883344_-1_gray.jpg,random,right,Experiments/experiment_48/244.jpg,Experiments/experiment_48/245.jpg,Experiments/experiment_48/246.jpg,Experiments/experiment_48/247.jpg,473,1,2023-06-28_14h24.05.795,Occlusion_Psychophysics,2022.1.4,Win32,240.1536984,,,right,"[""right""]",[0.8157000000011294],False,,0.0,0.0,61.0,61.0,61.0,1.0,,,,,,
,,,,,,,,,,,,,,,,,,,,,0.05,,,,,,,,,,Stimuli/psy_fixed_rotation_30_objects_occ0.7_0.9s/images/train/n03001627_9/n02883344_15/img_chair_eames_plastic_armchair_microwave_box_2004_gray.jpg,n03001627_9,n02883344_15,fixed,0.758616,n02883344_15,Stimuli/psy_fixed_rotation_30_objects_occ0.7_0.9s/images/train/n03001627_9/n02883344_15/img_chair_eames_plastic_armchair_microwave_box_2004-3_gray.png,foreground,same as foreground,n03001627_9,n02883344_15,Stimuli/canonical view 2/img_n03001627_9_gray.jpg,Stimuli/canonical view 2/img_n02883344_15_gray.jpg,foreground,left,Experiments/experiment_48/248.jpg,Experiments/experiment_48/249.jpg,Experiments/experiment_48/250.jpg,Experiments/experiment_48/251.jpg,473,1,2023-06-28_14h24.05.795,Occlusion_Psychophysics,2022.1.4,Win32,240.1536984,,,left,"[""left""]",[0.6927000000010821],False,,0.0,0.0,62.0,62.0,62.0,1.0,,,,,,
,,,,,,,,,,,,,,,,,,,,,0.025,,,,,,,,,,Stimuli/psy_flexible_rotation_30_objects_occ0.7_0.9s/images/train/n03928116_0/n04405907_9/img_b02_piano_vray_004_2011_gray.jpg,n03928116_0,n04405907_9,flexible,0.734707,n04405907_8,Stimuli/psy_flexible_rotation_30_objects_occ0.7_0.9s/images/train/n04070727_0/n04405907_8/img_b03_ka90ivi20r_2013__vray_stylized_tv_2004-3_gray.png,random,flexible,n03928116_0,n04405907_9,Stimuli/canonical view 2/img_n03928116_0_gray.jpg,Stimuli/canonical view 2/img_n04405907_9_gray.jpg,foreground,right,Experiments/experiment_48/252.jpg,Experiments/experiment_48/253.jpg,Experiments/experiment_48/254.jpg,Experiments/experiment_48/255.jpg,473,1,2023-06-28_14h24.05.795,Occlusion_Psychophysics,2022.1.4,Win32,240.1536984,,,right,"[""right""]",[0.5538000000008196],False,,0.0,0.0,63.0,63.0,63.0,1.0,,,,,,
,,,,,,,,,,,,,,,,,,,,,0.05,,,,,,,,,,Stimuli/psy_flexible_rotation_30_objects_occ0.7_0.9s/images/train/n04405907_5/n04405907_9/img_samsung_40_uhd_smart_tv_2011_vray_004_2002_gray.jpg,n04405907_5,n04405907_9,flexible,0.714202,n04405907_9,Stimuli/psy_flexible_rotation_30_objects_occ0.7_0.9s/images/train/n04405907_5/n04405907_9/img_samsung_40_uhd_smart_tv_2011_vray_004_2002-3_gray.png,foreground,same as foreground,n04405907_5,n02933112_-2,Stimuli/canonical view 2/img_n04405907_5_gray.jpg,Stimuli/canonical view 2/img_n02933112_-2_gray.jpg,random,right,Experiments/experiment_48/256.jpg,Experiments/experiment_48/257.jpg,Experiments/experiment_48/258.jpg,Experiments/experiment_48/259.jpg,473,1,2023-06-28_14h24.05.795,Occlusion_Psychophysics,2022.1.4,Win32,240.1536984,,,left,"[""left""]",[0.4674999999999727],False,,0.0,0.0,64.0,64.0,64.0,1.0,,,,,,
,,,,,,,,,,,,,,,,,,,,,0.025,,,,,,,,,,Stimuli/psy_fixed_rotation_30_objects_occ0.7_0.9s/images/train/n04256520_5/n02933112_-2/img_meridiani_belmondo_bench_sofa_sink_base_white_wood_2009_gray.jpg,n04256520_5,n02933112_-2,fixed,0.804095,n02933112_-2,Stimuli/psy_fixed_rotation_30_objects_occ0.7_0.9s/images/train/n04256520_5/n02933112_-2/img_meridiani_belmondo_bench_sofa_sink_base_white_wood_2009-3_gray.png,foreground,same as foreground,n04256520_5,n02818832_0,Stimuli/canonical view 2/img_n04256520_5_gray.jpg,Stimuli/canonical view 2/img_n02818832_0_gray.jpg,random,right,Experiments/experiment_48/260.jpg,Experiments/experiment_48/261.jpg,Experiments/experiment_48/262.jpg,Experiments/experiment_48/263.jpg,473,1,2023-06-28_14h24.05.795,Occlusion_Psychophysics,2022.1.4,Win32,240.1536984,,,right,"[""right""]",[0.7134000000003198],False,,0.0,0.0,65.0,65.0,65.0,1.0,,,,,,
,,,,,,,,,,,,,,,,,,,,,0.05,,,,,,,,,,Stimuli/psy_fixed_rotation_30_objects_occ0.7_0.9s/images/train/n02828884_4/n03928116_0/img_b05_c-5_classic_series_bench-2012_b02_piano_2004_gray.jpg,n02828884_4,n03928116_0,fixed,0.757453,n03928116_0,Stimuli/psy_fixed_rotation_30_objects_occ0.7_0.9s/images/train/n02828884_4/n03928116_0/img_b05_c-5_classic_series_bench-2012_b02_piano_2004-3_gray.png,foreground,same as foreground,n02828884_4,n03928116_0,Stimuli/canonical view 2/img_n02828884_4_gray.jpg,Stimuli/canonical view 2/img_n03928116_0_gray.jpg,foreground,left,Experiments/experiment_48/264.jpg,Experiments/experiment_48/265.jpg,Experiments/experiment_48/266.jpg,Experiments/experiment_48/267.jpg,473,1,2023-06-28_14h24.05.795,Occlusion_Psychophysics,2022.1.4,Win32,240.1536984,,,right,"[""right""]",[1.1557000000011612],False,,0.0,0.0,66.0,66.0,66.0,1.0,,,,,,
,,,,,,,,,,,,,,,,,,,,,0.05,,,,,,,,,,Stimuli/psy_fixed_rotation_30_objects_occ0.7_0.9s/images/train/n02828884_3/n02818832_9/img_b04_wood_metal_park_bench_bed01_blue_2004_gray.jpg,n02828884_3,n02818832_9,fixed,0.739018,n02883344_-1,Stimuli/psy_flexible_rotation_30_objects_occ0.7_0.9s/images/train/n02883344_15/n02883344_-1/img_microwave_box_woven_box_2012-3_gray.png,random,flexible,n02828884_3,n02818832_9,Stimuli/canonical view 2/img_n02828884_3_gray.jpg,Stimuli/canonical view 2/img_n02818832_9_gray.jpg,foreground,right,Experiments/experiment_48/268.jpg,Experiments/experiment_48/269.jpg,Experiments/experiment_48/270.jpg,Experiments/experiment_48/271.jpg,473,1,2023-06-28_14h24.05.795,Occlusion_Psychophysics,2022.1.4,Win32,240.1536984,,,left,"[""left""]",[0.6620999999996684],False,,0.0,0.0,67.0,67.0,67.0,1.0,,,,,,
,,,,,,,,,,,,,,,,,,,,,0.025,,,,,,,,,,Stimuli/psy_flexible_rotation_30_objects_occ0.7_0.9s/images/train/n02828884_3/n03928116_0/img_b04_wood_metal_park_bench_b02_piano_2003_gray.jpg,n02828884_3,n03928116_0,flexible,0.784636,n03928116_0,Stimuli/psy_flexible_rotation_30_objects_occ0.7_0.9s/images/train/n02828884_3/n03928116_0/img_b04_wood_metal_park_bench_b02_piano_2003-3_gray.png,foreground,same as foreground,n02828884_3,n03928116_0,Stimuli/canonical view 2/img_n02828884_3_gray.jpg,Stimuli/canonical view 2/img_n03928116_0_gray.jpg,foreground,left,Experiments/experiment_48/272.jpg,Experiments/experiment_48/273.jpg,Experiments/experiment_48/274.jpg,Experiments/experiment_48/275.jpg,473,1,2023-06-28_14h24.05.795,Occlusion_Psychophysics,2022.1.4,Win32,240.1536984,,,left,"[""left""]",[0.6385999999996557],False,,0.0,0.0,68.0,68.0,68.0,1.0,,,,,,
,,,,,,,,,,,,,,,,,,,,,0.025,,,,,,,,,,Stimuli/psy_fixed_rotation_30_objects_occ0.7_0.9s/images/train/n02883344_0/n03928116_4/img_b03_box_dp_33_b_2013__vray_2009_gray.jpg,n02883344_0,n03928116_4,fixed,0.75295,n03928116_4,Stimuli/psy_fixed_rotation_30_objects_occ0.7_0.9s/images/train/n02883344_0/n03928116_4/img_b03_box_dp_33_b_2013__vray_2009-3_gray.png,foreground,same as foreground,n02883344_0,n03928116_4,Stimuli/canonical view 2/img_n02883344_0_gray.jpg,Stimuli/canonical view 2/img_n03928116_4_gray.jpg,foreground,left,Experiments/experiment_48/276.jpg,Experiments/experiment_48/277.jpg,Experiments/experiment_48/278.jpg,Experiments/experiment_48/279.jpg,473,1,2023-06-28_14h24.05.795,Occlusion_Psychophysics,2022.1.4,Win32,240.1536984,,,left,"[""left""]",[0.5465999999996711],False,,0.0,0.0,69.0,69.0,69.0,1.0,,,,,,
,,,,,,,,,,,,,,,,,,,,,0.05,,,,,,,,,,Stimuli/psy_flexible_rotation_30_objects_occ0.7_0.9s/images/train/n02883344_-1/n02828884_3/img_woven_box_b04_wood_metal_park_bench_2012_gray.jpg,n02883344_-1,n02828884_3,flexible,0.749172,n02828884_3,Stimuli/psy_flexible_rotation_30_objects_occ0.7_0.9s/images/train/n02883344_-1/n02828884_3/img_woven_box_b04_wood_metal_park_bench_2012-3_gray.png,foreground,same as foreground,n02883344_-1,n02828884_3,Stimuli/canonical view 2/img_n02883344_-1_gray.jpg,Stimuli/canonical view 2/img_n02828884_3_gray.jpg,foreground,right,Experiments/experiment_48/280.jpg,Experiments/experiment_48/281.jpg,Experiments/experiment_48/282.jpg,Experiments/experiment_48/283.jpg,473,1,2023-06-28_14h24.05.795,Occlusion_Psychophysics,2022.1.4,Win32,240.1536984,,,left,"[""left""]",[0.8569000000003371],False,,0.0,0.0,70.0,70.0,70.0,1.0,,,,,,
,,,,,,,,,,,,,,,,,,,,,0.05,,,,,,,,,,Stimuli/psy_fixed_rotation_30_objects_occ0.7_0.9s/images/train/n04379243_0/n02933112_-18/img_17th_c._monastery_dining_table_2010_cgaxis_models_48_26_vray_composite_2009_gray.jpg,n04379243_0,n02933112_-18,fixed,0.70483,n02933112_-18,Stimuli/psy_fixed_rotation_30_objects_occ0.7_0.9s/images/train/n04379243_0/n02933112_-18/img_17th_c._monastery_dining_table_2010_cgaxis_models_48_26_vray_composite_2009-3_gray.png,foreground,same as foreground,n04379243_0,n02933112_-18,Stimuli/canonical view 2/img_n04379243_0_gray.jpg,Stimuli/canonical view 2/img_n02933112_-18_gray.jpg,foreground,left,Experiments/experiment_48/284.jpg,Experiments/experiment_48/285.jpg,Experiments/experiment_48/286.jpg,Experiments/experiment_48/287.jpg,473,1,2023-06-28_14h24.05.795,Occlusion_Psychophysics,2022.1.4,Win32,240.1536984,,,right,"[""right""]",[0.471800000000826],False,,0.0,0.0,71.0,71.0,71.0,1.0,,,,,,
,,,,,,,,,,,,,,,,,,,,,0.025,,,,,,,,,,Stimuli/psy_fixed_rotation_30_objects_occ0.7_0.9s/images/train/n04379243_-7/n02883344_15/img_quatre_dining_table_microwave_box_2005_gray.jpg,n04379243_-7,n02883344_15,fixed,0.711294,n02883344_15,Stimuli/psy_fixed_rotation_30_objects_occ0.7_0.9s/images/train/n04379243_-7/n02883344_15/img_quatre_dining_table_microwave_box_2005-3_gray.png,foreground,same as foreground,n04379243_-7,n04405907_5,Stimuli/canonical view 2/img_n04379243_-7_gray.jpg,Stimuli/canonical view 2/img_n04405907_5_gray.jpg,random,right,Experiments/experiment_48/288.jpg,Experiments/experiment_48/289.jpg,Experiments/experiment_48/290.jpg,Experiments/experiment_48/291.jpg,473,1,2023-06-28_14h24.05.795,Occlusion_Psychophysics,2022.1.4,Win32,240.1536984,,,left,"[""left""]",[0.735400000000368],False,,0.0,0.0,72.0,72.0,72.0,1.0,,,,,,
,,,,,,,,,,,,,,,,,,,,,0.05,,,,,,,,,,Stimuli/psy_fixed_rotation_30_objects_occ0.7_0.9s/images/train/n04405907_9/n04256520_5/img_vray_004_meridiani_belmondo_bench_sofa_2014_gray.jpg,n04405907_9,n04256520_5,fixed,0.706188,n04256520_5,Stimuli/psy_fixed_rotation_30_objects_occ0.7_0.9s/images/train/n04405907_9/n04256520_5/img_vray_004_meridiani_belmondo_bench_sofa_2014-3_gray.png,foreground,same as foreground,n04405907_9,n04256520_5,Stimuli/canonical view 2/img_n04405907_9_gray.jpg,Stimuli/canonical view 2/img_n04256520_5_gray.jpg,foreground,right,Experiments/experiment_48/292.jpg,Experiments/experiment_48/293.jpg,Experiments/experiment_48/294.jpg,Experiments/experiment_48/295.jpg,473,1,2023-06-28_14h24.05.795,Occlusion_Psychophysics,2022.1.4,Win32,240.1536984,,,right,"[""right""]",[0.6681000000015729],False,,0.0,0.0,73.0,73.0,73.0,1.0,,,,,,
,,,,,,,,,,,,,,,,,,,,,0.025,,,,,,,,,,Stimuli/psy_flexible_rotation_30_objects_occ0.7_0.9s/images/train/n02818832_3/n04379243_0/img_b05_ccm_contemporary_bed_max2013_17th_c._monastery_dining_table_2010_2006_gray.jpg,n02818832_3,n04379243_0,flexible,0.771753,n04405907_9,Stimuli/psy_fixed_rotation_30_objects_occ0.7_0.9s/images/train/n04256520_5/n04405907_9/img_meridiani_belmondo_bench_sofa_vray_004_2004-3_gray.png,random,fixed,n02818832_3,n04379243_0,Stimuli/canonical view 2/img_n02818832_3_gray.jpg,Stimuli/canonical view 2/img_n04379243_0_gray.jpg,foreground,right,Experiments/experiment_48/296.jpg,Experiments/experiment_48/297.jpg,Experiments/experiment_48/298.jpg,Experiments/experiment_48/299.jpg,473,1,2023-06-28_14h24.05.795,Occlusion_Psychophysics,2022.1.4,Win32,240.1536984,,,right,"[""left""]",[0.95150000000001],False,,0.0,0.0,74.0,74.0,74.0,1.0,,,,,,
,,,,,,,,,,,,,,,,,,,,,0.025,,,,,,,,,,Stimuli/psy_flexible_rotation_30_objects_occ0.7_0.9s/images/train/n04379243_0/n02933112_-18/img_17th_c._monastery_dining_table_2010_cgaxis_models_48_26_vray_composite_2014_gray.jpg,n04379243_0,n02933112_-18,flexible,0.713278,n04256520_4,Stimuli/psy_fixed_rotation_30_objects_occ0.7_0.9s/images/train/n04379243_-7/n04256520_4/img_quatre_dining_table_club_house_italia_nautilus_sofa_2014-3_gray.png,random,fixed,n04379243_0,n02933112_-18,Stimuli/canonical view 2/img_n04379243_0_gray.jpg,Stimuli/canonical view 2/img_n02933112_-18_gray.jpg,foreground,right,Experiments/experiment_48/300.jpg,Experiments/experiment_48/301.jpg,Experiments/experiment_48/302.jpg,Experiments/experiment_48/303.jpg,473,1,2023-06-28_14h24.05.795,Occlusion_Psychophysics,2022.1.4,Win32,240.1536984,,,left,"[""left""]",[1.2595999999996366],False,,0.0,0.0,75.0,75.0,75.0,1.0,,,,,,
,,,,,,,,,,,,,,,,,,,,,0.05,,,,,,,,,,Stimuli/psy_flexible_rotation_30_objects_occ0.7_0.9s/images/train/n03001627_8/n02883344_15/img_chair_billiani_doll_microwave_box_2013_gray.jpg,n03001627_8,n02883344_15,flexible,0.790341,n02883344_15,Stimuli/psy_flexible_rotation_30_objects_occ0.7_0.9s/images/train/n03001627_8/n02883344_15/img_chair_billiani_doll_microwave_box_2013-3_gray.png,foreground,same as foreground,n03001627_8,n02883344_15,Stimuli/canonical view 2/img_n03001627_8_gray.jpg,Stimuli/canonical view 2/img_n02883344_15_gray.jpg,foreground,left,Experiments/experiment_48/304.jpg,Experiments/experiment_48/305.jpg,Experiments/experiment_48/306.jpg,Experiments/experiment_48/307.jpg,473,1,2023-06-28_14h24.05.795,Occlusion_Psychophysics,2022.1.4,Win32,240.1536984,,,right,"[""right""]",[0.8441000000013901],False,,0.0,0.0,76.0,76.0,76.0,1.0,,,,,,
,,,,,,,,,,,,,,,,,,,,,0.05,,,,,,,,,,Stimuli/psy_fixed_rotation_30_objects_occ0.7_0.9s/images/train/n02933112_-2/n02818832_9/img_sink_base_white_wood_bed01_blue_2007_gray.jpg,n02933112_-2,n02818832_9,fixed,0.749705,n03928116_0,Stimuli/psy_flexible_rotation_30_objects_occ0.7_0.9s/images/train/n04256520_5/n03928116_0/img_meridiani_belmondo_bench_sofa_b02_piano_2008-3_gray.png,random,flexible,n02933112_-2,n02828884_4,Stimuli/canonical view 2/img_n02933112_-2_gray.jpg,Stimuli/canonical view 2/img_n02828884_4_gray.jpg,random,left,Experiments/experiment_48/308.jpg,Experiments/experiment_48/309.jpg,Experiments/experiment_48/310.jpg,Experiments/experiment_48/311.jpg,473,1,2023-06-28_14h24.05.795,Occlusion_Psychophysics,2022.1.4,Win32,240.1536984,,,left,"[""left""]",[0.5592000000011694],False,,0.0,0.0,77.0,77.0,77.0,1.0,,,,,,
,,,,,,,,,,,,,,,,,,,,,0.025,,,,,,,,,,Stimuli/psy_fixed_rotation_30_objects_occ0.7_0.9s/images/train/n03001627_-2/n04256520_9/img_wood_chair_napoleon_iii_sofa_2013_gray.jpg,n03001627_-2,n04256520_9,fixed,0.777649,n03928116_4,Stimuli/psy_flexible_rotation_30_objects_occ0.7_0.9s/images/train/n04405907_9/n03928116_4/img_vray_004_dp_33_b_2013__vray_2003-3_gray.png,random,flexible,n03001627_-2,n04256520_9,Stimuli/canonical view 2/img_n03001627_-2_gray.jpg,Stimuli/canonical view 2/img_n04256520_9_gray.jpg,foreground,left,Experiments/experiment_48/312.jpg,Experiments/experiment_48/313.jpg,Experiments/experiment_48/314.jpg,Experiments/experiment_48/315.jpg,473,1,2023-06-28_14h24.05.795,Occlusion_Psychophysics,2022.1.4,Win32,240.1536984,,,left,"[""right""]",[0.8005000000000564],False,,0.0,0.0,78.0,78.0,78.0,1.0,,,,,,
,,,,,,,,,,,,,,,,,,,,,0.025,,,,,,,,,,Stimuli/psy_flexible_rotation_30_objects_occ0.7_0.9s/images/train/n03928116_10/n03928116_0/img_ydp_103_r_2012__vray_b02_piano_2015_gray.jpg,n03928116_10,n03928116_0,flexible,0.737332,n03928116_0,Stimuli/psy_flexible_rotation_30_objects_occ0.7_0.9s/images/train/n03928116_10/n03928116_0/img_ydp_103_r_2012__vray_b02_piano_2015-3_gray.png,foreground,same as foreground,n03928116_10,n02828884_9,Stimuli/canonical view 2/img_n03928116_10_gray.jpg,Stimuli/canonical view 2/img_n02828884_9_gray.jpg,random,right,Experiments/experiment_48/316.jpg,Experiments/experiment_48/317.jpg,Experiments/experiment_48/318.jpg,Experiments/experiment_48/319.jpg,473,1,2023-06-28_14h24.05.795,Occlusion_Psychophysics,2022.1.4,Win32,240.1536984,,,right,"[""right""]",[1.03449999999998],False,,0.0,0.0,79.0,79.0,79.0,1.0,,,,,,
,,,,,,,,,,,,,,,,,,,,,0.05,,,,,,,,,,Stimuli/psy_fixed_rotation_30_objects_occ0.7_0.9s/images/train/n02818832_9/n04256520_9/img_bed01_blue_napoleon_iii_sofa_2007_gray.jpg,n02818832_9,n04256520_9,fixed,0.769165,n02883344_-1,Stimuli/psy_flexible_rotation_30_objects_occ0.7_0.9s/images/train/n04070727_3/n02883344_-1/img_b05_db_apps_tech_06_02_2_composite_woven_box_2003-3_gray.png,random,flexible,n02818832_9,n02828884_4,Stimuli/canonical view 2/img_n02818832_9_gray.jpg,Stimuli/canonical view 2/img_n02828884_4_gray.jpg,random,left,Experiments/experiment_48/320.jpg,Experiments/experiment_48/321.jpg,Experiments/experiment_48/322.jpg,Experiments/experiment_48/323.jpg,473,1,2023-06-28_14h24.05.795,Occlusion_Psychophysics,2022.1.4,Win32,240.1536984,,,left,"[""left""]",[0.9818000000007032],False,,0.0,0.0,80.0,80.0,80.0,1.0,,,,,,
,,,,,,,,,,,,,,,,,,,,,0.025,,,,,,,,,,Stimuli/psy_flexible_rotation_30_objects_occ0.7_0.9s/images/train/n02883344_-1/n02883344_0/img_woven_box_b03_box_2002_gray.jpg,n02883344_-1,n02883344_0,flexible,0.731897,n02818832_0,Stimuli/psy_fixed_rotation_30_objects_occ0.7_0.9s/images/train/n03001627_8/n02818832_0/img_chair_billiani_doll_b03_the_sofa_and_chair_company_-_stanley_bed_2014_2008-3_gray.png,random,fixed,n02883344_-1,n02828884_9,Stimuli/canonical view 2/img_n02883344_-1_gray.jpg,Stimuli/canonical view 2/img_n02828884_9_gray.jpg,random,left,Experiments/experiment_48/324.jpg,Experiments/experiment_48/325.jpg,Experiments/experiment_48/326.jpg,Experiments/experiment_48/327.jpg,473,1,2023-06-28_14h24.05.795,Occlusion_Psychophysics,2022.1.4,Win32,240.1536984,,,right,"[""right""]",[0.7374000000003207],False,,0.0,0.0,81.0,81.0,81.0,1.0,,,,,,
,,,,,,,,,,,,,,,,,,,,,0.025,,,,,,,,,,Stimuli/psy_fixed_rotation_30_objects_occ0.7_0.9s/images/train/n02828884_4/n02828884_3/img_b05_c-5_classic_series_bench-2012_b04_wood_metal_park_bench_2006_gray.jpg,n02828884_4,n02828884_3,fixed,0.887907,n02828884_3,Stimuli/psy_fixed_rotation_30_objects_occ0.7_0.9s/images/train/n02828884_4/n02828884_3/img_b05_c-5_classic_series_bench-2012_b04_wood_metal_park_bench_2006-3_gray.png,foreground,same as foreground,n02828884_4,n04405907_5,Stimuli/canonical view 2/img_n02828884_4_gray.jpg,Stimuli/canonical view 2/img_n04405907_5_gray.jpg,random,right,Experiments/experiment_48/328.jpg,Experiments/experiment_48/329.jpg,Experiments/experiment_48/330.jpg,Experiments/experiment_48/331.jpg,473,1,2023-06-28_14h24.05.795,Occlusion_Psychophysics,2022.1.4,Win32,240.1536984,,,left,"[""left""]",[0.8289999999999509],False,,0.0,0.0,82.0,82.0,82.0,1.0,,,,,,
,,,,,,,,,,,,,,,,,,,,,0.025,,,,,,,,,,Stimuli/psy_flexible_rotation_30_objects_occ0.7_0.9s/images/train/n03928116_0/n04405907_9/img_b02_piano_vray_004_2008_gray.jpg,n03928116_0,n04405907_9,flexible,0.719678,n04405907_9,Stimuli/psy_flexible_rotation_30_objects_occ0.7_0.9s/images/train/n03928116_0/n04405907_9/img_b02_piano_vray_004_2008-3_gray.png,foreground,same as foreground,n03928116_0,n04379243_0,Stimuli/canonical view 2/img_n03928116_0_gray.jpg,Stimuli/canonical view 2/img_n04379243_0_gray.jpg,random,left,Experiments/experiment_48/332.jpg,Experiments/experiment_48/333.jpg,Experiments/experiment_48/334.jpg,Experiments/experiment_48/335.jpg,473,1,2023-06-28_14h24.05.795,Occlusion_Psychophysics,2022.1.4,Win32,240.1536984,,,left,"[""left""]",[0.5552000000011503],False,,0.0,0.0,83.0,83.0,83.0,1.0,,,,,,
,,,,,,,,,,,,,,,,,,,,,0.05,,,,,,,,,,Stimuli/psy_fixed_rotation_30_objects_occ0.7_0.9s/images/train/n03928116_10/n02933112_4/img_ydp_103_r_2012__vray_buffet_2015_gray.jpg,n03928116_10,n02933112_4,fixed,0.868383,n02933112_4,Stimuli/psy_fixed_rotation_30_objects_occ0.7_0.9s/images/train/n03928116_10/n02933112_4/img_ydp_103_r_2012__vray_buffet_2015-3_gray.png,foreground,same as foreground,n03928116_10,n04405907_5,Stimuli/canonical view 2/img_n03928116_10_gray.jpg,Stimuli/canonical view 2/img_n04405907_5_gray.jpg,random,right,Experiments/experiment_48/336.jpg,Experiments/experiment_48/337.jpg,Experiments/experiment_48/338.jpg,Experiments/experiment_48/339.jpg,473,1,2023-06-28_14h24.05.795,Occlusion_Psychophysics,2022.1.4,Win32,240.1536984,,,right,"[""left""]",[1.0343999999984135],False,,0.0,0.0,84.0,84.0,84.0,1.0,,,,,,
,,,,,,,,,,,,,,,,,,,,,0.05,,,,,,,,,,Stimuli/psy_flexible_rotation_30_objects_occ0.7_0.9s/images/train/n04256520_5/n02828884_3/img_meridiani_belmondo_bench_sofa_b04_wood_metal_park_bench_2009_gray.jpg,n04256520_5,n02828884_3,flexible,0.726894,n02818832_3,Stimuli/psy_flexible_rotation_30_objects_occ0.7_0.9s/images/train/n02818832_0/n02818832_3/img_b03_the_sofa_and_chair_company_-_stanley_bed_2014_b05_ccm_contemporary_bed_max2013_2006-3_gray.png,random,flexible,n04256520_5,n03928116_4,Stimuli/canonical view 2/img_n04256520_5_gray.jpg,Stimuli/canonical view 2/img_n03928116_4_gray.jpg,random,left,Experiments/experiment_48/340.jpg,Experiments/experiment_48/341.jpg,Experiments/experiment_48/342.jpg,Experiments/experiment_48/343.jpg,473,1,2023-06-28_14h24.05.795,Occlusion_Psychophysics,2022.1.4,Win32,240.1536984,,,left,"[""left""]",[1.8828000000007705],False,,0.0,0.0,85.0,85.0,85.0,1.0,,,,,,
,,,,,,,,,,,,,,,,,,,,,0.05,,,,,,,,,,Stimuli/psy_flexible_rotation_30_objects_occ0.7_0.9s/images/train/n04256520_5/n02933112_-2/img_meridiani_belmondo_bench_sofa_sink_base_white_wood_2002_gray.jpg,n04256520_5,n02933112_-2,flexible,0.747814,n03001627_8,Stimuli/psy_flexible_rotation_30_objects_occ0.7_0.9s/images/train/n02818832_0/n03001627_8/img_b03_the_sofa_and_chair_company_-_stanley_bed_2014_chair_billiani_doll_2000-3_gray.png,random,flexible,n04256520_5,n04405907_9,Stimuli/canonical view 2/img_n04256520_5_gray.jpg,Stimuli/canonical view 2/img_n04405907_9_gray.jpg,random,right,Experiments/experiment_48/344.jpg,Experiments/experiment_48/345.jpg,Experiments/experiment_48/346.jpg,Experiments/experiment_48/347.jpg,473,1,2023-06-28_14h24.05.795,Occlusion_Psychophysics,2022.1.4,Win32,240.1536984,,,right,"[""right""]",[2.0399000000004435],False,,0.0,0.0,86.0,86.0,86.0,1.0,,,,,,
,,,,,,,,,,,,,,,,,,,,,0.025,,,,,,,,,,Stimuli/psy_fixed_rotation_30_objects_occ0.7_0.9s/images/train/n04405907_5/n02828884_4/img_samsung_40_uhd_smart_tv_2011_b05_c-5_classic_series_bench-2012_2009_gray.jpg,n04405907_5,n02828884_4,fixed,0.76009,n02828884_4,Stimuli/psy_fixed_rotation_30_objects_occ0.7_0.9s/images/train/n04405907_5/n02828884_4/img_samsung_40_uhd_smart_tv_2011_b05_c-5_classic_series_bench-2012_2009-3_gray.png,foreground,same as foreground,n04405907_5,n02828884_4,Stimuli/canonical view 2/img_n04405907_5_gray.jpg,Stimuli/canonical view 2/img_n02828884_4_gray.jpg,foreground,right,Experiments/experiment_48/348.jpg,Experiments/experiment_48/349.jpg,Experiments/experiment_48/350.jpg,Experiments/experiment_48/351.jpg,473,1,2023-06-28_14h24.05.795,Occlusion_Psychophysics,2022.1.4,Win32,240.1536984,,,right,"[""right""]",[1.1929000000003498],False,,0.0,0.0,87.0,87.0,87.0,1.0,,,,,,
,,,,,,,,,,,,,,,,,,,,,0.05,,,,,,,,,,Stimuli/psy_flexible_rotation_30_objects_occ0.7_0.9s/images/train/n04379243_-7/n04256520_9/img_quatre_dining_table_napoleon_iii_sofa_2008_gray.jpg,n04379243_-7,n04256520_9,flexible,0.735449,n04256520_9,Stimuli/psy_flexible_rotation_30_objects_occ0.7_0.9s/images/train/n04379243_-7/n04256520_9/img_quatre_dining_table_napoleon_iii_sofa_2008-3_gray.png,foreground,same as foreground,n04379243_-7,n04256520_4,Stimuli/canonical view 2/img_n04379243_-7_gray.jpg,Stimuli/canonical view 2/img_n04256520_4_gray.jpg,random,right,Experiments/experiment_48/352.jpg,Experiments/experiment_48/353.jpg,Experiments/experiment_48/354.jpg,Experiments/experiment_48/355.jpg,473,1,2023-06-28_14h24.05.795,Occlusion_Psychophysics,2022.1.4,Win32,240.1536984,,,right,"[""right""]",[1.035099999999602],True,right,1.0,0.0,88.0,88.0,88.0,1.0,1.86,,,,,
,,,,,,,,,,,,,,,,,,,,,0.025,,,,,,,,,,Stimuli/psy_flexible_rotation_30_objects_occ0.7_0.9s/images/train/n02883344_15/n04256520_4/img_microwave_box_club_house_italia_nautilus_sofa_2005_gray.jpg,n02883344_15,n04256520_4,flexible,0.890738,n04256520_4,Stimuli/psy_flexible_rotation_30_objects_occ0.7_0.9s/images/train/n02883344_15/n04256520_4/img_microwave_box_club_house_italia_nautilus_sofa_2005-3_gray.png,foreground,same as foreground,n02883344_15,n04256520_4,Stimuli/canonical view 2/img_n02883344_15_gray.jpg,Stimuli/canonical view 2/img_n04256520_4_gray.jpg,foreground,left,Experiments/experiment_48/356.jpg,Experiments/experiment_48/357.jpg,Experiments/experiment_48/358.jpg,Experiments/experiment_48/359.jpg,473,1,2023-06-28_14h24.05.795,Occlusion_Psychophysics,2022.1.4,Win32,240.1536984,,,right,"[""right""]",[2.473599999999692],False,,0.0,0.0,89.0,89.0,89.0,1.0,,,,,,
,,,,,,,,,,,,,,,,,,,,,0.05,,,,,,,,,,Stimuli/psy_fixed_rotation_30_objects_occ0.7_0.9s/images/train/n04379243_0/n03928116_10/img_17th_c._monastery_dining_table_2010_ydp_103_r_2012__vray_2015_gray.jpg,n04379243_0,n03928116_10,fixed,0.799615,n04256520_4,Stimuli/psy_fixed_rotation_30_objects_occ0.7_0.9s/images/train/n04256520_9/n04256520_4/img_napoleon_iii_sofa_club_house_italia_nautilus_sofa_2005-3_gray.png,random,fixed,n04379243_0,n02933112_4,Stimuli/canonical view 2/img_n04379243_0_gray.jpg,Stimuli/canonical view 2/img_n02933112_4_gray.jpg,random,left,Experiments/experiment_48/360.jpg,Experiments/experiment_48/361.jpg,Experiments/experiment_48/362.jpg,Experiments/experiment_48/363.jpg,473,1,2023-06-28_14h24.05.795,Occlusion_Psychophysics,2022.1.4,Win32,240.1536984,,,right,"[""right""]",[0.7014000000002625],False,,0.0,0.0,90.0,90.0,90.0,1.0,,,,,,
,,,,,,,,,,,,,,,,,,,,,0.025,,,,,,,,,,Stimuli/psy_flexible_rotation_30_objects_occ0.7_0.9s/images/train/n02818832_9/n02818832_3/img_bed01_blue_b05_ccm_contemporary_bed_max2013_2013_gray.jpg,n02818832_9,n02818832_3,flexible,0.728664,n02818832_3,Stimuli/psy_flexible_rotation_30_objects_occ0.7_0.9s/images/train/n02818832_9/n02818832_3/img_bed01_blue_b05_ccm_contemporary_bed_max2013_2013-3_gray.png,foreground,same as foreground,n02818832_9,n02818832_3,Stimuli/canonical view 2/img_n02818832_9_gray.jpg,Stimuli/canonical view 2/img_n02818832_3_gray.jpg,foreground,right,Experiments/experiment_48/364.jpg,Experiments/experiment_48/365.jpg,Experiments/experiment_48/366.jpg,Experiments/experiment_48/367.jpg,473,1,2023-06-28_14h24.05.795,Occlusion_Psychophysics,2022.1.4,Win32,240.1536984,,,right,"[""right""]",[1.365700000001084],False,,0.0,0.0,91.0,91.0,91.0,1.0,,,,,,
,,,,,,,,,,,,,,,,,,,,,0.025,,,,,,,,,,Stimuli/psy_flexible_rotation_30_objects_occ0.7_0.9s/images/train/n04405907_8/n04379243_0/img_stylized_tv_17th_c._monastery_dining_table_2010_2010_gray.jpg,n04405907_8,n04379243_0,flexible,0.80192,n02818832_9,Stimuli/psy_fixed_rotation_30_objects_occ0.7_0.9s/images/train/n04405907_8/n02818832_9/img_stylized_tv_bed01_blue_2012-3_gray.png,random,fixed,n04405907_8,n02828884_3,Stimuli/canonical view 2/img_n04405907_8_gray.jpg,Stimuli/canonical view 2/img_n02828884_3_gray.jpg,random,right,Experiments/experiment_48/368.jpg,Experiments/experiment_48/369.jpg,Experiments/experiment_48/370.jpg,Experiments/experiment_48/371.jpg,473,1,2023-06-28_14h24.05.795,Occlusion_Psychophysics,2022.1.4,Win32,240.1536984,,,right,"[""right""]",[0.9486999999992349],False,,0.0,0.0,92.0,92.0,92.0,1.0,,,,,,
,,,,,,,,,,,,,,,,,,,,,0.05,,,,,,,,,,Stimuli/psy_fixed_rotation_30_objects_occ0.7_0.9s/images/train/n03928116_4/n02818832_0/img_dp_33_b_2013__vray_b03_the_sofa_and_chair_company_-_stanley_bed_2014_2000_gray.jpg,n03928116_4,n02818832_0,fixed,0.709961,n02818832_0,Stimuli/psy_fixed_rotation_30_objects_occ0.7_0.9s/images/train/n03928116_4/n02818832_0/img_dp_33_b_2013__vray_b03_the_sofa_and_chair_company_-_stanley_bed_2014_2000-3_gray.png,foreground,same as foreground,n03928116_4,n02818832_0,Stimuli/canonical view 2/img_n03928116_4_gray.jpg,Stimuli/canonical view 2/img_n02818832_0_gray.jpg,foreground,left,Experiments/experiment_48/372.jpg,Experiments/experiment_48/373.jpg,Experiments/experiment_48/374.jpg,Experiments/experiment_48/375.jpg,473,1,2023-06-28_14h24.05.795,Occlusion_Psychophysics,2022.1.4,Win32,240.1536984,,,left,"[""left""]",[0.588700000001154],False,,0.0,0.0,93.0,93.0,93.0,1.0,,,,,,
,,,,,,,,,,,,,,,,,,,,,0.025,,,,,,,,,,Stimuli/psy_flexible_rotation_30_objects_occ0.7_0.9s/images/train/n03928116_0/n03001627_9/img_b02_piano_chair_eames_plastic_armchair_2008_gray.jpg,n03928116_0,n03001627_9,flexible,0.755855,n03928116_10,Stimuli/psy_flexible_rotation_30_objects_occ0.7_0.9s/images/train/n02883344_0/n03928116_10/img_b03_box_ydp_103_r_2012__vray_2010-3_gray.png,random,flexible,n03928116_0,n02933112_-18,Stimuli/canonical view 2/img_n03928116_0_gray.jpg,Stimuli/canonical view 2/img_n02933112_-18_gray.jpg,random,right,Experiments/experiment_48/376.jpg,Experiments/experiment_48/377.jpg,Experiments/experiment_48/378.jpg,Experiments/experiment_48/379.jpg,473,1,2023-06-28_14h24.05.795,Occlusion_Psychophysics,2022.1.4,Win32,240.1536984,,,left,"[""left""]",[0.5096000000014556],False,,0.0,0.0,94.0,94.0,94.0,1.0,,,,,,
,,,,,,,,,,,,,,,,,,,,,0.05,,,,,,,,,,Stimuli/psy_flexible_rotation_30_objects_occ0.7_0.9s/images/train/n04379243_-7/n02818832_0/img_quatre_dining_table_b03_the_sofa_and_chair_company_-_stanley_bed_2014_2000_gray.jpg,n04379243_-7,n02818832_0,flexible,0.717885,n04379243_8,Stimuli/psy_flexible_rotation_30_objects_occ0.7_0.9s/images/train/n02818832_9/n04379243_8/img_bed01_blue_glass_table_2011-3_gray.png,random,flexible,n04379243_-7,n02818832_0,Stimuli/canonical view 2/img_n04379243_-7_gray.jpg,Stimuli/canonical view 2/img_n02818832_0_gray.jpg,foreground,left,Experiments/experiment_48/380.jpg,Experiments/experiment_48/381.jpg,Experiments/experiment_48/382.jpg,Experiments/experiment_48/383.jpg,473,1,2023-06-28_14h24.05.795,Occlusion_Psychophysics,2022.1.4,Win32,240.1536984,,,right,"[""right""]",[0.5594000000003234],False,,0.0,0.0,95.0,95.0,95.0,1.0,,,,,,
,,,,,,,,,,,,,,,,,,,,,0.025,,,,,,,,,,Stimuli/psy_fixed_rotation_30_objects_occ0.7_0.9s/images/train/n02818832_9/n04256520_5/img_bed01_blue_meridiani_belmondo_bench_sofa_2014_gray.jpg,n02818832_9,n04256520_5,fixed,0.720541,n02883344_-1,Stimuli/psy_fixed_rotation_30_objects_occ0.7_0.9s/images/train/n03001627_9/n02883344_-1/img_chair_eames_plastic_armchair_woven_box_2007-3_gray.png,random,fixed,n02818832_9,n02883344_-1,Stimuli/canonical view 2/img_n02818832_9_gray.jpg,Stimuli/canonical view 2/img_n02883344_-1_gray.jpg,random,left,Experiments/experiment_48/384.jpg,Experiments/experiment_48/385.jpg,Experiments/experiment_48/386.jpg,Experiments/experiment_48/387.jpg,473,1,2023-06-28_14h24.05.795,Occlusion_Psychophysics,2022.1.4,Win32,240.1536984,,,right,"[""right""]",[1.9204999999999472],True,right,1.0,0.0,96.0,96.0,96.0,1.0,1.2375,,,,,
,,,,,,,,,,,,,,,,,,,,,0.05,,,,,,,,,,Stimuli/psy_flexible_rotation_30_objects_occ0.7_0.9s/images/train/n02933112_4/n02883344_0/img_buffet_b03_box_2010_gray.jpg,n02933112_4,n02883344_0,flexible,0.708605,n04379243_8,Stimuli/psy_flexible_rotation_30_objects_occ0.7_0.9s/images/train/n04379243_8/n04379243_8/img_glass_table_glass_table_2004-3_gray.png,random,flexible,n02933112_4,n02828884_3,Stimuli/canonical view 2/img_n02933112_4_gray.jpg,Stimuli/canonical view 2/img_n02828884_3_gray.jpg,random,left,Experiments/experiment_48/388.jpg,Experiments/experiment_48/389.jpg,Experiments/experiment_48/390.jpg,Experiments/experiment_48/391.jpg,473,1,2023-06-28_14h24.05.795,Occlusion_Psychophysics,2022.1.4,Win32,240.1536984,,,left,"[""left""]",[0.5375000000000227],False,,0.0,0.0,97.0,97.0,97.0,1.0,,,,,,
,,,,,,,,,,,,,,,,,,,,,0.025,,,,,,,,,,Stimuli/psy_fixed_rotation_30_objects_occ0.7_0.9s/images/train/n02933112_4/n02933112_-2/img_buffet_sink_base_white_wood_2008_gray.jpg,n02933112_4,n02933112_-2,fixed,0.797115,n04256520_4,Stimuli/psy_fixed_rotation_30_objects_occ0.7_0.9s/images/train/n03928116_10/n04256520_4/img_ydp_103_r_2012__vray_club_house_italia_nautilus_sofa_2001-3_gray.png,random,fixed,n02933112_4,n04379243_-7,Stimuli/canonical view 2/img_n02933112_4_gray.jpg,Stimuli/canonical view 2/img_n04379243_-7_gray.jpg,random,right,Experiments/experiment_48/392.jpg,Experiments/experiment_48/393.jpg,Experiments/experiment_48/394.jpg,Experiments/experiment_48/395.jpg,473,1,2023-06-28_14h24.05.795,Occlusion_Psychophysics,2022.1.4,Win32,240.1536984,,,right,"[""left""]",[1.1662999999988415],False,,0.0,0.0,98.0,98.0,98.0,1.0,,,,,,
,,,,,,,,,,,,,,,,,,,,,0.05,,,,,,,,,,Stimuli/psy_flexible_rotation_30_objects_occ0.7_0.9s/images/train/n02828884_3/n04405907_5/img_b04_wood_metal_park_bench_samsung_40_uhd_smart_tv_2011_2007_gray.jpg,n02828884_3,n04405907_5,flexible,0.723388,n04405907_5,Stimuli/psy_flexible_rotation_30_objects_occ0.7_0.9s/images/train/n02828884_3/n04405907_5/img_b04_wood_metal_park_bench_samsung_40_uhd_smart_tv_2011_2007-3_gray.png,foreground,same as foreground,n02828884_3,n02933112_-2,Stimuli/canonical view 2/img_n02828884_3_gray.jpg,Stimuli/canonical view 2/img_n02933112_-2_gray.jpg,random,left,Experiments/experiment_48/396.jpg,Experiments/experiment_48/397.jpg,Experiments/experiment_48/398.jpg,Experiments/experiment_48/399.jpg,473,1,2023-06-28_14h24.05.795,Occlusion_Psychophysics,2022.1.4,Win32,240.1536984,,,right,"[""right""]",[1.3603000000007341],False,,0.0,0.0,99.0,99.0,99.0,1.0,,,,,,
,,,,,,,,,,,,,,,,,,,,,,,,,,,,,,,,,,,,,,,,,,,,,,,,,,473,1,2023-06-28_14h24.05.795,Occlusion_Psychophysics,2022.1.4,Win32,240.1536984,,,,,,,,,,,,,,,0.0,0.0,0.0,0.0,1.0
,,,,,,,,,,,,,,,,,,,,,0.05,,,,,,,,,,Stimuli/psy_fixed_rotation_30_objects_occ0.7_0.9s/images/train/n04379243_-7/n02933112_4/img_quatre_dining_table_buffet_2000_gray.jpg,n04379243_-7,n02933112_4,fixed,0.887546,n04256520_5,Stimuli/psy_fixed_rotation_30_objects_occ0.7_0.9s/images/train/n03928116_0/n04256520_5/img_b02_piano_meridiani_belmondo_bench_sofa_2008-3_gray.png,random,fixed,n04379243_-7,n02933112_4,Stimuli/canonical view 2/img_n04379243_-7_gray.jpg,Stimuli/canonical view 2/img_n02933112_4_gray.jpg,foreground,left,Experiments/experiment_48/400.jpg,Experiments/experiment_48/401.jpg,Experiments/experiment_48/402.jpg,Experiments/experiment_48/403.jpg,473,1,2023-06-28_14h24.05.795,Occlusion_Psychophysics,2022.1.4,Win32,240.1536984,,,left,"[""left""]",[0.7819000000004053],False,,0.0,0.0,0.0,0.0,0.0,1.0,,,,,,
,,,,,,,,,,,,,,,,,,,,,0.025,,,,,,,,,,Stimuli/psy_fixed_rotation_30_objects_occ0.7_0.9s/images/train/n02933112_-18/n02818832_3/img_cgaxis_models_48_26_vray_composite_b05_ccm_contemporary_bed_max2013_2008_gray.jpg,n02933112_-18,n02818832_3,fixed,0.80206,n02818832_3,Stimuli/psy_fixed_rotation_30_objects_occ0.7_0.9s/images/train/n02933112_-18/n02818832_3/img_cgaxis_models_48_26_vray_composite_b05_ccm_contemporary_bed_max2013_2008-3_gray.png,foreground,same as foreground,n02933112_-18,n02818832_9,Stimuli/canonical view 2/img_n02933112_-18_gray.jpg,Stimuli/canonical view 2/img_n02818832_9_gray.jpg,random,left,Experiments/experiment_48/404.jpg,Experiments/experiment_48/405.jpg,Experiments/experiment_48/406.jpg,Experiments/experiment_48/407.jpg,473,1,2023-06-28_14h24.05.795,Occlusion_Psychophysics,2022.1.4,Win32,240.1536984,,,left,"[""left""]",[0.7203000000007478],False,,0.0,0.0,1.0,1.0,1.0,1.0,,,,,,
,,,,,,,,,,,,,,,,,,,,,0.025,,,,,,,,,,Stimuli/psy_fixed_rotation_30_objects_occ0.7_0.9s/images/train/n04379243_-7/n04405907_9/img_quatre_dining_table_vray_004_2012_gray.jpg,n04379243_-7,n04405907_9,fixed,0.801959,n04405907_9,Stimuli/psy_fixed_rotation_30_objects_occ0.7_0.9s/images/train/n04379243_-7/n04405907_9/img_quatre_dining_table_vray_004_2012-3_gray.png,foreground,same as foreground,n04379243_-7,n04405907_8,Stimuli/canonical view 2/img_n04379243_-7_gray.jpg,Stimuli/canonical view 2/img_n04405907_8_gray.jpg,random,left,Experiments/experiment_48/408.jpg,Experiments/experiment_48/409.jpg,Experiments/experiment_48/410.jpg,Experiments/experiment_48/411.jpg,473,1,2023-06-28_14h24.05.795,Occlusion_Psychophysics,2022.1.4,Win32,240.1536984,,,left,"[""left""]",[0.7580000000000382],False,,0.0,0.0,2.0,2.0,2.0,1.0,,,,,,
,,,,,,,,,,,,,,,,,,,,,0.05,,,,,,,,,,Stimuli/psy_flexible_rotation_30_objects_occ0.7_0.9s/images/train/n04379243_0/n03001627_8/img_17th_c._monastery_dining_table_2010_chair_billiani_doll_2012_gray.jpg,n04379243_0,n03001627_8,flexible,0.725258,n04256520_9,Stimuli/psy_fixed_rotation_30_objects_occ0.7_0.9s/images/train/n04379243_-7/n04256520_9/img_quatre_dining_table_napoleon_iii_sofa_2012-3_gray.png,random,fixed,n04379243_0,n03001627_8,Stimuli/canonical view 2/img_n04379243_0_gray.jpg,Stimuli/canonical view 2/img_n03001627_8_gray.jpg,foreground,left,Experiments/experiment_48/412.jpg,Experiments/experiment_48/413.jpg,Experiments/experiment_48/414.jpg,Experiments/experiment_48/415.jpg,473,1,2023-06-28_14h24.05.795,Occlusion_Psychophysics,2022.1.4,Win32,240.1536984,,,left,"[""left""]",[0.5225000000000364],False,,0.0,0.0,3.0,3.0,3.0,1.0,,,,,,
,,,,,,,,,,,,,,,,,,,,,0.025,,,,,,,,,,Stimuli/psy_fixed_rotation_30_objects_occ0.7_0.9s/images/train/n03928116_0/n04405907_5/img_b02_piano_samsung_40_uhd_smart_tv_2011_2012_gray.jpg,n03928116_0,n04405907_5,fixed,0.787275,n04405907_5,Stimuli/psy_fixed_rotation_30_objects_occ0.7_0.9s/images/train/n03928116_0/n04405907_5/img_b02_piano_samsung_40_uhd_smart_tv_2011_2012-3_gray.png,foreground,same as foreground,n03928116_0,n02828884_9,Stimuli/canonical view 2/img_n03928116_0_gray.jpg,Stimuli/canonical view 2/img_n02828884_9_gray.jpg,random,left,Experiments/experiment_48/416.jpg,Experiments/experiment_48/417.jpg,Experiments/experiment_48/418.jpg,Experiments/experiment_48/419.jpg,473,1,2023-06-28_14h24.05.795,Occlusion_Psychophysics,2022.1.4,Win32,240.1536984,,,left,"[""right""]",[0.6827999999989061],True,left,1.0,0.0,4.0,4.0,4.0,1.0,1.2084,,,,,
,,,,,,,,,,,,,,,,,,,,,0.05,,,,,,,,,,Stimuli/psy_flexible_rotation_30_objects_occ0.7_0.9s/images/train/n02883344_-1/n04405907_9/img_woven_box_vray_004_2008_gray.jpg,n02883344_-1,n04405907_9,flexible,0.848626,n04405907_9,Stimuli/psy_flexible_rotation_30_objects_occ0.7_0.9s/images/train/n02883344_-1/n04405907_9/img_woven_box_vray_004_2008-3_gray.png,foreground,same as foreground,n02883344_-1,n04405907_9,Stimuli/canonical view 2/img_n02883344_-1_gray.jpg,Stimuli/canonical view 2/img_n04405907_9_gray.jpg,foreground,left,Experiments/experiment_48/420.jpg,Experiments/experiment_48/421.jpg,Experiments/experiment_48/422.jpg,Experiments/experiment_48/423.jpg,473,1,2023-06-28_14h24.05.795,Occlusion_Psychophysics,2022.1.4,Win32,240.1536984,,,left,"[""left""]",[0.5160999999995965],False,,0.0,0.0,5.0,5.0,5.0,1.0,,,,,,
,,,,,,,,,,,,,,,,,,,,,0.05,,,,,,,,,,Stimuli/psy_flexible_rotation_30_objects_occ0.7_0.9s/images/train/n02883344_15/n04256520_4/img_microwave_box_club_house_italia_nautilus_sofa_2013_gray.jpg,n02883344_15,n04256520_4,flexible,0.898407,n04256520_4,Stimuli/psy_flexible_rotation_30_objects_occ0.7_0.9s/images/train/n02883344_15/n04256520_4/img_microwave_box_club_house_italia_nautilus_sofa_2013-3_gray.png,foreground,same as foreground,n02883344_15,n02933112_4,Stimuli/canonical view 2/img_n02883344_15_gray.jpg,Stimuli/canonical view 2/img_n02933112_4_gray.jpg,random,right,Experiments/experiment_48/424.jpg,Experiments/experiment_48/425.jpg,Experiments/experiment_48/426.jpg,Experiments/experiment_48/427.jpg,473,1,2023-06-28_14h24.05.795,Occlusion_Psychophysics,2022.1.4,Win32,240.1536984,,,right,"[""right""]",[0.8014000000003989],False,,0.0,0.0,6.0,6.0,6.0,1.0,,,,,,
,,,,,,,,,,,,,,,,,,,,,0.05,,,,,,,,,,Stimuli/psy_fixed_rotation_30_objects_occ0.7_0.9s/images/train/n02818832_0/n02933112_-18/img_b03_the_sofa_and_chair_company_-_stanley_bed_2014_cgaxis_models_48_26_vray_composite_2010_gray.jpg,n02818832_0,n02933112_-18,fixed,0.711431,n02883344_-1,Stimuli/psy_flexible_rotation_30_objects_occ0.7_0.9s/images/train/n04070727_0/n02883344_-1/img_b03_ka90ivi20r_2013__vray_woven_box_2010-3_gray.png,random,flexible,n02818832_0,n02933112_-18,Stimuli/canonical view 2/img_n02818832_0_gray.jpg,Stimuli/canonical view 2/img_n02933112_-18_gray.jpg,foreground,right,Experiments/experiment_48/428.jpg,Experiments/experiment_48/429.jpg,Experiments/experiment_48/430.jpg,Experiments/experiment_48/431.jpg,473,1,2023-06-28_14h24.05.795,Occlusion_Psychophysics,2022.1.4,Win32,240.1536984,,,right,"[""left""]",[1.3487000000011449],False,,0.0,0.0,7.0,7.0,7.0,1.0,,,,,,
,,,,,,,,,,,,,,,,,,,,,0.025,,,,,,,,,,Stimuli/psy_flexible_rotation_30_objects_occ0.7_0.9s/images/train/n04379243_8/n02933112_-18/img_glass_table_cgaxis_models_48_26_vray_composite_2005_gray.jpg,n04379243_8,n02933112_-18,flexible,0.701344,n04405907_8,Stimuli/psy_flexible_rotation_30_objects_occ0.7_0.9s/images/train/n04256520_5/n04405907_8/img_meridiani_belmondo_bench_sofa_stylized_tv_2011-3_gray.png,random,flexible,n04379243_8,n04256520_9,Stimuli/canonical view 2/img_n04379243_8_gray.jpg,Stimuli/canonical view 2/img_n04256520_9_gray.jpg,random,right,Experiments/experiment_48/432.jpg,Experiments/experiment_48/433.jpg,Experiments/experiment_48/434.jpg,Experiments/experiment_48/435.jpg,473,1,2023-06-28_14h24.05.795,Occlusion_Psychophysics,2022.1.4,Win32,240.1536984,,,left,"[""left""]",[0.5729999999999791],False,,0.0,0.0,8.0,8.0,8.0,1.0,,,,,,
,,,,,,,,,,,,,,,,,,,,,0.025,,,,,,,,,,Stimuli/psy_fixed_rotation_30_objects_occ0.7_0.9s/images/train/n04405907_5/n04256520_4/img_samsung_40_uhd_smart_tv_2011_club_house_italia_nautilus_sofa_2000_gray.jpg,n04405907_5,n04256520_4,fixed,0.859203,n04256520_4,Stimuli/psy_fixed_rotation_30_objects_occ0.7_0.9s/images/train/n04405907_5/n04256520_4/img_samsung_40_uhd_smart_tv_2011_club_house_italia_nautilus_sofa_2000-3_gray.png,foreground,same as foreground,n04405907_5,n04256520_4,Stimuli/canonical view 2/img_n04405907_5_gray.jpg,Stimuli/canonical view 2/img_n04256520_4_gray.jpg,foreground,left,Experiments/experiment_48/436.jpg,Experiments/experiment_48/437.jpg,Experiments/experiment_48/438.jpg,Experiments/experiment_48/439.jpg,473,1,2023-06-28_14h24.05.795,Occlusion_Psychophysics,2022.1.4,Win32,240.1536984,,,right,"[""right""]",[0.9205999999995811],False,,0.0,0.0,9.0,9.0,9.0,1.0,,,,,,
,,,,,,,,,,,,,,,,,,,,,0.025,,,,,,,,,,Stimuli/psy_flexible_rotation_30_objects_occ0.7_0.9s/images/train/n03001627_9/n04256520_9/img_chair_eames_plastic_armchair_napoleon_iii_sofa_2008_gray.jpg,n03001627_9,n04256520_9,flexible,0.761672,n04256520_9,Stimuli/psy_flexible_rotation_30_objects_occ0.7_0.9s/images/train/n03001627_9/n04256520_9/img_chair_eames_plastic_armchair_napoleon_iii_sofa_2008-3_gray.png,foreground,same as foreground,n03001627_9,n04256520_9,Stimuli/canonical view 2/img_n03001627_9_gray.jpg,Stimuli/canonical view 2/img_n04256520_9_gray.jpg,foreground,left,Experiments/experiment_48/440.jpg,Experiments/experiment_48/441.jpg,Experiments/experiment_48/442.jpg,Experiments/experiment_48/443.jpg,473,1,2023-06-28_14h24.05.795,Occlusion_Psychophysics,2022.1.4,Win32,240.1536984,,,right,"[""right""]",[1.1001999999992904],True,left,1.0,0.0,10.0,10.0,10.0,1.0,0.956,,,,,
,,,,,,,,,,,,,,,,,,,,,0.025,,,,,,,,,,Stimuli/psy_fixed_rotation_30_objects_occ0.7_0.9s/images/train/n02933112_-18/n04405907_8/img_cgaxis_models_48_26_vray_composite_stylized_tv_2012_gray.jpg,n02933112_-18,n04405907_8,fixed,0.749781,n02933112_-2,Stimuli/psy_flexible_rotation_30_objects_occ0.7_0.9s/images/train/n02828884_3/n02933112_-2/img_b04_wood_metal_park_bench_sink_base_white_wood_2003-3_gray.png,random,flexible,n02933112_-18,n04405907_8,Stimuli/canonical view 2/img_n02933112_-18_gray.jpg,Stimuli/canonical view 2/img_n04405907_8_gray.jpg,foreground,left,Experiments/experiment_48/444.jpg,Experiments/experiment_48/445.jpg,Experiments/experiment_48/446.jpg,Experiments/experiment_48/447.jpg,473,1,2023-06-28_14h24.05.795,Occlusion_Psychophysics,2022.1.4,Win32,240.1536984,,,left,"[""right""]",[1.0739000000003216],False,,0.0,0.0,11.0,11.0,11.0,1.0,,,,,,
,,,,,,,,,,,,,,,,,,,,,0.025,,,,,,,,,,Stimuli/psy_fixed_rotation_30_objects_occ0.7_0.9s/images/train/n04379243_-7/n04379243_0/img_quatre_dining_table_17th_c._monastery_dining_table_2010_2013_gray.jpg,n04379243_-7,n04379243_0,fixed,0.705675,n04379243_0,Stimuli/psy_fixed_rotation_30_objects_occ0.7_0.9s/images/train/n04379243_-7/n04379243_0/img_quatre_dining_table_17th_c._monastery_dining_table_2010_2013-3_gray.png,foreground,same as foreground,n04379243_-7,n04379243_0,Stimuli/canonical view 2/img_n04379243_-7_gray.jpg,Stimuli/canonical view 2/img_n04379243_0_gray.jpg,foreground,right,Experiments/experiment_48/448.jpg,Experiments/experiment_48/449.jpg,Experiments/experiment_48/450.jpg,Experiments/experiment_48/451.jpg,473,1,2023-06-28_14h24.05.795,Occlusion_Psychophysics,2022.1.4,Win32,240.1536984,,,right,"[""right""]",[0.8179000000003498],False,,0.0,0.0,12.0,12.0,12.0,1.0,,,,,,
,,,,,,,,,,,,,,,,,,,,,0.025,,,,,,,,,,Stimuli/psy_fixed_rotation_30_objects_occ0.7_0.9s/images/train/n02828884_3/n04379243_-7/img_b04_wood_metal_park_bench_quatre_dining_table_2002_gray.jpg,n02828884_3,n04379243_-7,fixed,0.828788,n03928116_0,Stimuli/psy_flexible_rotation_30_objects_occ0.7_0.9s/images/train/n02883344_15/n03928116_0/img_microwave_box_b02_piano_2010-3_gray.png,random,flexible,n02828884_3,n04405907_8,Stimuli/canonical view 2/img_n02828884_3_gray.jpg,Stimuli/canonical view 2/img_n04405907_8_gray.jpg,random,left,Experiments/experiment_48/452.jpg,Experiments/experiment_48/453.jpg,Experiments/experiment_48/454.jpg,Experiments/experiment_48/455.jpg,473,1,2023-06-28_14h24.05.795,Occlusion_Psychophysics,2022.1.4,Win32,240.1536984,,,left,"[""left""]",[0.9829000000004271],False,,0.0,0.0,13.0,13.0,13.0,1.0,,,,,,
