in_color,Instructions_key.keys,Instructions_key.rt,Tutorial_instruction_key.keys,Tutorial_instruction_key.rt,Tutorial_fixation_ley.keys,Tutorial_fixation_ley.rt,Tutorial_single_img_key.keys,Tutorial_single_img_key.rt,Tutorial_intra_trial_fixation_key.keys,Tutorial_intra_trial_fixation_key.rt,Tutorial_stimulus_key.keys,Tutorial_stimulus_key.rt,Tutorial_response_key.keys,Tutorial_response_key.rt,Tutorial_attention_check_key.keys,Tutorial_attention_check_key.rt,advance_or_repeat.keys,advance_or_repeat.rt,Practice_instructions_key.keys,Practice_instructions_key.rt,intra_trial_duration,Practice_key_response.keys,Practice_key_response.rt,Practice_react_key.keys,Practice_react_key.rt,Practice_loop.thisRepN,Practice_loop.thisTrialN,Practice_loop.thisN,Practice_loop.thisIndex,Practice_loop.ran,multi_object_filepath,background_id,foreground_id,multi_object_rotation,occlusion_level,single_object_id,single_object_filepath,single_is_foreground_or_random,single_object_rotation,background_choice_id,alt_choice_id,background_option_filepath,alternative_option_filepath,alternative_is_foreground_or_random,location_of_correct_answer,multi_object_exp_filename,single_object_exp_filename,background_option_exp_filename,alternative_option_exp_filename,participant,session,date,expName,psychopyVersion,OS,frameRate,Practice_end_key.keys,Practice_end_key.rt,correct_answer,Input_selection.keys,Input_selection.rt,Was_attention_check,Attention_check.keys,Attention_check.corr,Each_session_loop.thisRepN,Each_session_loop.thisTrialN,Each_session_loop.thisN,Each_session_loop.thisIndex,Each_session_loop.ran,Attention_check.rt,Num_sessions.thisRepN,Num_sessions.thisTrialN,Num_sessions.thisN,Num_sessions.thisIndex,Num_sessions.ran
False,right,6.0735,right,2.5329,right,3.8377,right,1.1669,right,0.9607,right,2.6823,right,2.2026,right,1.1539,a,35.0728,right,4.0636,0.025,right,25.1533,r,3.5006,0.0,0.0,0.0,0.0,1.0,Stimuli/psy_fixed_rotation_30_objects_occ0.7_0.9s/images/train/n04405907_9/n02883344_15/img_vray_004_microwave_box_2004_gray.jpg,n04405907_9,n02883344_15,fixed,0.783738,n02883344_15,Stimuli/psy_fixed_rotation_30_objects_occ0.7_0.9s/images/train/n04405907_9/n02883344_15/img_vray_004_microwave_box_2004-3_gray.png,foreground,same as foreground,n04405907_9,n02883344_15,Stimuli/canonical view 2/img_n04405907_9_gray.jpg,Stimuli/canonical view 2/img_n02883344_15_gray.jpg,foreground,right,Experiments/experiment_40/1000.jpg,Experiments/experiment_40/1001.jpg,Experiments/experiment_40/1002.jpg,Experiments/experiment_40/1003.jpg,530,1,2023-04-03_18h34.14.930,Occlusion_Psychophysics,2022.1.4,Win32,60.38282712,,,,,,,,,,,,,,,,,,,
,,,,,,,,,,,,,,,,,,,,,0.05,right,3.2497,r,7.6445,0.0,1.0,1.0,1.0,1.0,Stimuli/psy_flexible_rotation_30_objects_occ0.7_0.9s/images/train/n02818832_9/n04379243_8/img_bed01_blue_glass_table_2006_gray.jpg,n02818832_9,n04379243_8,flexible,0.818195,n04379243_8,Stimuli/psy_flexible_rotation_30_objects_occ0.7_0.9s/images/train/n02818832_9/n04379243_8/img_bed01_blue_glass_table_2006-3_gray.png,foreground,same as foreground,n02818832_9,n02828884_4,Stimuli/canonical view 2/img_n02818832_9_gray.jpg,Stimuli/canonical view 2/img_n02828884_4_gray.jpg,random,left,Experiments/experiment_40/1004.jpg,Experiments/experiment_40/1005.jpg,Experiments/experiment_40/1006.jpg,Experiments/experiment_40/1007.jpg,530,1,2023-04-03_18h34.14.930,Occlusion_Psychophysics,2022.1.4,Win32,60.38282712,,,,,,,,,,,,,,,,,,,
,,,,,,,,,,,,,,,,,,,,,0.05,left,2.832,r,2.0844,0.0,2.0,2.0,2.0,1.0,Stimuli/psy_flexible_rotation_30_objects_occ0.7_0.9s/images/train/n03001627_9/n03928116_10/img_chair_eames_plastic_armchair_ydp_103_r_2012__vray_2007_gray.jpg,n03001627_9,n03928116_10,flexible,0.734276,n04379243_-7,Stimuli/psy_fixed_rotation_30_objects_occ0.7_0.9s/images/train/n02818832_3/n04379243_-7/img_b05_ccm_contemporary_bed_max2013_quatre_dining_table_2009-3_gray.png,random,fixed,n03001627_9,n03928116_10,Stimuli/canonical view 2/img_n03001627_9_gray.jpg,Stimuli/canonical view 2/img_n03928116_10_gray.jpg,foreground,left,Experiments/experiment_40/1008.jpg,Experiments/experiment_40/1009.jpg,Experiments/experiment_40/1010.jpg,Experiments/experiment_40/1011.jpg,530,1,2023-04-03_18h34.14.930,Occlusion_Psychophysics,2022.1.4,Win32,60.38282712,,,,,,,,,,,,,,,,,,,
,,,,,,,,,,,,,,,,,,,,,0.05,right,1.621,r,2.4095,0.0,3.0,3.0,3.0,1.0,Stimuli/psy_fixed_rotation_30_objects_occ0.7_0.9s/images/train/n02818832_0/n04379243_-7/img_b03_the_sofa_and_chair_company_-_stanley_bed_2014_quatre_dining_table_2011_gray.jpg,n02818832_0,n04379243_-7,fixed,0.726161,n02883344_0,Stimuli/psy_flexible_rotation_30_objects_occ0.7_0.9s/images/train/n04256520_9/n02883344_0/img_napoleon_iii_sofa_b03_box_2013-3_gray.png,random,flexible,n02818832_0,n02818832_9,Stimuli/canonical view 2/img_n02818832_0_gray.jpg,Stimuli/canonical view 2/img_n02818832_9_gray.jpg,random,right,Experiments/experiment_40/1012.jpg,Experiments/experiment_40/1013.jpg,Experiments/experiment_40/1014.jpg,Experiments/experiment_40/1015.jpg,530,1,2023-04-03_18h34.14.930,Occlusion_Psychophysics,2022.1.4,Win32,60.38282712,,,,,,,,,,,,,,,,,,,
,,,,,,,,,,,,,,,,,,,,,0.025,right,1.9697,r,2.3325,0.0,4.0,4.0,4.0,1.0,Stimuli/psy_fixed_rotation_30_objects_occ0.7_0.9s/images/train/n02828884_4/n02883344_15/img_b05_c-5_classic_series_bench-2012_microwave_box_2004_gray.jpg,n02828884_4,n02883344_15,fixed,0.728984,n02883344_15,Stimuli/psy_fixed_rotation_30_objects_occ0.7_0.9s/images/train/n02828884_4/n02883344_15/img_b05_c-5_classic_series_bench-2012_microwave_box_2004-3_gray.png,foreground,same as foreground,n02828884_4,n02883344_15,Stimuli/canonical view 2/img_n02828884_4_gray.jpg,Stimuli/canonical view 2/img_n02883344_15_gray.jpg,foreground,right,Experiments/experiment_40/1016.jpg,Experiments/experiment_40/1017.jpg,Experiments/experiment_40/1018.jpg,Experiments/experiment_40/1019.jpg,530,1,2023-04-03_18h34.14.930,Occlusion_Psychophysics,2022.1.4,Win32,60.38282712,,,,,,,,,,,,,,,,,,,
,,,,,,,,,,,,,,,,,,,,,0.025,right,2.8188,a,4.7056,0.0,5.0,5.0,5.0,1.0,Stimuli/psy_flexible_rotation_30_objects_occ0.7_0.9s/images/train/n02818832_9/n02828884_4/img_bed01_blue_b05_c-5_classic_series_bench-2012_2011_gray.jpg,n02818832_9,n02828884_4,flexible,0.804936,n02828884_4,Stimuli/psy_flexible_rotation_30_objects_occ0.7_0.9s/images/train/n02818832_9/n02828884_4/img_bed01_blue_b05_c-5_classic_series_bench-2012_2011-3_gray.png,foreground,same as foreground,n02818832_9,n02828884_4,Stimuli/canonical view 2/img_n02818832_9_gray.jpg,Stimuli/canonical view 2/img_n02828884_4_gray.jpg,foreground,left,Experiments/experiment_40/1020.jpg,Experiments/experiment_40/1021.jpg,Experiments/experiment_40/1022.jpg,Experiments/experiment_40/1023.jpg,530,1,2023-04-03_18h34.14.930,Occlusion_Psychophysics,2022.1.4,Win32,60.38282712,,,,,,,,,,,,,,,,,,,
,,,,,,,,,,,,,,,,,,,,,0.05,,,,,,,,,,Stimuli/psy_flexible_rotation_30_objects_occ0.7_0.9s/images/train/n03001627_8/n04405907_5/img_chair_billiani_doll_samsung_40_uhd_smart_tv_2011_2015_gray.jpg,n03001627_8,n04405907_5,flexible,0.863413,n04256520_9,Stimuli/psy_fixed_rotation_30_objects_occ0.7_0.9s/images/train/n03928116_4/n04256520_9/img_dp_33_b_2013__vray_napoleon_iii_sofa_2004-3_gray.png,random,fixed,n03001627_8,n04405907_5,Stimuli/canonical view 2/img_n03001627_8_gray.jpg,Stimuli/canonical view 2/img_n04405907_5_gray.jpg,foreground,left,Experiments/experiment_40/0.jpg,Experiments/experiment_40/1.jpg,Experiments/experiment_40/2.jpg,Experiments/experiment_40/3.jpg,530,1,2023-04-03_18h34.14.930,Occlusion_Psychophysics,2022.1.4,Win32,60.38282712,right,2.5307,left,"[""right""]",[1.5264999999999418],False,,0.0,0.0,0.0,0.0,0.0,1.0,,,,,,
,,,,,,,,,,,,,,,,,,,,,0.05,,,,,,,,,,Stimuli/psy_fixed_rotation_30_objects_occ0.7_0.9s/images/train/n04379243_-7/n03928116_10/img_quatre_dining_table_ydp_103_r_2012__vray_2005_gray.jpg,n04379243_-7,n03928116_10,fixed,0.784378,n03928116_10,Stimuli/psy_fixed_rotation_30_objects_occ0.7_0.9s/images/train/n04379243_-7/n03928116_10/img_quatre_dining_table_ydp_103_r_2012__vray_2005-3_gray.png,foreground,same as foreground,n04379243_-7,n03928116_10,Stimuli/canonical view 2/img_n04379243_-7_gray.jpg,Stimuli/canonical view 2/img_n03928116_10_gray.jpg,foreground,left,Experiments/experiment_40/4.jpg,Experiments/experiment_40/5.jpg,Experiments/experiment_40/6.jpg,Experiments/experiment_40/7.jpg,530,1,2023-04-03_18h34.14.930,Occlusion_Psychophysics,2022.1.4,Win32,60.38282712,,,right,"[""right""]",[1.3351999999285908],False,,0.0,0.0,1.0,1.0,1.0,1.0,,,,,,
,,,,,,,,,,,,,,,,,,,,,0.05,,,,,,,,,,Stimuli/psy_flexible_rotation_30_objects_occ0.7_0.9s/images/train/n04379243_-7/n04256520_5/img_quatre_dining_table_meridiani_belmondo_bench_sofa_2002_gray.jpg,n04379243_-7,n04256520_5,flexible,0.817171,n04256520_5,Stimuli/psy_flexible_rotation_30_objects_occ0.7_0.9s/images/train/n04379243_-7/n04256520_5/img_quatre_dining_table_meridiani_belmondo_bench_sofa_2002-3_gray.png,foreground,same as foreground,n04379243_-7,n04256520_5,Stimuli/canonical view 2/img_n04379243_-7_gray.jpg,Stimuli/canonical view 2/img_n04256520_5_gray.jpg,foreground,left,Experiments/experiment_40/8.jpg,Experiments/experiment_40/9.jpg,Experiments/experiment_40/10.jpg,Experiments/experiment_40/11.jpg,530,1,2023-04-03_18h34.14.930,Occlusion_Psychophysics,2022.1.4,Win32,60.38282712,,,right,"[""left""]",[2.171199999928376],False,,0.0,0.0,2.0,2.0,2.0,1.0,,,,,,
,,,,,,,,,,,,,,,,,,,,,0.025,,,,,,,,,,Stimuli/psy_flexible_rotation_30_objects_occ0.7_0.9s/images/train/n03001627_-2/n04379243_8/img_wood_chair_glass_table_2014_gray.jpg,n03001627_-2,n04379243_8,flexible,0.768229,n04379243_-7,Stimuli/psy_fixed_rotation_30_objects_occ0.7_0.9s/images/train/n04070727_3/n04379243_-7/img_b05_db_apps_tech_06_02_2_composite_quatre_dining_table_2008-3_gray.png,random,fixed,n03001627_-2,n04379243_8,Stimuli/canonical view 2/img_n03001627_-2_gray.jpg,Stimuli/canonical view 2/img_n04379243_8_gray.jpg,foreground,left,Experiments/experiment_40/12.jpg,Experiments/experiment_40/13.jpg,Experiments/experiment_40/14.jpg,Experiments/experiment_40/15.jpg,530,1,2023-04-03_18h34.14.930,Occlusion_Psychophysics,2022.1.4,Win32,60.38282712,,,right,"[""right""]",[1.8552999999524218],False,,0.0,0.0,3.0,3.0,3.0,1.0,,,,,,
,,,,,,,,,,,,,,,,,,,,,0.05,,,,,,,,,,Stimuli/psy_flexible_rotation_30_objects_occ0.7_0.9s/images/train/n02828884_3/n02818832_9/img_b04_wood_metal_park_bench_bed01_blue_2010_gray.jpg,n02828884_3,n02818832_9,flexible,0.754706,n04379243_8,Stimuli/psy_fixed_rotation_30_objects_occ0.7_0.9s/images/train/n04379243_0/n04379243_8/img_17th_c._monastery_dining_table_2010_glass_table_2010-3_gray.png,random,fixed,n02828884_3,n04256520_5,Stimuli/canonical view 2/img_n02828884_3_gray.jpg,Stimuli/canonical view 2/img_n04256520_5_gray.jpg,random,left,Experiments/experiment_40/16.jpg,Experiments/experiment_40/17.jpg,Experiments/experiment_40/18.jpg,Experiments/experiment_40/19.jpg,530,1,2023-04-03_18h34.14.930,Occlusion_Psychophysics,2022.1.4,Win32,60.38282712,,,left,"[""left""]",[1.8932999999522053],False,,0.0,0.0,4.0,4.0,4.0,1.0,,,,,,
,,,,,,,,,,,,,,,,,,,,,0.025,,,,,,,,,,Stimuli/psy_flexible_rotation_30_objects_occ0.7_0.9s/images/train/n02818832_3/n02883344_0/img_b05_ccm_contemporary_bed_max2013_b03_box_2010_gray.jpg,n02818832_3,n02883344_0,flexible,0.856594,n02883344_0,Stimuli/psy_flexible_rotation_30_objects_occ0.7_0.9s/images/train/n02818832_3/n02883344_0/img_b05_ccm_contemporary_bed_max2013_b03_box_2010-3_gray.png,foreground,same as foreground,n02818832_3,n02883344_0,Stimuli/canonical view 2/img_n02818832_3_gray.jpg,Stimuli/canonical view 2/img_n02883344_0_gray.jpg,foreground,right,Experiments/experiment_40/20.jpg,Experiments/experiment_40/21.jpg,Experiments/experiment_40/22.jpg,Experiments/experiment_40/23.jpg,530,1,2023-04-03_18h34.14.930,Occlusion_Psychophysics,2022.1.4,Win32,60.38282712,,,right,"[""left""]",[2.301799999952209],False,,0.0,0.0,5.0,5.0,5.0,1.0,,,,,,
,,,,,,,,,,,,,,,,,,,,,0.025,,,,,,,,,,Stimuli/psy_fixed_rotation_30_objects_occ0.7_0.9s/images/train/n02883344_-1/n03928116_4/img_woven_box_dp_33_b_2013__vray_2015_gray.jpg,n02883344_-1,n03928116_4,fixed,0.729685,n02828884_4,Stimuli/psy_flexible_rotation_30_objects_occ0.7_0.9s/images/train/n02828884_4/n02828884_4/img_b05_c-5_classic_series_bench-2012_b05_c-5_classic_series_bench-2012_2014-3_gray.png,random,flexible,n02883344_-1,n04379243_8,Stimuli/canonical view 2/img_n02883344_-1_gray.jpg,Stimuli/canonical view 2/img_n04379243_8_gray.jpg,random,right,Experiments/experiment_40/24.jpg,Experiments/experiment_40/25.jpg,Experiments/experiment_40/26.jpg,Experiments/experiment_40/27.jpg,530,1,2023-04-03_18h34.14.930,Occlusion_Psychophysics,2022.1.4,Win32,60.38282712,,,right,"[""left""]",[1.7053000000714746],False,,0.0,0.0,6.0,6.0,6.0,1.0,,,,,,
,,,,,,,,,,,,,,,,,,,,,0.025,,,,,,,,,,Stimuli/psy_fixed_rotation_30_objects_occ0.7_0.9s/images/train/n02828884_3/n03928116_0/img_b04_wood_metal_park_bench_b02_piano_2001_gray.jpg,n02828884_3,n03928116_0,fixed,0.746289,n02933112_-2,Stimuli/psy_flexible_rotation_30_objects_occ0.7_0.9s/images/train/n04379243_8/n02933112_-2/img_glass_table_sink_base_white_wood_2005-3_gray.png,random,flexible,n02828884_3,n03928116_0,Stimuli/canonical view 2/img_n02828884_3_gray.jpg,Stimuli/canonical view 2/img_n03928116_0_gray.jpg,foreground,right,Experiments/experiment_40/28.jpg,Experiments/experiment_40/29.jpg,Experiments/experiment_40/30.jpg,Experiments/experiment_40/31.jpg,530,1,2023-04-03_18h34.14.930,Occlusion_Psychophysics,2022.1.4,Win32,60.38282712,,,right,"[""right""]",[1.3044999999999618],False,,0.0,0.0,7.0,7.0,7.0,1.0,,,,,,
,,,,,,,,,,,,,,,,,,,,,0.05,,,,,,,,,,Stimuli/psy_fixed_rotation_30_objects_occ0.7_0.9s/images/train/n02818832_0/n04256520_5/img_b03_the_sofa_and_chair_company_-_stanley_bed_2014_meridiani_belmondo_bench_sofa_2013_gray.jpg,n02818832_0,n04256520_5,fixed,0.802257,n03001627_9,Stimuli/psy_fixed_rotation_30_objects_occ0.7_0.9s/images/train/n04070727_0/n03001627_9/img_b03_ka90ivi20r_2013__vray_chair_eames_plastic_armchair_2001-3_gray.png,random,fixed,n02818832_0,n04256520_9,Stimuli/canonical view 2/img_n02818832_0_gray.jpg,Stimuli/canonical view 2/img_n04256520_9_gray.jpg,random,left,Experiments/experiment_40/32.jpg,Experiments/experiment_40/33.jpg,Experiments/experiment_40/34.jpg,Experiments/experiment_40/35.jpg,530,1,2023-04-03_18h34.14.930,Occlusion_Psychophysics,2022.1.4,Win32,60.38282712,,,right,"[""left""]",[2.2875000000001364],False,,0.0,0.0,8.0,8.0,8.0,1.0,,,,,,
,,,,,,,,,,,,,,,,,,,,,0.05,,,,,,,,,,Stimuli/psy_fixed_rotation_30_objects_occ0.7_0.9s/images/train/n02933112_-2/n02818832_3/img_sink_base_white_wood_b05_ccm_contemporary_bed_max2013_2000_gray.jpg,n02933112_-2,n02818832_3,fixed,0.771726,n02818832_3,Stimuli/psy_fixed_rotation_30_objects_occ0.7_0.9s/images/train/n02933112_-2/n02818832_3/img_sink_base_white_wood_b05_ccm_contemporary_bed_max2013_2000-3_gray.png,foreground,same as foreground,n02933112_-2,n04405907_8,Stimuli/canonical view 2/img_n02933112_-2_gray.jpg,Stimuli/canonical view 2/img_n04405907_8_gray.jpg,random,right,Experiments/experiment_40/36.jpg,Experiments/experiment_40/37.jpg,Experiments/experiment_40/38.jpg,Experiments/experiment_40/39.jpg,530,1,2023-04-03_18h34.14.930,Occlusion_Psychophysics,2022.1.4,Win32,60.38282712,,,right,"[""right""]",[1.1883999999761272],False,,0.0,0.0,9.0,9.0,9.0,1.0,,,,,,
,,,,,,,,,,,,,,,,,,,,,0.025,,,,,,,,,,Stimuli/psy_fixed_rotation_30_objects_occ0.7_0.9s/images/train/n04405907_8/n04405907_5/img_stylized_tv_samsung_40_uhd_smart_tv_2011_2014_gray.jpg,n04405907_8,n04405907_5,fixed,0.741525,n04405907_5,Stimuli/psy_fixed_rotation_30_objects_occ0.7_0.9s/images/train/n04405907_8/n04405907_5/img_stylized_tv_samsung_40_uhd_smart_tv_2011_2014-3_gray.png,foreground,same as foreground,n04405907_8,n04405907_5,Stimuli/canonical view 2/img_n04405907_8_gray.jpg,Stimuli/canonical view 2/img_n04405907_5_gray.jpg,foreground,left,Experiments/experiment_40/40.jpg,Experiments/experiment_40/41.jpg,Experiments/experiment_40/42.jpg,Experiments/experiment_40/43.jpg,530,1,2023-04-03_18h34.14.930,Occlusion_Psychophysics,2022.1.4,Win32,60.38282712,,,left,"[""right""]",[1.00360000002388],False,,0.0,0.0,10.0,10.0,10.0,1.0,,,,,,
,,,,,,,,,,,,,,,,,,,,,0.05,,,,,,,,,,Stimuli/psy_flexible_rotation_30_objects_occ0.7_0.9s/images/train/n02933112_-2/n02883344_-1/img_sink_base_white_wood_woven_box_2005_gray.jpg,n02933112_-2,n02883344_-1,flexible,0.792109,n02883344_-1,Stimuli/psy_flexible_rotation_30_objects_occ0.7_0.9s/images/train/n02933112_-2/n02883344_-1/img_sink_base_white_wood_woven_box_2005-3_gray.png,foreground,same as foreground,n02933112_-2,n02883344_-1,Stimuli/canonical view 2/img_n02933112_-2_gray.jpg,Stimuli/canonical view 2/img_n02883344_-1_gray.jpg,foreground,left,Experiments/experiment_40/44.jpg,Experiments/experiment_40/45.jpg,Experiments/experiment_40/46.jpg,Experiments/experiment_40/47.jpg,530,1,2023-04-03_18h34.14.930,Occlusion_Psychophysics,2022.1.4,Win32,60.38282712,,,left,"[""left""]",[1.0705000000000382],False,,0.0,0.0,11.0,11.0,11.0,1.0,,,,,,
,,,,,,,,,,,,,,,,,,,,,0.05,,,,,,,,,,Stimuli/psy_flexible_rotation_30_objects_occ0.7_0.9s/images/train/n04256520_9/n02883344_15/img_napoleon_iii_sofa_microwave_box_2015_gray.jpg,n04256520_9,n02883344_15,flexible,0.843256,n04379243_-7,Stimuli/psy_fixed_rotation_30_objects_occ0.7_0.9s/images/train/n03928116_4/n04379243_-7/img_dp_33_b_2013__vray_quatre_dining_table_2011-3_gray.png,random,fixed,n04256520_9,n02883344_15,Stimuli/canonical view 2/img_n04256520_9_gray.jpg,Stimuli/canonical view 2/img_n02883344_15_gray.jpg,foreground,right,Experiments/experiment_40/48.jpg,Experiments/experiment_40/49.jpg,Experiments/experiment_40/50.jpg,Experiments/experiment_40/51.jpg,530,1,2023-04-03_18h34.14.930,Occlusion_Psychophysics,2022.1.4,Win32,60.38282712,,,right,"[""right""]",[0.8577999999524764],True,left,1.0,0.0,12.0,12.0,12.0,1.0,1.2182,,,,,
,,,,,,,,,,,,,,,,,,,,,0.05,,,,,,,,,,Stimuli/psy_fixed_rotation_30_objects_occ0.7_0.9s/images/train/n04405907_9/n02883344_0/img_vray_004_b03_box_2003_gray.jpg,n04405907_9,n02883344_0,fixed,0.845041,n02883344_0,Stimuli/psy_fixed_rotation_30_objects_occ0.7_0.9s/images/train/n04405907_9/n02883344_0/img_vray_004_b03_box_2003-3_gray.png,foreground,same as foreground,n04405907_9,n04256520_4,Stimuli/canonical view 2/img_n04405907_9_gray.jpg,Stimuli/canonical view 2/img_n04256520_4_gray.jpg,random,right,Experiments/experiment_40/52.jpg,Experiments/experiment_40/53.jpg,Experiments/experiment_40/54.jpg,Experiments/experiment_40/55.jpg,530,1,2023-04-03_18h34.14.930,Occlusion_Psychophysics,2022.1.4,Win32,60.38282712,,,left,"[""left""]",[1.8724999999999454],False,,0.0,0.0,13.0,13.0,13.0,1.0,,,,,,
,,,,,,,,,,,,,,,,,,,,,0.05,,,,,,,,,,Stimuli/psy_fixed_rotation_30_objects_occ0.7_0.9s/images/train/n02818832_3/n04405907_9/img_b05_ccm_contemporary_bed_max2013_vray_004_2010_gray.jpg,n02818832_3,n04405907_9,fixed,0.861647,n02818832_3,Stimuli/psy_fixed_rotation_30_objects_occ0.7_0.9s/images/train/n04379243_8/n02818832_3/img_glass_table_b05_ccm_contemporary_bed_max2013_2009-3_gray.png,random,fixed,n02818832_3,n02828884_3,Stimuli/canonical view 2/img_n02818832_3_gray.jpg,Stimuli/canonical view 2/img_n02828884_3_gray.jpg,random,right,Experiments/experiment_40/56.jpg,Experiments/experiment_40/57.jpg,Experiments/experiment_40/58.jpg,Experiments/experiment_40/59.jpg,530,1,2023-04-03_18h34.14.930,Occlusion_Psychophysics,2022.1.4,Win32,60.38282712,,,left,"[""right""]",[1.6537000000475928],False,,0.0,0.0,14.0,14.0,14.0,1.0,,,,,,
,,,,,,,,,,,,,,,,,,,,,0.025,,,,,,,,,,Stimuli/psy_fixed_rotation_30_objects_occ0.7_0.9s/images/train/n02883344_-1/n04379243_-7/img_woven_box_quatre_dining_table_2013_gray.jpg,n02883344_-1,n04379243_-7,fixed,0.765971,n04379243_-7,Stimuli/psy_fixed_rotation_30_objects_occ0.7_0.9s/images/train/n02883344_-1/n04379243_-7/img_woven_box_quatre_dining_table_2013-3_gray.png,foreground,same as foreground,n02883344_-1,n04379243_-7,Stimuli/canonical view 2/img_n02883344_-1_gray.jpg,Stimuli/canonical view 2/img_n04379243_-7_gray.jpg,foreground,left,Experiments/experiment_40/60.jpg,Experiments/experiment_40/61.jpg,Experiments/experiment_40/62.jpg,Experiments/experiment_40/63.jpg,530,1,2023-04-03_18h34.14.930,Occlusion_Psychophysics,2022.1.4,Win32,60.38282712,,,right,"[""left""]",[1.0852999999522126],False,,0.0,0.0,15.0,15.0,15.0,1.0,,,,,,
,,,,,,,,,,,,,,,,,,,,,0.025,,,,,,,,,,Stimuli/psy_fixed_rotation_30_objects_occ0.7_0.9s/images/train/n03001627_8/n02818832_0/img_chair_billiani_doll_b03_the_sofa_and_chair_company_-_stanley_bed_2014_2012_gray.jpg,n03001627_8,n02818832_0,fixed,0.749659,n02818832_0,Stimuli/psy_fixed_rotation_30_objects_occ0.7_0.9s/images/train/n03001627_8/n02818832_0/img_chair_billiani_doll_b03_the_sofa_and_chair_company_-_stanley_bed_2014_2012-3_gray.png,foreground,same as foreground,n03001627_8,n02818832_0,Stimuli/canonical view 2/img_n03001627_8_gray.jpg,Stimuli/canonical view 2/img_n02818832_0_gray.jpg,foreground,left,Experiments/experiment_40/64.jpg,Experiments/experiment_40/65.jpg,Experiments/experiment_40/66.jpg,Experiments/experiment_40/67.jpg,530,1,2023-04-03_18h34.14.930,Occlusion_Psychophysics,2022.1.4,Win32,60.38282712,,,right,,,False,,0.0,0.0,16.0,16.0,16.0,1.0,,,,,,
,,,,,,,,,,,,,,,,,,,,,0.05,,,,,,,,,,Stimuli/psy_flexible_rotation_30_objects_occ0.7_0.9s/images/train/n02883344_0/n02883344_15/img_b03_box_microwave_box_2008_gray.jpg,n02883344_0,n02883344_15,flexible,0.756183,n02883344_15,Stimuli/psy_flexible_rotation_30_objects_occ0.7_0.9s/images/train/n02883344_0/n02883344_15/img_b03_box_microwave_box_2008-3_gray.png,foreground,same as foreground,n02883344_0,n04379243_-7,Stimuli/canonical view 2/img_n02883344_0_gray.jpg,Stimuli/canonical view 2/img_n04379243_-7_gray.jpg,random,right,Experiments/experiment_40/68.jpg,Experiments/experiment_40/69.jpg,Experiments/experiment_40/70.jpg,Experiments/experiment_40/71.jpg,530,1,2023-04-03_18h34.14.930,Occlusion_Psychophysics,2022.1.4,Win32,60.38282712,,,left,"[""left""]",[2.8116999999283507],False,,0.0,0.0,17.0,17.0,17.0,1.0,,,,,,
,,,,,,,,,,,,,,,,,,,,,0.05,,,,,,,,,,Stimuli/psy_flexible_rotation_30_objects_occ0.7_0.9s/images/train/n04379243_8/n03928116_4/img_glass_table_dp_33_b_2013__vray_2007_gray.jpg,n04379243_8,n03928116_4,flexible,0.733067,n02828884_4,Stimuli/psy_fixed_rotation_30_objects_occ0.7_0.9s/images/train/n02828884_4/n02828884_4/img_b05_c-5_classic_series_bench-2012_b05_c-5_classic_series_bench-2012_2007-3_gray.png,random,fixed,n04379243_8,n03928116_4,Stimuli/canonical view 2/img_n04379243_8_gray.jpg,Stimuli/canonical view 2/img_n03928116_4_gray.jpg,foreground,left,Experiments/experiment_40/72.jpg,Experiments/experiment_40/73.jpg,Experiments/experiment_40/74.jpg,Experiments/experiment_40/75.jpg,530,1,2023-04-03_18h34.14.930,Occlusion_Psychophysics,2022.1.4,Win32,60.38282712,,,left,"[""left""]",[2.204799999952229],False,,0.0,0.0,18.0,18.0,18.0,1.0,,,,,,
,,,,,,,,,,,,,,,,,,,,,0.025,,,,,,,,,,Stimuli/psy_fixed_rotation_30_objects_occ0.7_0.9s/images/train/n02883344_0/n02828884_9/img_b03_box_cr-96_bench_2012_gray.jpg,n02883344_0,n02828884_9,fixed,0.727189,n02828884_9,Stimuli/psy_fixed_rotation_30_objects_occ0.7_0.9s/images/train/n02883344_0/n02828884_9/img_b03_box_cr-96_bench_2012-3_gray.png,foreground,same as foreground,n02883344_0,n02828884_9,Stimuli/canonical view 2/img_n02883344_0_gray.jpg,Stimuli/canonical view 2/img_n02828884_9_gray.jpg,foreground,right,Experiments/experiment_40/76.jpg,Experiments/experiment_40/77.jpg,Experiments/experiment_40/78.jpg,Experiments/experiment_40/79.jpg,530,1,2023-04-03_18h34.14.930,Occlusion_Psychophysics,2022.1.4,Win32,60.38282712,,,right,"[""right""]",[1.0276999999284726],False,,0.0,0.0,19.0,19.0,19.0,1.0,,,,,,
,,,,,,,,,,,,,,,,,,,,,0.05,,,,,,,,,,Stimuli/psy_fixed_rotation_30_objects_occ0.7_0.9s/images/train/n02828884_3/n02883344_15/img_b04_wood_metal_park_bench_microwave_box_2011_gray.jpg,n02828884_3,n02883344_15,fixed,0.89798,n04379243_-7,Stimuli/psy_fixed_rotation_30_objects_occ0.7_0.9s/images/train/n02818832_9/n04379243_-7/img_bed01_blue_quatre_dining_table_2001-3_gray.png,random,fixed,n02828884_3,n02883344_15,Stimuli/canonical view 2/img_n02828884_3_gray.jpg,Stimuli/canonical view 2/img_n02883344_15_gray.jpg,foreground,right,Experiments/experiment_40/80.jpg,Experiments/experiment_40/81.jpg,Experiments/experiment_40/82.jpg,Experiments/experiment_40/83.jpg,530,1,2023-04-03_18h34.14.930,Occlusion_Psychophysics,2022.1.4,Win32,60.38282712,,,left,"[""right""]",[0.8588999999760745],False,,0.0,0.0,20.0,20.0,20.0,1.0,,,,,,
,,,,,,,,,,,,,,,,,,,,,0.05,,,,,,,,,,Stimuli/psy_fixed_rotation_30_objects_occ0.7_0.9s/images/train/n04256520_5/n02933112_-2/img_meridiani_belmondo_bench_sofa_sink_base_white_wood_2007_gray.jpg,n04256520_5,n02933112_-2,fixed,0.839088,n02933112_-2,Stimuli/psy_fixed_rotation_30_objects_occ0.7_0.9s/images/train/n04256520_5/n02933112_-2/img_meridiani_belmondo_bench_sofa_sink_base_white_wood_2007-3_gray.png,foreground,same as foreground,n04256520_5,n02933112_-2,Stimuli/canonical view 2/img_n04256520_5_gray.jpg,Stimuli/canonical view 2/img_n02933112_-2_gray.jpg,foreground,left,Experiments/experiment_40/84.jpg,Experiments/experiment_40/85.jpg,Experiments/experiment_40/86.jpg,Experiments/experiment_40/87.jpg,530,1,2023-04-03_18h34.14.930,Occlusion_Psychophysics,2022.1.4,Win32,60.38282712,,,left,"[""left""]",[0.88510000002384],False,,0.0,0.0,21.0,21.0,21.0,1.0,,,,,,
,,,,,,,,,,,,,,,,,,,,,0.05,,,,,,,,,,Stimuli/psy_flexible_rotation_30_objects_occ0.7_0.9s/images/train/n04256520_9/n04405907_9/img_napoleon_iii_sofa_vray_004_2013_gray.jpg,n04256520_9,n04405907_9,flexible,0.732148,n04405907_9,Stimuli/psy_flexible_rotation_30_objects_occ0.7_0.9s/images/train/n04256520_9/n04405907_9/img_napoleon_iii_sofa_vray_004_2013-3_gray.png,foreground,same as foreground,n04256520_9,n02828884_9,Stimuli/canonical view 2/img_n04256520_9_gray.jpg,Stimuli/canonical view 2/img_n02828884_9_gray.jpg,random,left,Experiments/experiment_40/88.jpg,Experiments/experiment_40/89.jpg,Experiments/experiment_40/90.jpg,Experiments/experiment_40/91.jpg,530,1,2023-04-03_18h34.14.930,Occlusion_Psychophysics,2022.1.4,Win32,60.38282712,,,right,"[""right""]",[1.5024999999998272],False,,0.0,0.0,22.0,22.0,22.0,1.0,,,,,,
,,,,,,,,,,,,,,,,,,,,,0.05,,,,,,,,,,Stimuli/psy_fixed_rotation_30_objects_occ0.7_0.9s/images/train/n04379243_-7/n02818832_0/img_quatre_dining_table_b03_the_sofa_and_chair_company_-_stanley_bed_2014_2008_gray.jpg,n04379243_-7,n02818832_0,fixed,0.823562,n04256520_9,Stimuli/psy_fixed_rotation_30_objects_occ0.7_0.9s/images/train/n04070727_0/n04256520_9/img_b03_ka90ivi20r_2013__vray_napoleon_iii_sofa_2015-3_gray.png,random,fixed,n04379243_-7,n02828884_3,Stimuli/canonical view 2/img_n04379243_-7_gray.jpg,Stimuli/canonical view 2/img_n02828884_3_gray.jpg,random,left,Experiments/experiment_40/92.jpg,Experiments/experiment_40/93.jpg,Experiments/experiment_40/94.jpg,Experiments/experiment_40/95.jpg,530,1,2023-04-03_18h34.14.930,Occlusion_Psychophysics,2022.1.4,Win32,60.38282712,,,right,"[""right""]",[0.8722999999522472],False,,0.0,0.0,23.0,23.0,23.0,1.0,,,,,,
,,,,,,,,,,,,,,,,,,,,,0.025,,,,,,,,,,Stimuli/psy_flexible_rotation_30_objects_occ0.7_0.9s/images/train/n04405907_9/n03001627_8/img_vray_004_chair_billiani_doll_2001_gray.jpg,n04405907_9,n03001627_8,flexible,0.751636,n03001627_8,Stimuli/psy_flexible_rotation_30_objects_occ0.7_0.9s/images/train/n04405907_9/n03001627_8/img_vray_004_chair_billiani_doll_2001-3_gray.png,foreground,same as foreground,n04405907_9,n04405907_5,Stimuli/canonical view 2/img_n04405907_9_gray.jpg,Stimuli/canonical view 2/img_n04405907_5_gray.jpg,random,right,Experiments/experiment_40/96.jpg,Experiments/experiment_40/97.jpg,Experiments/experiment_40/98.jpg,Experiments/experiment_40/99.jpg,530,1,2023-04-03_18h34.14.930,Occlusion_Psychophysics,2022.1.4,Win32,60.38282712,,,right,"[""right""]",[2.5010999999046817],False,,0.0,0.0,24.0,24.0,24.0,1.0,,,,,,
,,,,,,,,,,,,,,,,,,,,,0.025,,,,,,,,,,Stimuli/psy_fixed_rotation_30_objects_occ0.7_0.9s/images/train/n02818832_3/n03928116_4/img_b05_ccm_contemporary_bed_max2013_dp_33_b_2013__vray_2003_gray.jpg,n02818832_3,n03928116_4,fixed,0.741256,n03928116_4,Stimuli/psy_fixed_rotation_30_objects_occ0.7_0.9s/images/train/n02818832_3/n03928116_4/img_b05_ccm_contemporary_bed_max2013_dp_33_b_2013__vray_2003-3_gray.png,foreground,same as foreground,n02818832_3,n02933112_4,Stimuli/canonical view 2/img_n02818832_3_gray.jpg,Stimuli/canonical view 2/img_n02933112_4_gray.jpg,random,right,Experiments/experiment_40/100.jpg,Experiments/experiment_40/101.jpg,Experiments/experiment_40/102.jpg,Experiments/experiment_40/103.jpg,530,1,2023-04-03_18h34.14.930,Occlusion_Psychophysics,2022.1.4,Win32,60.38282712,,,left,"[""right""]",[0.8607999999524054],False,,0.0,0.0,25.0,25.0,25.0,1.0,,,,,,
,,,,,,,,,,,,,,,,,,,,,0.025,,,,,,,,,,Stimuli/psy_flexible_rotation_30_objects_occ0.7_0.9s/images/train/n03001627_9/n02883344_-1/img_chair_eames_plastic_armchair_woven_box_2012_gray.jpg,n03001627_9,n02883344_-1,flexible,0.760195,n04256520_5,Stimuli/psy_fixed_rotation_30_objects_occ0.7_0.9s/images/train/n02883344_-1/n04256520_5/img_woven_box_meridiani_belmondo_bench_sofa_2008-3_gray.png,random,fixed,n03001627_9,n02883344_-1,Stimuli/canonical view 2/img_n03001627_9_gray.jpg,Stimuli/canonical view 2/img_n02883344_-1_gray.jpg,foreground,left,Experiments/experiment_40/104.jpg,Experiments/experiment_40/105.jpg,Experiments/experiment_40/106.jpg,Experiments/experiment_40/107.jpg,530,1,2023-04-03_18h34.14.930,Occlusion_Psychophysics,2022.1.4,Win32,60.38282712,,,right,"[""right""]",[0.834099999904538],False,,0.0,0.0,26.0,26.0,26.0,1.0,,,,,,
,,,,,,,,,,,,,,,,,,,,,0.05,,,,,,,,,,Stimuli/psy_fixed_rotation_30_objects_occ0.7_0.9s/images/train/n04256520_4/n04256520_5/img_club_house_italia_nautilus_sofa_meridiani_belmondo_bench_sofa_2015_gray.jpg,n04256520_4,n04256520_5,fixed,0.770065,n04256520_9,Stimuli/psy_flexible_rotation_30_objects_occ0.7_0.9s/images/train/n02883344_0/n04256520_9/img_b03_box_napoleon_iii_sofa_2014-3_gray.png,random,flexible,n04256520_4,n04405907_5,Stimuli/canonical view 2/img_n04256520_4_gray.jpg,Stimuli/canonical view 2/img_n04405907_5_gray.jpg,random,right,Experiments/experiment_40/108.jpg,Experiments/experiment_40/109.jpg,Experiments/experiment_40/110.jpg,Experiments/experiment_40/111.jpg,530,1,2023-04-03_18h34.14.930,Occlusion_Psychophysics,2022.1.4,Win32,60.38282712,,,right,"[""right""]",[1.3853999999760163],False,,0.0,0.0,27.0,27.0,27.0,1.0,,,,,,
,,,,,,,,,,,,,,,,,,,,,0.05,,,,,,,,,,Stimuli/psy_fixed_rotation_30_objects_occ0.7_0.9s/images/train/n04256520_5/n02933112_-2/img_meridiani_belmondo_bench_sofa_sink_base_white_wood_2007_gray.jpg,n04256520_5,n02933112_-2,fixed,0.839088,n02933112_-2,Stimuli/psy_fixed_rotation_30_objects_occ0.7_0.9s/images/train/n04256520_5/n02933112_-2/img_meridiani_belmondo_bench_sofa_sink_base_white_wood_2007-3_gray.png,foreground,same as foreground,n04256520_5,n02933112_-2,Stimuli/canonical view 2/img_n04256520_5_gray.jpg,Stimuli/canonical view 2/img_n02933112_-2_gray.jpg,foreground,left,Experiments/experiment_40/112.jpg,Experiments/experiment_40/113.jpg,Experiments/experiment_40/114.jpg,Experiments/experiment_40/115.jpg,530,1,2023-04-03_18h34.14.930,Occlusion_Psychophysics,2022.1.4,Win32,60.38282712,,,left,"[""right""]",[1.143500000000131],False,,0.0,0.0,28.0,28.0,28.0,1.0,,,,,,
,,,,,,,,,,,,,,,,,,,,,0.05,,,,,,,,,,Stimuli/psy_flexible_rotation_30_objects_occ0.7_0.9s/images/train/n03928116_4/n04379243_-7/img_dp_33_b_2013__vray_quatre_dining_table_2012_gray.jpg,n03928116_4,n04379243_-7,flexible,0.855771,n04256520_4,Stimuli/psy_fixed_rotation_30_objects_occ0.7_0.9s/images/train/n04379243_-7/n04256520_4/img_quatre_dining_table_club_house_italia_nautilus_sofa_2007-3_gray.png,random,fixed,n03928116_4,n03928116_10,Stimuli/canonical view 2/img_n03928116_4_gray.jpg,Stimuli/canonical view 2/img_n03928116_10_gray.jpg,random,right,Experiments/experiment_40/116.jpg,Experiments/experiment_40/117.jpg,Experiments/experiment_40/118.jpg,Experiments/experiment_40/119.jpg,530,1,2023-04-03_18h34.14.930,Occlusion_Psychophysics,2022.1.4,Win32,60.38282712,,,right,,,False,,0.0,0.0,29.0,29.0,29.0,1.0,,,,,,
,,,,,,,,,,,,,,,,,,,,,0.025,,,,,,,,,,Stimuli/psy_flexible_rotation_30_objects_occ0.7_0.9s/images/train/n04379243_8/n04405907_5/img_glass_table_samsung_40_uhd_smart_tv_2011_2014_gray.jpg,n04379243_8,n04405907_5,flexible,0.731549,n03928116_0,Stimuli/psy_fixed_rotation_30_objects_occ0.7_0.9s/images/train/n02818832_9/n03928116_0/img_bed01_blue_b02_piano_2014-3_gray.png,random,fixed,n04379243_8,n03928116_4,Stimuli/canonical view 2/img_n04379243_8_gray.jpg,Stimuli/canonical view 2/img_n03928116_4_gray.jpg,random,left,Experiments/experiment_40/120.jpg,Experiments/experiment_40/121.jpg,Experiments/experiment_40/122.jpg,Experiments/experiment_40/123.jpg,530,1,2023-04-03_18h34.14.930,Occlusion_Psychophysics,2022.1.4,Win32,60.38282712,,,left,"[""left""]",[0.7341999999284781],False,,0.0,0.0,30.0,30.0,30.0,1.0,,,,,,
,,,,,,,,,,,,,,,,,,,,,0.05,,,,,,,,,,Stimuli/psy_flexible_rotation_30_objects_occ0.7_0.9s/images/train/n02933112_-18/n02883344_15/img_cgaxis_models_48_26_vray_composite_microwave_box_2013_gray.jpg,n02933112_-18,n02883344_15,flexible,0.809789,n02828884_3,Stimuli/psy_fixed_rotation_30_objects_occ0.7_0.9s/images/train/n04070727_0/n02828884_3/img_b03_ka90ivi20r_2013__vray_b04_wood_metal_park_bench_2009-3_gray.png,random,fixed,n02933112_-18,n02883344_15,Stimuli/canonical view 2/img_n02933112_-18_gray.jpg,Stimuli/canonical view 2/img_n02883344_15_gray.jpg,foreground,left,Experiments/experiment_40/124.jpg,Experiments/experiment_40/125.jpg,Experiments/experiment_40/126.jpg,Experiments/experiment_40/127.jpg,530,1,2023-04-03_18h34.14.930,Occlusion_Psychophysics,2022.1.4,Win32,60.38282712,,,right,"[""right""]",[1.6008999999760363],False,,0.0,0.0,31.0,31.0,31.0,1.0,,,,,,
,,,,,,,,,,,,,,,,,,,,,0.05,,,,,,,,,,Stimuli/psy_flexible_rotation_30_objects_occ0.7_0.9s/images/train/n03001627_-2/n03928116_0/img_wood_chair_b02_piano_2015_gray.jpg,n03001627_-2,n03928116_0,flexible,0.749049,n03928116_0,Stimuli/psy_flexible_rotation_30_objects_occ0.7_0.9s/images/train/n03001627_-2/n03928116_0/img_wood_chair_b02_piano_2015-3_gray.png,foreground,same as foreground,n03001627_-2,n03928116_0,Stimuli/canonical view 2/img_n03001627_-2_gray.jpg,Stimuli/canonical view 2/img_n03928116_0_gray.jpg,foreground,left,Experiments/experiment_40/128.jpg,Experiments/experiment_40/129.jpg,Experiments/experiment_40/130.jpg,Experiments/experiment_40/131.jpg,530,1,2023-04-03_18h34.14.930,Occlusion_Psychophysics,2022.1.4,Win32,60.38282712,,,right,"[""right""]",[1.1582999999523054],False,,0.0,0.0,32.0,32.0,32.0,1.0,,,,,,
,,,,,,,,,,,,,,,,,,,,,0.05,,,,,,,,,,Stimuli/psy_flexible_rotation_30_objects_occ0.7_0.9s/images/train/n04405907_8/n02818832_0/img_stylized_tv_b03_the_sofa_and_chair_company_-_stanley_bed_2014_2005_gray.jpg,n04405907_8,n02818832_0,flexible,0.706068,n04405907_8,Stimuli/psy_fixed_rotation_30_objects_occ0.7_0.9s/images/train/n03001627_-2/n04405907_8/img_wood_chair_stylized_tv_2002-3_gray.png,random,fixed,n04405907_8,n04405907_5,Stimuli/canonical view 2/img_n04405907_8_gray.jpg,Stimuli/canonical view 2/img_n04405907_5_gray.jpg,random,right,Experiments/experiment_40/132.jpg,Experiments/experiment_40/133.jpg,Experiments/experiment_40/134.jpg,Experiments/experiment_40/135.jpg,530,1,2023-04-03_18h34.14.930,Occlusion_Psychophysics,2022.1.4,Win32,60.38282712,,,left,"[""left""]",[0.8093000000715165],False,,0.0,0.0,33.0,33.0,33.0,1.0,,,,,,
,,,,,,,,,,,,,,,,,,,,,0.025,,,,,,,,,,Stimuli/psy_fixed_rotation_30_objects_occ0.7_0.9s/images/train/n04379243_-7/n03928116_0/img_quatre_dining_table_b02_piano_2004_gray.jpg,n04379243_-7,n03928116_0,fixed,0.796225,n04405907_5,Stimuli/psy_fixed_rotation_30_objects_occ0.7_0.9s/images/train/n04379243_8/n04405907_5/img_glass_table_samsung_40_uhd_smart_tv_2011_2005-3_gray.png,random,fixed,n04379243_-7,n03928116_0,Stimuli/canonical view 2/img_n04379243_-7_gray.jpg,Stimuli/canonical view 2/img_n03928116_0_gray.jpg,foreground,left,Experiments/experiment_40/136.jpg,Experiments/experiment_40/137.jpg,Experiments/experiment_40/138.jpg,Experiments/experiment_40/139.jpg,530,1,2023-04-03_18h34.14.930,Occlusion_Psychophysics,2022.1.4,Win32,60.38282712,,,left,"[""left""]",[1.1698000000715183],False,,0.0,0.0,34.0,34.0,34.0,1.0,,,,,,
,,,,,,,,,,,,,,,,,,,,,0.05,,,,,,,,,,Stimuli/psy_fixed_rotation_30_objects_occ0.7_0.9s/images/train/n02818832_0/n02933112_-18/img_b03_the_sofa_and_chair_company_-_stanley_bed_2014_cgaxis_models_48_26_vray_composite_2004_gray.jpg,n02818832_0,n02933112_-18,fixed,0.752737,n02828884_4,Stimuli/psy_flexible_rotation_30_objects_occ0.7_0.9s/images/train/n02828884_4/n02828884_4/img_b05_c-5_classic_series_bench-2012_b05_c-5_classic_series_bench-2012_2009-3_gray.png,random,flexible,n02818832_0,n02933112_-18,Stimuli/canonical view 2/img_n02818832_0_gray.jpg,Stimuli/canonical view 2/img_n02933112_-18_gray.jpg,foreground,left,Experiments/experiment_40/140.jpg,Experiments/experiment_40/141.jpg,Experiments/experiment_40/142.jpg,Experiments/experiment_40/143.jpg,530,1,2023-04-03_18h34.14.930,Occlusion_Psychophysics,2022.1.4,Win32,60.38282712,,,left,"[""right""]",[1.645700000047782],False,,0.0,0.0,35.0,35.0,35.0,1.0,,,,,,
,,,,,,,,,,,,,,,,,,,,,0.025,,,,,,,,,,Stimuli/psy_fixed_rotation_30_objects_occ0.7_0.9s/images/train/n04379243_-7/n03928116_0/img_quatre_dining_table_b02_piano_2015_gray.jpg,n04379243_-7,n03928116_0,fixed,0.79161,n03928116_0,Stimuli/psy_fixed_rotation_30_objects_occ0.7_0.9s/images/train/n04379243_-7/n03928116_0/img_quatre_dining_table_b02_piano_2015-3_gray.png,foreground,same as foreground,n04379243_-7,n03928116_0,Stimuli/canonical view 2/img_n04379243_-7_gray.jpg,Stimuli/canonical view 2/img_n03928116_0_gray.jpg,foreground,left,Experiments/experiment_40/144.jpg,Experiments/experiment_40/145.jpg,Experiments/experiment_40/146.jpg,Experiments/experiment_40/147.jpg,530,1,2023-04-03_18h34.14.930,Occlusion_Psychophysics,2022.1.4,Win32,60.38282712,,,left,"[""right""]",[1.2291000000236636],False,,0.0,0.0,36.0,36.0,36.0,1.0,,,,,,
,,,,,,,,,,,,,,,,,,,,,0.05,,,,,,,,,,Stimuli/psy_fixed_rotation_30_objects_occ0.7_0.9s/images/train/n02883344_15/n03928116_4/img_microwave_box_dp_33_b_2013__vray_2002_gray.jpg,n02883344_15,n03928116_4,fixed,0.740162,n03001627_8,Stimuli/psy_flexible_rotation_30_objects_occ0.7_0.9s/images/train/n02933112_-18/n03001627_8/img_cgaxis_models_48_26_vray_composite_chair_billiani_doll_2011-3_gray.png,random,flexible,n02883344_15,n02818832_9,Stimuli/canonical view 2/img_n02883344_15_gray.jpg,Stimuli/canonical view 2/img_n02818832_9_gray.jpg,random,left,Experiments/experiment_40/148.jpg,Experiments/experiment_40/149.jpg,Experiments/experiment_40/150.jpg,Experiments/experiment_40/151.jpg,530,1,2023-04-03_18h34.14.930,Occlusion_Psychophysics,2022.1.4,Win32,60.38282712,,,left,"[""right""]",[1.5222999999523381],False,,0.0,0.0,37.0,37.0,37.0,1.0,,,,,,
,,,,,,,,,,,,,,,,,,,,,0.025,,,,,,,,,,Stimuli/psy_flexible_rotation_30_objects_occ0.7_0.9s/images/train/n04379243_8/n04379243_-7/img_glass_table_quatre_dining_table_2015_gray.jpg,n04379243_8,n04379243_-7,flexible,0.790786,n04379243_-7,Stimuli/psy_flexible_rotation_30_objects_occ0.7_0.9s/images/train/n04379243_8/n04379243_-7/img_glass_table_quatre_dining_table_2015-3_gray.png,foreground,same as foreground,n04379243_8,n02818832_9,Stimuli/canonical view 2/img_n04379243_8_gray.jpg,Stimuli/canonical view 2/img_n02818832_9_gray.jpg,random,right,Experiments/experiment_40/152.jpg,Experiments/experiment_40/153.jpg,Experiments/experiment_40/154.jpg,Experiments/experiment_40/155.jpg,530,1,2023-04-03_18h34.14.930,Occlusion_Psychophysics,2022.1.4,Win32,60.38282712,,,right,"[""right""]",[0.8599999999999],False,,0.0,0.0,38.0,38.0,38.0,1.0,,,,,,
,,,,,,,,,,,,,,,,,,,,,0.025,,,,,,,,,,Stimuli/psy_fixed_rotation_30_objects_occ0.7_0.9s/images/train/n02818832_9/n02933112_-18/img_bed01_blue_cgaxis_models_48_26_vray_composite_2012_gray.jpg,n02818832_9,n02933112_-18,fixed,0.755165,n02933112_-2,Stimuli/psy_flexible_rotation_30_objects_occ0.7_0.9s/images/train/n03928116_10/n02933112_-2/img_ydp_103_r_2012__vray_sink_base_white_wood_2007-3_gray.png,random,flexible,n02818832_9,n02933112_4,Stimuli/canonical view 2/img_n02818832_9_gray.jpg,Stimuli/canonical view 2/img_n02933112_4_gray.jpg,random,left,Experiments/experiment_40/156.jpg,Experiments/experiment_40/157.jpg,Experiments/experiment_40/158.jpg,Experiments/experiment_40/159.jpg,530,1,2023-04-03_18h34.14.930,Occlusion_Psychophysics,2022.1.4,Win32,60.38282712,,,left,"[""right""]",[0.9755999999044889],False,,0.0,0.0,39.0,39.0,39.0,1.0,,,,,,
,,,,,,,,,,,,,,,,,,,,,0.025,,,,,,,,,,Stimuli/psy_flexible_rotation_30_objects_occ0.7_0.9s/images/train/n02818832_3/n02828884_3/img_b05_ccm_contemporary_bed_max2013_b04_wood_metal_park_bench_2007_gray.jpg,n02818832_3,n02828884_3,flexible,0.703241,n02883344_15,Stimuli/psy_flexible_rotation_30_objects_occ0.7_0.9s/images/train/n02933112_-2/n02883344_15/img_sink_base_white_wood_microwave_box_2005-3_gray.png,random,flexible,n02818832_3,n04256520_5,Stimuli/canonical view 2/img_n02818832_3_gray.jpg,Stimuli/canonical view 2/img_n04256520_5_gray.jpg,random,right,Experiments/experiment_40/160.jpg,Experiments/experiment_40/161.jpg,Experiments/experiment_40/162.jpg,Experiments/experiment_40/163.jpg,530,1,2023-04-03_18h34.14.930,Occlusion_Psychophysics,2022.1.4,Win32,60.38282712,,,left,"[""left""]",[0.9945000000000164],False,,0.0,0.0,40.0,40.0,40.0,1.0,,,,,,
,,,,,,,,,,,,,,,,,,,,,0.05,,,,,,,,,,Stimuli/psy_flexible_rotation_30_objects_occ0.7_0.9s/images/train/n03928116_0/n03001627_9/img_b02_piano_chair_eames_plastic_armchair_2005_gray.jpg,n03928116_0,n03001627_9,flexible,0.862112,n03001627_9,Stimuli/psy_flexible_rotation_30_objects_occ0.7_0.9s/images/train/n03928116_0/n03001627_9/img_b02_piano_chair_eames_plastic_armchair_2005-3_gray.png,foreground,same as foreground,n03928116_0,n03001627_9,Stimuli/canonical view 2/img_n03928116_0_gray.jpg,Stimuli/canonical view 2/img_n03001627_9_gray.jpg,foreground,right,Experiments/experiment_40/164.jpg,Experiments/experiment_40/165.jpg,Experiments/experiment_40/166.jpg,Experiments/experiment_40/167.jpg,530,1,2023-04-03_18h34.14.930,Occlusion_Psychophysics,2022.1.4,Win32,60.38282712,,,right,"[""left""]",[1.0698000000716092],False,,0.0,0.0,41.0,41.0,41.0,1.0,,,,,,
,,,,,,,,,,,,,,,,,,,,,0.05,,,,,,,,,,Stimuli/psy_fixed_rotation_30_objects_occ0.7_0.9s/images/train/n03001627_9/n02883344_15/img_chair_eames_plastic_armchair_microwave_box_2000_gray.jpg,n03001627_9,n02883344_15,fixed,0.744857,n02933112_-2,Stimuli/psy_flexible_rotation_30_objects_occ0.7_0.9s/images/train/n04256520_9/n02933112_-2/img_napoleon_iii_sofa_sink_base_white_wood_2009-3_gray.png,random,flexible,n03001627_9,n02883344_15,Stimuli/canonical view 2/img_n03001627_9_gray.jpg,Stimuli/canonical view 2/img_n02883344_15_gray.jpg,foreground,left,Experiments/experiment_40/168.jpg,Experiments/experiment_40/169.jpg,Experiments/experiment_40/170.jpg,Experiments/experiment_40/171.jpg,530,1,2023-04-03_18h34.14.930,Occlusion_Psychophysics,2022.1.4,Win32,60.38282712,,,right,"[""left""]",[0.9868000000715256],False,,0.0,0.0,42.0,42.0,42.0,1.0,,,,,,
,,,,,,,,,,,,,,,,,,,,,0.05,,,,,,,,,,Stimuli/psy_flexible_rotation_30_objects_occ0.7_0.9s/images/train/n03928116_4/n02818832_3/img_dp_33_b_2013__vray_b05_ccm_contemporary_bed_max2013_2003_gray.jpg,n03928116_4,n02818832_3,flexible,0.81422,n02818832_3,Stimuli/psy_flexible_rotation_30_objects_occ0.7_0.9s/images/train/n03928116_4/n02818832_3/img_dp_33_b_2013__vray_b05_ccm_contemporary_bed_max2013_2003-3_gray.png,foreground,same as foreground,n03928116_4,n02818832_3,Stimuli/canonical view 2/img_n03928116_4_gray.jpg,Stimuli/canonical view 2/img_n02818832_3_gray.jpg,foreground,left,Experiments/experiment_40/172.jpg,Experiments/experiment_40/173.jpg,Experiments/experiment_40/174.jpg,Experiments/experiment_40/175.jpg,530,1,2023-04-03_18h34.14.930,Occlusion_Psychophysics,2022.1.4,Win32,60.38282712,,,left,"[""left""]",[0.9027999999523217],False,,0.0,0.0,43.0,43.0,43.0,1.0,,,,,,
,,,,,,,,,,,,,,,,,,,,,0.05,,,,,,,,,,Stimuli/psy_fixed_rotation_30_objects_occ0.7_0.9s/images/train/n04405907_5/n04379243_-7/img_samsung_40_uhd_smart_tv_2011_quatre_dining_table_2012_gray.jpg,n04405907_5,n04379243_-7,fixed,0.737682,n04379243_-7,Stimuli/psy_fixed_rotation_30_objects_occ0.7_0.9s/images/train/n04405907_5/n04379243_-7/img_samsung_40_uhd_smart_tv_2011_quatre_dining_table_2012-3_gray.png,foreground,same as foreground,n04405907_5,n04379243_-7,Stimuli/canonical view 2/img_n04405907_5_gray.jpg,Stimuli/canonical view 2/img_n04379243_-7_gray.jpg,foreground,left,Experiments/experiment_40/176.jpg,Experiments/experiment_40/177.jpg,Experiments/experiment_40/178.jpg,Experiments/experiment_40/179.jpg,530,1,2023-04-03_18h34.14.930,Occlusion_Psychophysics,2022.1.4,Win32,60.38282712,,,left,"[""left""]",[1.3035999999046908],False,,0.0,0.0,44.0,44.0,44.0,1.0,,,,,,
,,,,,,,,,,,,,,,,,,,,,0.05,,,,,,,,,,Stimuli/psy_fixed_rotation_30_objects_occ0.7_0.9s/images/train/n03928116_0/n03001627_8/img_b02_piano_chair_billiani_doll_2010_gray.jpg,n03928116_0,n03001627_8,fixed,0.723379,n03001627_8,Stimuli/psy_fixed_rotation_30_objects_occ0.7_0.9s/images/train/n03928116_0/n03001627_8/img_b02_piano_chair_billiani_doll_2010-3_gray.png,foreground,same as foreground,n03928116_0,n02828884_9,Stimuli/canonical view 2/img_n03928116_0_gray.jpg,Stimuli/canonical view 2/img_n02828884_9_gray.jpg,random,right,Experiments/experiment_40/180.jpg,Experiments/experiment_40/181.jpg,Experiments/experiment_40/182.jpg,Experiments/experiment_40/183.jpg,530,1,2023-04-03_18h34.14.930,Occlusion_Psychophysics,2022.1.4,Win32,60.38282712,,,right,"[""right""]",[0.7323000000715183],False,,0.0,0.0,45.0,45.0,45.0,1.0,,,,,,
,,,,,,,,,,,,,,,,,,,,,0.05,,,,,,,,,,Stimuli/psy_fixed_rotation_30_objects_occ0.7_0.9s/images/train/n02883344_15/n04379243_0/img_microwave_box_17th_c._monastery_dining_table_2010_2010_gray.jpg,n02883344_15,n04379243_0,fixed,0.791218,n03928116_4,Stimuli/psy_fixed_rotation_30_objects_occ0.7_0.9s/images/train/n04379243_0/n03928116_4/img_17th_c._monastery_dining_table_2010_dp_33_b_2013__vray_2013-3_gray.png,random,fixed,n02883344_15,n04379243_0,Stimuli/canonical view 2/img_n02883344_15_gray.jpg,Stimuli/canonical view 2/img_n04379243_0_gray.jpg,foreground,right,Experiments/experiment_40/184.jpg,Experiments/experiment_40/185.jpg,Experiments/experiment_40/186.jpg,Experiments/experiment_40/187.jpg,530,1,2023-04-03_18h34.14.930,Occlusion_Psychophysics,2022.1.4,Win32,60.38282712,,,right,"[""right""]",[0.8015000000000327],False,,0.0,0.0,46.0,46.0,46.0,1.0,,,,,,
,,,,,,,,,,,,,,,,,,,,,0.025,,,,,,,,,,Stimuli/psy_flexible_rotation_30_objects_occ0.7_0.9s/images/train/n04379243_-7/n02933112_-2/img_quatre_dining_table_sink_base_white_wood_2007_gray.jpg,n04379243_-7,n02933112_-2,flexible,0.71273,n02933112_-2,Stimuli/psy_flexible_rotation_30_objects_occ0.7_0.9s/images/train/n04379243_-7/n02933112_-2/img_quatre_dining_table_sink_base_white_wood_2007-3_gray.png,foreground,same as foreground,n04379243_-7,n02818832_9,Stimuli/canonical view 2/img_n04379243_-7_gray.jpg,Stimuli/canonical view 2/img_n02818832_9_gray.jpg,random,left,Experiments/experiment_40/188.jpg,Experiments/experiment_40/189.jpg,Experiments/experiment_40/190.jpg,Experiments/experiment_40/191.jpg,530,1,2023-04-03_18h34.14.930,Occlusion_Psychophysics,2022.1.4,Win32,60.38282712,,,left,"[""left""]",[1.183999999999969],False,,0.0,0.0,47.0,47.0,47.0,1.0,,,,,,
,,,,,,,,,,,,,,,,,,,,,0.025,,,,,,,,,,Stimuli/psy_fixed_rotation_30_objects_occ0.7_0.9s/images/train/n03001627_9/n03928116_10/img_chair_eames_plastic_armchair_ydp_103_r_2012__vray_2012_gray.jpg,n03001627_9,n03928116_10,fixed,0.737703,n03928116_0,Stimuli/psy_flexible_rotation_30_objects_occ0.7_0.9s/images/train/n04070727_5/n03928116_0/img_b05_db_apps_tech_06_13_composite_b02_piano_2013-3_gray.png,random,flexible,n03001627_9,n03928116_10,Stimuli/canonical view 2/img_n03001627_9_gray.jpg,Stimuli/canonical view 2/img_n03928116_10_gray.jpg,foreground,left,Experiments/experiment_40/192.jpg,Experiments/experiment_40/193.jpg,Experiments/experiment_40/194.jpg,Experiments/experiment_40/195.jpg,530,1,2023-04-03_18h34.14.930,Occlusion_Psychophysics,2022.1.4,Win32,60.38282712,,,left,"[""left""]",[0.9643999999761945],False,,0.0,0.0,48.0,48.0,48.0,1.0,,,,,,
,,,,,,,,,,,,,,,,,,,,,0.05,,,,,,,,,,Stimuli/psy_flexible_rotation_30_objects_occ0.7_0.9s/images/train/n02933112_4/n02828884_3/img_buffet_b04_wood_metal_park_bench_2007_gray.jpg,n02933112_4,n02828884_3,flexible,0.725778,n02828884_3,Stimuli/psy_flexible_rotation_30_objects_occ0.7_0.9s/images/train/n02933112_4/n02828884_3/img_buffet_b04_wood_metal_park_bench_2007-3_gray.png,foreground,same as foreground,n02933112_4,n04379243_-7,Stimuli/canonical view 2/img_n02933112_4_gray.jpg,Stimuli/canonical view 2/img_n04379243_-7_gray.jpg,random,right,Experiments/experiment_40/196.jpg,Experiments/experiment_40/197.jpg,Experiments/experiment_40/198.jpg,Experiments/experiment_40/199.jpg,530,1,2023-04-03_18h34.14.930,Occlusion_Psychophysics,2022.1.4,Win32,60.38282712,,,right,"[""left""]",[1.1128999999759799],False,,0.0,0.0,49.0,49.0,49.0,1.0,,,,,,
,,,,,,,,,,,,,,,,,,,,,0.025,,,,,,,,,,Stimuli/psy_fixed_rotation_30_objects_occ0.7_0.9s/images/train/n04256520_4/n04256520_9/img_club_house_italia_nautilus_sofa_napoleon_iii_sofa_2005_gray.jpg,n04256520_4,n04256520_9,fixed,0.746847,n04256520_9,Stimuli/psy_fixed_rotation_30_objects_occ0.7_0.9s/images/train/n04256520_4/n04256520_9/img_club_house_italia_nautilus_sofa_napoleon_iii_sofa_2005-3_gray.png,foreground,same as foreground,n04256520_4,n04256520_9,Stimuli/canonical view 2/img_n04256520_4_gray.jpg,Stimuli/canonical view 2/img_n04256520_9_gray.jpg,foreground,left,Experiments/experiment_40/200.jpg,Experiments/experiment_40/201.jpg,Experiments/experiment_40/202.jpg,Experiments/experiment_40/203.jpg,530,1,2023-04-03_18h34.14.930,Occlusion_Psychophysics,2022.1.4,Win32,60.38282712,,,left,"[""right""]",[2.000699999928429],False,,0.0,0.0,50.0,50.0,50.0,1.0,,,,,,
,,,,,,,,,,,,,,,,,,,,,0.025,,,,,,,,,,Stimuli/psy_fixed_rotation_30_objects_occ0.7_0.9s/images/train/n04405907_8/n02818832_9/img_stylized_tv_bed01_blue_2000_gray.jpg,n04405907_8,n02818832_9,fixed,0.832058,n02818832_9,Stimuli/psy_fixed_rotation_30_objects_occ0.7_0.9s/images/train/n04405907_8/n02818832_9/img_stylized_tv_bed01_blue_2000-3_gray.png,foreground,same as foreground,n04405907_8,n04256520_5,Stimuli/canonical view 2/img_n04405907_8_gray.jpg,Stimuli/canonical view 2/img_n04256520_5_gray.jpg,random,right,Experiments/experiment_40/204.jpg,Experiments/experiment_40/205.jpg,Experiments/experiment_40/206.jpg,Experiments/experiment_40/207.jpg,530,1,2023-04-03_18h34.14.930,Occlusion_Psychophysics,2022.1.4,Win32,60.38282712,,,right,"[""right""]",[1.4941000000237636],False,,0.0,0.0,51.0,51.0,51.0,1.0,,,,,,
,,,,,,,,,,,,,,,,,,,,,0.05,,,,,,,,,,Stimuli/psy_fixed_rotation_30_objects_occ0.7_0.9s/images/train/n02828884_3/n03928116_10/img_b04_wood_metal_park_bench_ydp_103_r_2012__vray_2012_gray.jpg,n02828884_3,n03928116_10,fixed,0.757619,n03928116_10,Stimuli/psy_fixed_rotation_30_objects_occ0.7_0.9s/images/train/n02828884_3/n03928116_10/img_b04_wood_metal_park_bench_ydp_103_r_2012__vray_2012-3_gray.png,foreground,same as foreground,n02828884_3,n03928116_10,Stimuli/canonical view 2/img_n02828884_3_gray.jpg,Stimuli/canonical view 2/img_n03928116_10_gray.jpg,foreground,right,Experiments/experiment_40/208.jpg,Experiments/experiment_40/209.jpg,Experiments/experiment_40/210.jpg,Experiments/experiment_40/211.jpg,530,1,2023-04-03_18h34.14.930,Occlusion_Psychophysics,2022.1.4,Win32,60.38282712,,,left,"[""left""]",[0.7735000000000127],False,,0.0,0.0,52.0,52.0,52.0,1.0,,,,,,
,,,,,,,,,,,,,,,,,,,,,0.025,,,,,,,,,,Stimuli/psy_flexible_rotation_30_objects_occ0.7_0.9s/images/train/n04405907_8/n03001627_9/img_stylized_tv_chair_eames_plastic_armchair_2005_gray.jpg,n04405907_8,n03001627_9,flexible,0.844387,n03001627_9,Stimuli/psy_flexible_rotation_30_objects_occ0.7_0.9s/images/train/n04405907_8/n03001627_9/img_stylized_tv_chair_eames_plastic_armchair_2005-3_gray.png,foreground,same as foreground,n04405907_8,n03001627_9,Stimuli/canonical view 2/img_n04405907_8_gray.jpg,Stimuli/canonical view 2/img_n03001627_9_gray.jpg,foreground,right,Experiments/experiment_40/212.jpg,Experiments/experiment_40/213.jpg,Experiments/experiment_40/214.jpg,Experiments/experiment_40/215.jpg,530,1,2023-04-03_18h34.14.930,Occlusion_Psychophysics,2022.1.4,Win32,60.38282712,,,right,"[""left""]",[0.7211000000238528],True,right,1.0,0.0,53.0,53.0,53.0,1.0,0.8565,,,,,
,,,,,,,,,,,,,,,,,,,,,0.025,,,,,,,,,,Stimuli/psy_fixed_rotation_30_objects_occ0.7_0.9s/images/train/n03928116_4/n04405907_9/img_dp_33_b_2013__vray_vray_004_2009_gray.jpg,n03928116_4,n04405907_9,fixed,0.879338,n02883344_15,Stimuli/psy_flexible_rotation_30_objects_occ0.7_0.9s/images/train/n02828884_9/n02883344_15/img_cr-96_bench_microwave_box_2014-3_gray.png,random,flexible,n03928116_4,n04405907_9,Stimuli/canonical view 2/img_n03928116_4_gray.jpg,Stimuli/canonical view 2/img_n04405907_9_gray.jpg,foreground,right,Experiments/experiment_40/216.jpg,Experiments/experiment_40/217.jpg,Experiments/experiment_40/218.jpg,Experiments/experiment_40/219.jpg,530,1,2023-04-03_18h34.14.930,Occlusion_Psychophysics,2022.1.4,Win32,60.38282712,,,right,"[""left""]",[0.7375000000001819],False,,0.0,0.0,54.0,54.0,54.0,1.0,,,,,,
,,,,,,,,,,,,,,,,,,,,,0.025,,,,,,,,,,Stimuli/psy_fixed_rotation_30_objects_occ0.7_0.9s/images/train/n03928116_4/n02818832_3/img_dp_33_b_2013__vray_b05_ccm_contemporary_bed_max2013_2005_gray.jpg,n03928116_4,n02818832_3,fixed,0.731942,n03928116_4,Stimuli/psy_fixed_rotation_30_objects_occ0.7_0.9s/images/train/n02818832_3/n03928116_4/img_b05_ccm_contemporary_bed_max2013_dp_33_b_2013__vray_2003-3_gray.png,random,fixed,n03928116_4,n02828884_3,Stimuli/canonical view 2/img_n03928116_4_gray.jpg,Stimuli/canonical view 2/img_n02828884_3_gray.jpg,random,right,Experiments/experiment_40/220.jpg,Experiments/experiment_40/221.jpg,Experiments/experiment_40/222.jpg,Experiments/experiment_40/223.jpg,530,1,2023-04-03_18h34.14.930,Occlusion_Psychophysics,2022.1.4,Win32,60.38282712,,,right,"[""right""]",[1.3141000000239274],False,,0.0,0.0,55.0,55.0,55.0,1.0,,,,,,
,,,,,,,,,,,,,,,,,,,,,0.025,,,,,,,,,,Stimuli/psy_flexible_rotation_30_objects_occ0.7_0.9s/images/train/n03928116_0/n03001627_8/img_b02_piano_chair_billiani_doll_2007_gray.jpg,n03928116_0,n03001627_8,flexible,0.741602,n03001627_8,Stimuli/psy_flexible_rotation_30_objects_occ0.7_0.9s/images/train/n03928116_0/n03001627_8/img_b02_piano_chair_billiani_doll_2007-3_gray.png,foreground,same as foreground,n03928116_0,n03001627_8,Stimuli/canonical view 2/img_n03928116_0_gray.jpg,Stimuli/canonical view 2/img_n03001627_8_gray.jpg,foreground,left,Experiments/experiment_40/224.jpg,Experiments/experiment_40/225.jpg,Experiments/experiment_40/226.jpg,Experiments/experiment_40/227.jpg,530,1,2023-04-03_18h34.14.930,Occlusion_Psychophysics,2022.1.4,Win32,60.38282712,,,right,"[""right""]",[0.620700000047691],False,,0.0,0.0,56.0,56.0,56.0,1.0,,,,,,
,,,,,,,,,,,,,,,,,,,,,0.025,,,,,,,,,,Stimuli/psy_fixed_rotation_30_objects_occ0.7_0.9s/images/train/n03001627_9/n04256520_4/img_chair_eames_plastic_armchair_club_house_italia_nautilus_sofa_2010_gray.jpg,n03001627_9,n04256520_4,fixed,0.710495,n04405907_8,Stimuli/psy_flexible_rotation_30_objects_occ0.7_0.9s/images/train/n04256520_4/n04405907_8/img_club_house_italia_nautilus_sofa_stylized_tv_2000-3_gray.png,random,flexible,n03001627_9,n04405907_9,Stimuli/canonical view 2/img_n03001627_9_gray.jpg,Stimuli/canonical view 2/img_n04405907_9_gray.jpg,random,left,Experiments/experiment_40/228.jpg,Experiments/experiment_40/229.jpg,Experiments/experiment_40/230.jpg,Experiments/experiment_40/231.jpg,530,1,2023-04-03_18h34.14.930,Occlusion_Psychophysics,2022.1.4,Win32,60.38282712,,,left,"[""left""]",[0.8381999999285199],False,,0.0,0.0,57.0,57.0,57.0,1.0,,,,,,
,,,,,,,,,,,,,,,,,,,,,0.025,,,,,,,,,,Stimuli/psy_fixed_rotation_30_objects_occ0.7_0.9s/images/train/n02818832_0/n04256520_9/img_b03_the_sofa_and_chair_company_-_stanley_bed_2014_napoleon_iii_sofa_2013_gray.jpg,n02818832_0,n04256520_9,fixed,0.712608,n04256520_9,Stimuli/psy_fixed_rotation_30_objects_occ0.7_0.9s/images/train/n02818832_0/n04256520_9/img_b03_the_sofa_and_chair_company_-_stanley_bed_2014_napoleon_iii_sofa_2013-3_gray.png,foreground,same as foreground,n02818832_0,n04256520_9,Stimuli/canonical view 2/img_n02818832_0_gray.jpg,Stimuli/canonical view 2/img_n04256520_9_gray.jpg,foreground,left,Experiments/experiment_40/232.jpg,Experiments/experiment_40/233.jpg,Experiments/experiment_40/234.jpg,Experiments/experiment_40/235.jpg,530,1,2023-04-03_18h34.14.930,Occlusion_Psychophysics,2022.1.4,Win32,60.38282712,,,left,"[""left""]",[1.0093999999762673],False,,0.0,0.0,58.0,58.0,58.0,1.0,,,,,,
,,,,,,,,,,,,,,,,,,,,,0.025,,,,,,,,,,Stimuli/psy_fixed_rotation_30_objects_occ0.7_0.9s/images/train/n02933112_-18/n04379243_-7/img_cgaxis_models_48_26_vray_composite_quatre_dining_table_2001_gray.jpg,n02933112_-18,n04379243_-7,fixed,0.747652,n04405907_9,Stimuli/psy_fixed_rotation_30_objects_occ0.7_0.9s/images/train/n04379243_-7/n04405907_9/img_quatre_dining_table_vray_004_2003-3_gray.png,random,fixed,n02933112_-18,n02818832_0,Stimuli/canonical view 2/img_n02933112_-18_gray.jpg,Stimuli/canonical view 2/img_n02818832_0_gray.jpg,random,right,Experiments/experiment_40/236.jpg,Experiments/experiment_40/237.jpg,Experiments/experiment_40/238.jpg,Experiments/experiment_40/239.jpg,530,1,2023-04-03_18h34.14.930,Occlusion_Psychophysics,2022.1.4,Win32,60.38282712,,,left,"[""left""]",[0.9277999999524127],False,,0.0,0.0,59.0,59.0,59.0,1.0,,,,,,
,,,,,,,,,,,,,,,,,,,,,0.05,,,,,,,,,,Stimuli/psy_fixed_rotation_30_objects_occ0.7_0.9s/images/train/n03928116_0/n02933112_-2/img_b02_piano_sink_base_white_wood_2000_gray.jpg,n03928116_0,n02933112_-2,fixed,0.704125,n04256520_4,Stimuli/psy_fixed_rotation_30_objects_occ0.7_0.9s/images/train/n03928116_10/n04256520_4/img_ydp_103_r_2012__vray_club_house_italia_nautilus_sofa_2005-3_gray.png,random,fixed,n03928116_0,n02933112_-2,Stimuli/canonical view 2/img_n03928116_0_gray.jpg,Stimuli/canonical view 2/img_n02933112_-2_gray.jpg,foreground,right,Experiments/experiment_40/240.jpg,Experiments/experiment_40/241.jpg,Experiments/experiment_40/242.jpg,Experiments/experiment_40/243.jpg,530,1,2023-04-03_18h34.14.930,Occlusion_Psychophysics,2022.1.4,Win32,60.38282712,,,left,"[""left""]",[0.8510000000001128],False,,0.0,0.0,60.0,60.0,60.0,1.0,,,,,,
,,,,,,,,,,,,,,,,,,,,,0.05,,,,,,,,,,Stimuli/psy_flexible_rotation_30_objects_occ0.7_0.9s/images/train/n04379243_-7/n04379243_8/img_quatre_dining_table_glass_table_2015_gray.jpg,n04379243_-7,n04379243_8,flexible,0.762491,n04379243_8,Stimuli/psy_flexible_rotation_30_objects_occ0.7_0.9s/images/train/n04379243_-7/n04379243_8/img_quatre_dining_table_glass_table_2015-3_gray.png,foreground,same as foreground,n04379243_-7,n04379243_0,Stimuli/canonical view 2/img_n04379243_-7_gray.jpg,Stimuli/canonical view 2/img_n04379243_0_gray.jpg,random,left,Experiments/experiment_40/244.jpg,Experiments/experiment_40/245.jpg,Experiments/experiment_40/246.jpg,Experiments/experiment_40/247.jpg,530,1,2023-04-03_18h34.14.930,Occlusion_Psychophysics,2022.1.4,Win32,60.38282712,,,left,"[""right""]",[0.78810000002386],False,,0.0,0.0,61.0,61.0,61.0,1.0,,,,,,
,,,,,,,,,,,,,,,,,,,,,0.025,,,,,,,,,,Stimuli/psy_flexible_rotation_30_objects_occ0.7_0.9s/images/train/n04405907_9/n02883344_0/img_vray_004_b03_box_2013_gray.jpg,n04405907_9,n02883344_0,flexible,0.728198,n02933112_-18,Stimuli/psy_flexible_rotation_30_objects_occ0.7_0.9s/images/train/n04070727_3/n02933112_-18/img_b05_db_apps_tech_06_02_2_composite_cgaxis_models_48_26_vray_composite_2002-3_gray.png,random,flexible,n04405907_9,n03928116_4,Stimuli/canonical view 2/img_n04405907_9_gray.jpg,Stimuli/canonical view 2/img_n03928116_4_gray.jpg,random,right,Experiments/experiment_40/248.jpg,Experiments/experiment_40/249.jpg,Experiments/experiment_40/250.jpg,Experiments/experiment_40/251.jpg,530,1,2023-04-03_18h34.14.930,Occlusion_Psychophysics,2022.1.4,Win32,60.38282712,,,right,"[""right""]",[0.8291000000238],False,,0.0,0.0,62.0,62.0,62.0,1.0,,,,,,
,,,,,,,,,,,,,,,,,,,,,0.025,,,,,,,,,,Stimuli/psy_flexible_rotation_30_objects_occ0.7_0.9s/images/train/n02828884_3/n02818832_9/img_b04_wood_metal_park_bench_bed01_blue_2015_gray.jpg,n02828884_3,n02818832_9,flexible,0.734154,n04256520_9,Stimuli/psy_flexible_rotation_30_objects_occ0.7_0.9s/images/train/n04256520_4/n04256520_9/img_club_house_italia_nautilus_sofa_napoleon_iii_sofa_2001-3_gray.png,random,flexible,n02828884_3,n02818832_9,Stimuli/canonical view 2/img_n02828884_3_gray.jpg,Stimuli/canonical view 2/img_n02818832_9_gray.jpg,foreground,right,Experiments/experiment_40/252.jpg,Experiments/experiment_40/253.jpg,Experiments/experiment_40/254.jpg,Experiments/experiment_40/255.jpg,530,1,2023-04-03_18h34.14.930,Occlusion_Psychophysics,2022.1.4,Win32,60.38282712,,,right,"[""right""]",[0.7185999999046544],False,,0.0,0.0,63.0,63.0,63.0,1.0,,,,,,
,,,,,,,,,,,,,,,,,,,,,0.05,,,,,,,,,,Stimuli/psy_fixed_rotation_30_objects_occ0.7_0.9s/images/train/n02818832_9/n02933112_-2/img_bed01_blue_sink_base_white_wood_2011_gray.jpg,n02818832_9,n02933112_-2,fixed,0.772841,n02933112_-2,Stimuli/psy_fixed_rotation_30_objects_occ0.7_0.9s/images/train/n02818832_9/n02933112_-2/img_bed01_blue_sink_base_white_wood_2011-3_gray.png,foreground,same as foreground,n02818832_9,n04379243_-7,Stimuli/canonical view 2/img_n02818832_9_gray.jpg,Stimuli/canonical view 2/img_n04379243_-7_gray.jpg,random,right,Experiments/experiment_40/256.jpg,Experiments/experiment_40/257.jpg,Experiments/experiment_40/258.jpg,Experiments/experiment_40/259.jpg,530,1,2023-04-03_18h34.14.930,Occlusion_Psychophysics,2022.1.4,Win32,60.38282712,,,left,"[""left""]",[0.7311000000238437],False,,0.0,0.0,64.0,64.0,64.0,1.0,,,,,,
,,,,,,,,,,,,,,,,,,,,,0.05,,,,,,,,,,Stimuli/psy_fixed_rotation_30_objects_occ0.7_0.9s/images/train/n02818832_0/n04405907_9/img_b03_the_sofa_and_chair_company_-_stanley_bed_2014_vray_004_2001_gray.jpg,n02818832_0,n04405907_9,fixed,0.732819,n04405907_9,Stimuli/psy_fixed_rotation_30_objects_occ0.7_0.9s/images/train/n02818832_0/n04405907_9/img_b03_the_sofa_and_chair_company_-_stanley_bed_2014_vray_004_2001-3_gray.png,foreground,same as foreground,n02818832_0,n04405907_9,Stimuli/canonical view 2/img_n02818832_0_gray.jpg,Stimuli/canonical view 2/img_n04405907_9_gray.jpg,foreground,left,Experiments/experiment_40/260.jpg,Experiments/experiment_40/261.jpg,Experiments/experiment_40/262.jpg,Experiments/experiment_40/263.jpg,530,1,2023-04-03_18h34.14.930,Occlusion_Psychophysics,2022.1.4,Win32,60.38282712,,,right,"[""right""]",[0.6522999999522199],False,,0.0,0.0,65.0,65.0,65.0,1.0,,,,,,
,,,,,,,,,,,,,,,,,,,,,0.05,,,,,,,,,,Stimuli/psy_fixed_rotation_30_objects_occ0.7_0.9s/images/train/n04256520_4/n02818832_9/img_club_house_italia_nautilus_sofa_bed01_blue_2013_gray.jpg,n04256520_4,n02818832_9,fixed,0.77326,n04379243_0,Stimuli/psy_flexible_rotation_30_objects_occ0.7_0.9s/images/train/n04405907_8/n04379243_0/img_stylized_tv_17th_c._monastery_dining_table_2010_2014-3_gray.png,random,flexible,n04256520_4,n02818832_3,Stimuli/canonical view 2/img_n04256520_4_gray.jpg,Stimuli/canonical view 2/img_n02818832_3_gray.jpg,random,left,Experiments/experiment_40/264.jpg,Experiments/experiment_40/265.jpg,Experiments/experiment_40/266.jpg,Experiments/experiment_40/267.jpg,530,1,2023-04-03_18h34.14.930,Occlusion_Psychophysics,2022.1.4,Win32,60.38282712,,,left,"[""left""]",[0.821200000047611],False,,0.0,0.0,66.0,66.0,66.0,1.0,,,,,,
,,,,,,,,,,,,,,,,,,,,,0.05,,,,,,,,,,Stimuli/psy_fixed_rotation_30_objects_occ0.7_0.9s/images/train/n04256520_5/n02883344_-1/img_meridiani_belmondo_bench_sofa_woven_box_2002_gray.jpg,n04256520_5,n02883344_-1,fixed,0.705218,n02883344_-1,Stimuli/psy_fixed_rotation_30_objects_occ0.7_0.9s/images/train/n04256520_5/n02883344_-1/img_meridiani_belmondo_bench_sofa_woven_box_2002-3_gray.png,foreground,same as foreground,n04256520_5,n02883344_-1,Stimuli/canonical view 2/img_n04256520_5_gray.jpg,Stimuli/canonical view 2/img_n02883344_-1_gray.jpg,foreground,left,Experiments/experiment_40/268.jpg,Experiments/experiment_40/269.jpg,Experiments/experiment_40/270.jpg,Experiments/experiment_40/271.jpg,530,1,2023-04-03_18h34.14.930,Occlusion_Psychophysics,2022.1.4,Win32,60.38282712,,,right,"[""right""]",[0.8046000000238109],False,,0.0,0.0,67.0,67.0,67.0,1.0,,,,,,
,,,,,,,,,,,,,,,,,,,,,0.05,,,,,,,,,,Stimuli/psy_flexible_rotation_30_objects_occ0.7_0.9s/images/train/n03001627_-2/n04405907_8/img_wood_chair_stylized_tv_2006_gray.jpg,n03001627_-2,n04405907_8,flexible,0.787993,n04405907_9,Stimuli/psy_fixed_rotation_30_objects_occ0.7_0.9s/images/train/n02883344_-1/n04405907_9/img_woven_box_vray_004_2015-3_gray.png,random,fixed,n03001627_-2,n02933112_-2,Stimuli/canonical view 2/img_n03001627_-2_gray.jpg,Stimuli/canonical view 2/img_n02933112_-2_gray.jpg,random,right,Experiments/experiment_40/272.jpg,Experiments/experiment_40/273.jpg,Experiments/experiment_40/274.jpg,Experiments/experiment_40/275.jpg,530,1,2023-04-03_18h34.14.930,Occlusion_Psychophysics,2022.1.4,Win32,60.38282712,,,right,"[""right""]",[0.7853000000714019],False,,0.0,0.0,68.0,68.0,68.0,1.0,,,,,,
,,,,,,,,,,,,,,,,,,,,,0.025,,,,,,,,,,Stimuli/psy_fixed_rotation_30_objects_occ0.7_0.9s/images/train/n02818832_0/n02828884_4/img_b03_the_sofa_and_chair_company_-_stanley_bed_2014_b05_c-5_classic_series_bench-2012_2004_gray.jpg,n02818832_0,n02828884_4,fixed,0.803312,n04379243_-7,Stimuli/psy_fixed_rotation_30_objects_occ0.7_0.9s/images/train/n02828884_4/n04379243_-7/img_b05_c-5_classic_series_bench-2012_quatre_dining_table_2001-3_gray.png,random,fixed,n02818832_0,n02828884_9,Stimuli/canonical view 2/img_n02818832_0_gray.jpg,Stimuli/canonical view 2/img_n02828884_9_gray.jpg,random,left,Experiments/experiment_40/276.jpg,Experiments/experiment_40/277.jpg,Experiments/experiment_40/278.jpg,Experiments/experiment_40/279.jpg,530,1,2023-04-03_18h34.14.930,Occlusion_Psychophysics,2022.1.4,Win32,60.38282712,,,right,"[""right""]",[1.022100000024011],True,left,1.0,0.0,69.0,69.0,69.0,1.0,0.7168,,,,,
,,,,,,,,,,,,,,,,,,,,,0.05,,,,,,,,,,Stimuli/psy_flexible_rotation_30_objects_occ0.7_0.9s/images/train/n02883344_0/n04379243_0/img_b03_box_17th_c._monastery_dining_table_2010_2010_gray.jpg,n02883344_0,n04379243_0,flexible,0.704864,n02818832_3,Stimuli/psy_flexible_rotation_30_objects_occ0.7_0.9s/images/train/n04405907_9/n02818832_3/img_vray_004_b05_ccm_contemporary_bed_max2013_2009-3_gray.png,random,flexible,n02883344_0,n04379243_0,Stimuli/canonical view 2/img_n02883344_0_gray.jpg,Stimuli/canonical view 2/img_n04379243_0_gray.jpg,foreground,left,Experiments/experiment_40/280.jpg,Experiments/experiment_40/281.jpg,Experiments/experiment_40/282.jpg,Experiments/experiment_40/283.jpg,530,1,2023-04-03_18h34.14.930,Occlusion_Psychophysics,2022.1.4,Win32,60.38282712,,,left,"[""right""]",[1.5374000000952037],False,,0.0,0.0,70.0,70.0,70.0,1.0,,,,,,
,,,,,,,,,,,,,,,,,,,,,0.025,,,,,,,,,,Stimuli/psy_flexible_rotation_30_objects_occ0.7_0.9s/images/train/n02828884_4/n04256520_9/img_b05_c-5_classic_series_bench-2012_napoleon_iii_sofa_2001_gray.jpg,n02828884_4,n04256520_9,flexible,0.73937,n04256520_9,Stimuli/psy_flexible_rotation_30_objects_occ0.7_0.9s/images/train/n02828884_4/n04256520_9/img_b05_c-5_classic_series_bench-2012_napoleon_iii_sofa_2001-3_gray.png,foreground,same as foreground,n02828884_4,n04405907_9,Stimuli/canonical view 2/img_n02828884_4_gray.jpg,Stimuli/canonical view 2/img_n04405907_9_gray.jpg,random,right,Experiments/experiment_40/284.jpg,Experiments/experiment_40/285.jpg,Experiments/experiment_40/286.jpg,Experiments/experiment_40/287.jpg,530,1,2023-04-03_18h34.14.930,Occlusion_Psychophysics,2022.1.4,Win32,60.38282712,,,right,"[""right""]",[1.2447999999521926],False,,0.0,0.0,71.0,71.0,71.0,1.0,,,,,,
,,,,,,,,,,,,,,,,,,,,,0.025,,,,,,,,,,Stimuli/psy_flexible_rotation_30_objects_occ0.7_0.9s/images/train/n02818832_0/n04379243_-7/img_b03_the_sofa_and_chair_company_-_stanley_bed_2014_quatre_dining_table_2012_gray.jpg,n02818832_0,n04379243_-7,flexible,0.708322,n04379243_-7,Stimuli/psy_flexible_rotation_30_objects_occ0.7_0.9s/images/train/n02818832_0/n04379243_-7/img_b03_the_sofa_and_chair_company_-_stanley_bed_2014_quatre_dining_table_2012-3_gray.png,foreground,same as foreground,n02818832_0,n04379243_-7,Stimuli/canonical view 2/img_n02818832_0_gray.jpg,Stimuli/canonical view 2/img_n04379243_-7_gray.jpg,foreground,right,Experiments/experiment_40/288.jpg,Experiments/experiment_40/289.jpg,Experiments/experiment_40/290.jpg,Experiments/experiment_40/291.jpg,530,1,2023-04-03_18h34.14.930,Occlusion_Psychophysics,2022.1.4,Win32,60.38282712,,,right,"[""right""]",[0.7481000000238964],False,,0.0,0.0,72.0,72.0,72.0,1.0,,,,,,
,,,,,,,,,,,,,,,,,,,,,0.025,,,,,,,,,,Stimuli/psy_flexible_rotation_30_objects_occ0.7_0.9s/images/train/n02883344_-1/n04379243_-7/img_woven_box_quatre_dining_table_2011_gray.jpg,n02883344_-1,n04379243_-7,flexible,0.726663,n04256520_4,Stimuli/psy_flexible_rotation_30_objects_occ0.7_0.9s/images/train/n02883344_15/n04256520_4/img_microwave_box_club_house_italia_nautilus_sofa_2001-3_gray.png,random,flexible,n02883344_-1,n04379243_-7,Stimuli/canonical view 2/img_n02883344_-1_gray.jpg,Stimuli/canonical view 2/img_n04379243_-7_gray.jpg,foreground,left,Experiments/experiment_40/292.jpg,Experiments/experiment_40/293.jpg,Experiments/experiment_40/294.jpg,Experiments/experiment_40/295.jpg,530,1,2023-04-03_18h34.14.930,Occlusion_Psychophysics,2022.1.4,Win32,60.38282712,,,left,"[""left""]",[1.0878999999761163],True,right,1.0,0.0,73.0,73.0,73.0,1.0,0.8497,,,,,
,,,,,,,,,,,,,,,,,,,,,0.025,,,,,,,,,,Stimuli/psy_flexible_rotation_30_objects_occ0.7_0.9s/images/train/n04256520_4/n04256520_9/img_club_house_italia_nautilus_sofa_napoleon_iii_sofa_2002_gray.jpg,n04256520_4,n04256520_9,flexible,0.770752,n04405907_8,Stimuli/psy_flexible_rotation_30_objects_occ0.7_0.9s/images/train/n04379243_0/n04405907_8/img_17th_c._monastery_dining_table_2010_stylized_tv_2009-3_gray.png,random,flexible,n04256520_4,n04256520_9,Stimuli/canonical view 2/img_n04256520_4_gray.jpg,Stimuli/canonical view 2/img_n04256520_9_gray.jpg,foreground,left,Experiments/experiment_40/296.jpg,Experiments/experiment_40/297.jpg,Experiments/experiment_40/298.jpg,Experiments/experiment_40/299.jpg,530,1,2023-04-03_18h34.14.930,Occlusion_Psychophysics,2022.1.4,Win32,60.38282712,,,left,"[""right""]",[0.7568000000715074],False,,0.0,0.0,74.0,74.0,74.0,1.0,,,,,,
,,,,,,,,,,,,,,,,,,,,,0.05,,,,,,,,,,Stimuli/psy_fixed_rotation_30_objects_occ0.7_0.9s/images/train/n02883344_0/n04379243_0/img_b03_box_17th_c._monastery_dining_table_2010_2004_gray.jpg,n02883344_0,n04379243_0,fixed,0.793329,n04405907_9,Stimuli/psy_flexible_rotation_30_objects_occ0.7_0.9s/images/train/n03928116_0/n04405907_9/img_b02_piano_vray_004_2001-3_gray.png,random,flexible,n02883344_0,n02883344_15,Stimuli/canonical view 2/img_n02883344_0_gray.jpg,Stimuli/canonical view 2/img_n02883344_15_gray.jpg,random,left,Experiments/experiment_40/300.jpg,Experiments/experiment_40/301.jpg,Experiments/experiment_40/302.jpg,Experiments/experiment_40/303.jpg,530,1,2023-04-03_18h34.14.930,Occlusion_Psychophysics,2022.1.4,Win32,60.38282712,,,left,"[""left""]",[1.4588000000715056],False,,0.0,0.0,75.0,75.0,75.0,1.0,,,,,,
,,,,,,,,,,,,,,,,,,,,,0.025,,,,,,,,,,Stimuli/psy_fixed_rotation_30_objects_occ0.7_0.9s/images/train/n04256520_9/n02933112_-2/img_napoleon_iii_sofa_sink_base_white_wood_2001_gray.jpg,n04256520_9,n02933112_-2,fixed,0.702442,n02818832_0,Stimuli/psy_fixed_rotation_30_objects_occ0.7_0.9s/images/train/n04256520_4/n02818832_0/img_club_house_italia_nautilus_sofa_b03_the_sofa_and_chair_company_-_stanley_bed_2014_2005-3_gray.png,random,fixed,n04256520_9,n02933112_-18,Stimuli/canonical view 2/img_n04256520_9_gray.jpg,Stimuli/canonical view 2/img_n02933112_-18_gray.jpg,random,left,Experiments/experiment_40/304.jpg,Experiments/experiment_40/305.jpg,Experiments/experiment_40/306.jpg,Experiments/experiment_40/307.jpg,530,1,2023-04-03_18h34.14.930,Occlusion_Psychophysics,2022.1.4,Win32,60.38282712,,,right,"[""left""]",[0.7884000000954074],False,,0.0,0.0,76.0,76.0,76.0,1.0,,,,,,
,,,,,,,,,,,,,,,,,,,,,0.05,,,,,,,,,,Stimuli/psy_fixed_rotation_30_objects_occ0.7_0.9s/images/train/n02818832_9/n02933112_-18/img_bed01_blue_cgaxis_models_48_26_vray_composite_2015_gray.jpg,n02818832_9,n02933112_-18,fixed,0.795176,n03928116_0,Stimuli/psy_fixed_rotation_30_objects_occ0.7_0.9s/images/train/n02818832_3/n03928116_0/img_b05_ccm_contemporary_bed_max2013_b02_piano_2007-3_gray.png,random,fixed,n02818832_9,n04256520_5,Stimuli/canonical view 2/img_n02818832_9_gray.jpg,Stimuli/canonical view 2/img_n04256520_5_gray.jpg,random,left,Experiments/experiment_40/308.jpg,Experiments/experiment_40/309.jpg,Experiments/experiment_40/310.jpg,Experiments/experiment_40/311.jpg,530,1,2023-04-03_18h34.14.930,Occlusion_Psychophysics,2022.1.4,Win32,60.38282712,,,left,"[""left""]",[0.7374999999999545],False,,0.0,0.0,77.0,77.0,77.0,1.0,,,,,,
,,,,,,,,,,,,,,,,,,,,,0.05,,,,,,,,,,Stimuli/psy_fixed_rotation_30_objects_occ0.7_0.9s/images/train/n02818832_0/n02933112_4/img_b03_the_sofa_and_chair_company_-_stanley_bed_2014_buffet_2005_gray.jpg,n02818832_0,n02933112_4,fixed,0.839807,n02933112_4,Stimuli/psy_fixed_rotation_30_objects_occ0.7_0.9s/images/train/n02818832_0/n02933112_4/img_b03_the_sofa_and_chair_company_-_stanley_bed_2014_buffet_2005-3_gray.png,foreground,same as foreground,n02818832_0,n02818832_3,Stimuli/canonical view 2/img_n02818832_0_gray.jpg,Stimuli/canonical view 2/img_n02818832_3_gray.jpg,random,left,Experiments/experiment_40/312.jpg,Experiments/experiment_40/313.jpg,Experiments/experiment_40/314.jpg,Experiments/experiment_40/315.jpg,530,1,2023-04-03_18h34.14.930,Occlusion_Psychophysics,2022.1.4,Win32,60.38282712,,,left,"[""right""]",[1.7665999999046562],False,,0.0,0.0,78.0,78.0,78.0,1.0,,,,,,
,,,,,,,,,,,,,,,,,,,,,0.05,,,,,,,,,,Stimuli/psy_fixed_rotation_30_objects_occ0.7_0.9s/images/train/n04256520_9/n02818832_0/img_napoleon_iii_sofa_b03_the_sofa_and_chair_company_-_stanley_bed_2014_2012_gray.jpg,n04256520_9,n02818832_0,fixed,0.892817,n03928116_0,Stimuli/psy_flexible_rotation_30_objects_occ0.7_0.9s/images/train/n04070727_5/n03928116_0/img_b05_db_apps_tech_06_13_composite_b02_piano_2005-3_gray.png,random,flexible,n04256520_9,n02818832_0,Stimuli/canonical view 2/img_n04256520_9_gray.jpg,Stimuli/canonical view 2/img_n02818832_0_gray.jpg,foreground,left,Experiments/experiment_40/316.jpg,Experiments/experiment_40/317.jpg,Experiments/experiment_40/318.jpg,Experiments/experiment_40/319.jpg,530,1,2023-04-03_18h34.14.930,Occlusion_Psychophysics,2022.1.4,Win32,60.38282712,,,left,"[""left""]",[0.9739999999999327],False,,0.0,0.0,79.0,79.0,79.0,1.0,,,,,,
,,,,,,,,,,,,,,,,,,,,,0.05,,,,,,,,,,Stimuli/psy_flexible_rotation_30_objects_occ0.7_0.9s/images/train/n04405907_8/n04405907_5/img_stylized_tv_samsung_40_uhd_smart_tv_2011_2014_gray.jpg,n04405907_8,n04405907_5,flexible,0.778008,n03001627_9,Stimuli/psy_fixed_rotation_30_objects_occ0.7_0.9s/images/train/n04405907_8/n03001627_9/img_stylized_tv_chair_eames_plastic_armchair_2005-3_gray.png,random,fixed,n04405907_8,n03928116_0,Stimuli/canonical view 2/img_n04405907_8_gray.jpg,Stimuli/canonical view 2/img_n03928116_0_gray.jpg,random,right,Experiments/experiment_40/320.jpg,Experiments/experiment_40/321.jpg,Experiments/experiment_40/322.jpg,Experiments/experiment_40/323.jpg,530,1,2023-04-03_18h34.14.930,Occlusion_Psychophysics,2022.1.4,Win32,60.38282712,,,left,"[""left""]",[1.1342999999521908],False,,0.0,0.0,80.0,80.0,80.0,1.0,,,,,,
,,,,,,,,,,,,,,,,,,,,,0.05,,,,,,,,,,Stimuli/psy_fixed_rotation_30_objects_occ0.7_0.9s/images/train/n04379243_-7/n04256520_4/img_quatre_dining_table_club_house_italia_nautilus_sofa_2003_gray.jpg,n04379243_-7,n04256520_4,fixed,0.874928,n04256520_4,Stimuli/psy_fixed_rotation_30_objects_occ0.7_0.9s/images/train/n04379243_-7/n04256520_4/img_quatre_dining_table_club_house_italia_nautilus_sofa_2003-3_gray.png,foreground,same as foreground,n04379243_-7,n04256520_4,Stimuli/canonical view 2/img_n04379243_-7_gray.jpg,Stimuli/canonical view 2/img_n04256520_4_gray.jpg,foreground,right,Experiments/experiment_40/324.jpg,Experiments/experiment_40/325.jpg,Experiments/experiment_40/326.jpg,Experiments/experiment_40/327.jpg,530,1,2023-04-03_18h34.14.930,Occlusion_Psychophysics,2022.1.4,Win32,60.38282712,,,right,"[""left""]",[1.1786999999283125],False,,0.0,0.0,81.0,81.0,81.0,1.0,,,,,,
,,,,,,,,,,,,,,,,,,,,,0.025,,,,,,,,,,Stimuli/psy_fixed_rotation_30_objects_occ0.7_0.9s/images/train/n02828884_3/n04256520_4/img_b04_wood_metal_park_bench_club_house_italia_nautilus_sofa_2009_gray.jpg,n02828884_3,n04256520_4,fixed,0.718653,n04256520_4,Stimuli/psy_fixed_rotation_30_objects_occ0.7_0.9s/images/train/n02828884_3/n04256520_4/img_b04_wood_metal_park_bench_club_house_italia_nautilus_sofa_2009-3_gray.png,foreground,same as foreground,n02828884_3,n03001627_-2,Stimuli/canonical view 2/img_n02828884_3_gray.jpg,Stimuli/canonical view 2/img_n03001627_-2_gray.jpg,random,left,Experiments/experiment_40/328.jpg,Experiments/experiment_40/329.jpg,Experiments/experiment_40/330.jpg,Experiments/experiment_40/331.jpg,530,1,2023-04-03_18h34.14.930,Occlusion_Psychophysics,2022.1.4,Win32,60.38282712,,,left,"[""left""]",[0.8033999999761363],False,,0.0,0.0,82.0,82.0,82.0,1.0,,,,,,
,,,,,,,,,,,,,,,,,,,,,0.025,,,,,,,,,,Stimuli/psy_flexible_rotation_30_objects_occ0.7_0.9s/images/train/n04405907_5/n02828884_3/img_samsung_40_uhd_smart_tv_2011_b04_wood_metal_park_bench_2012_gray.jpg,n04405907_5,n02828884_3,flexible,0.820426,n04256520_9,Stimuli/psy_fixed_rotation_30_objects_occ0.7_0.9s/images/train/n02828884_4/n04256520_9/img_b05_c-5_classic_series_bench-2012_napoleon_iii_sofa_2000-3_gray.png,random,fixed,n04405907_5,n03928116_0,Stimuli/canonical view 2/img_n04405907_5_gray.jpg,Stimuli/canonical view 2/img_n03928116_0_gray.jpg,random,left,Experiments/experiment_40/332.jpg,Experiments/experiment_40/333.jpg,Experiments/experiment_40/334.jpg,Experiments/experiment_40/335.jpg,530,1,2023-04-03_18h34.14.930,Occlusion_Psychophysics,2022.1.4,Win32,60.38282712,,,right,"[""right""]",[1.0674999999998818],False,,0.0,0.0,83.0,83.0,83.0,1.0,,,,,,
,,,,,,,,,,,,,,,,,,,,,0.05,,,,,,,,,,Stimuli/psy_fixed_rotation_30_objects_occ0.7_0.9s/images/train/n02933112_4/n04379243_-7/img_buffet_quatre_dining_table_2009_gray.jpg,n02933112_4,n04379243_-7,fixed,0.719422,n04379243_-7,Stimuli/psy_fixed_rotation_30_objects_occ0.7_0.9s/images/train/n02933112_4/n04379243_-7/img_buffet_quatre_dining_table_2009-3_gray.png,foreground,same as foreground,n02933112_4,n04379243_-7,Stimuli/canonical view 2/img_n02933112_4_gray.jpg,Stimuli/canonical view 2/img_n04379243_-7_gray.jpg,foreground,left,Experiments/experiment_40/336.jpg,Experiments/experiment_40/337.jpg,Experiments/experiment_40/338.jpg,Experiments/experiment_40/339.jpg,530,1,2023-04-03_18h34.14.930,Occlusion_Psychophysics,2022.1.4,Win32,60.38282712,,,left,"[""right""]",[0.9296999999285163],False,,0.0,0.0,84.0,84.0,84.0,1.0,,,,,,
,,,,,,,,,,,,,,,,,,,,,0.025,,,,,,,,,,Stimuli/psy_flexible_rotation_30_objects_occ0.7_0.9s/images/train/n02933112_-18/n03001627_8/img_cgaxis_models_48_26_vray_composite_chair_billiani_doll_2015_gray.jpg,n02933112_-18,n03001627_8,flexible,0.711576,n03001627_8,Stimuli/psy_flexible_rotation_30_objects_occ0.7_0.9s/images/train/n02933112_-18/n03001627_8/img_cgaxis_models_48_26_vray_composite_chair_billiani_doll_2015-3_gray.png,foreground,same as foreground,n02933112_-18,n04379243_-7,Stimuli/canonical view 2/img_n02933112_-18_gray.jpg,Stimuli/canonical view 2/img_n04379243_-7_gray.jpg,random,left,Experiments/experiment_40/340.jpg,Experiments/experiment_40/341.jpg,Experiments/experiment_40/342.jpg,Experiments/experiment_40/343.jpg,530,1,2023-04-03_18h34.14.930,Occlusion_Psychophysics,2022.1.4,Win32,60.38282712,,,right,"[""right""]",[0.6743999999760035],False,,0.0,0.0,85.0,85.0,85.0,1.0,,,,,,
,,,,,,,,,,,,,,,,,,,,,0.025,,,,,,,,,,Stimuli/psy_flexible_rotation_30_objects_occ0.7_0.9s/images/train/n04405907_8/n02883344_-1/img_stylized_tv_woven_box_2007_gray.jpg,n04405907_8,n02883344_-1,flexible,0.847304,n04256520_9,Stimuli/psy_flexible_rotation_30_objects_occ0.7_0.9s/images/train/n04405907_8/n04256520_9/img_stylized_tv_napoleon_iii_sofa_2010-3_gray.png,random,flexible,n04405907_8,n03001627_-2,Stimuli/canonical view 2/img_n04405907_8_gray.jpg,Stimuli/canonical view 2/img_n03001627_-2_gray.jpg,random,left,Experiments/experiment_40/344.jpg,Experiments/experiment_40/345.jpg,Experiments/experiment_40/346.jpg,Experiments/experiment_40/347.jpg,530,1,2023-04-03_18h34.14.930,Occlusion_Psychophysics,2022.1.4,Win32,60.38282712,,,right,"[""right""]",[1.1513000000716147],False,,0.0,0.0,86.0,86.0,86.0,1.0,,,,,,
,,,,,,,,,,,,,,,,,,,,,0.025,,,,,,,,,,Stimuli/psy_flexible_rotation_30_objects_occ0.7_0.9s/images/train/n03928116_10/n02818832_9/img_ydp_103_r_2012__vray_bed01_blue_2007_gray.jpg,n03928116_10,n02818832_9,flexible,0.8188,n02883344_15,Stimuli/psy_flexible_rotation_30_objects_occ0.7_0.9s/images/train/n02933112_4/n02883344_15/img_buffet_microwave_box_2013-3_gray.png,random,flexible,n03928116_10,n04256520_9,Stimuli/canonical view 2/img_n03928116_10_gray.jpg,Stimuli/canonical view 2/img_n04256520_9_gray.jpg,random,left,Experiments/experiment_40/348.jpg,Experiments/experiment_40/349.jpg,Experiments/experiment_40/350.jpg,Experiments/experiment_40/351.jpg,530,1,2023-04-03_18h34.14.930,Occlusion_Psychophysics,2022.1.4,Win32,60.38282712,,,left,"[""left""]",[1.3360000000000127],False,,0.0,0.0,87.0,87.0,87.0,1.0,,,,,,
,,,,,,,,,,,,,,,,,,,,,0.05,,,,,,,,,,Stimuli/psy_flexible_rotation_30_objects_occ0.7_0.9s/images/train/n04405907_5/n04405907_9/img_samsung_40_uhd_smart_tv_2011_vray_004_2005_gray.jpg,n04405907_5,n04405907_9,flexible,0.785326,n04405907_9,Stimuli/psy_flexible_rotation_30_objects_occ0.7_0.9s/images/train/n04405907_5/n04405907_9/img_samsung_40_uhd_smart_tv_2011_vray_004_2005-3_gray.png,foreground,same as foreground,n04405907_5,n03928116_10,Stimuli/canonical view 2/img_n04405907_5_gray.jpg,Stimuli/canonical view 2/img_n03928116_10_gray.jpg,random,right,Experiments/experiment_40/352.jpg,Experiments/experiment_40/353.jpg,Experiments/experiment_40/354.jpg,Experiments/experiment_40/355.jpg,530,1,2023-04-03_18h34.14.930,Occlusion_Psychophysics,2022.1.4,Win32,60.38282712,,,left,"[""left""]",[0.7627000000475164],False,,0.0,0.0,88.0,88.0,88.0,1.0,,,,,,
,,,,,,,,,,,,,,,,,,,,,0.05,,,,,,,,,,Stimuli/psy_flexible_rotation_30_objects_occ0.7_0.9s/images/train/n04256520_4/n02828884_4/img_club_house_italia_nautilus_sofa_b05_c-5_classic_series_bench-2012_2002_gray.jpg,n04256520_4,n02828884_4,flexible,0.702509,n02818832_3,Stimuli/psy_fixed_rotation_30_objects_occ0.7_0.9s/images/train/n02818832_0/n02818832_3/img_b03_the_sofa_and_chair_company_-_stanley_bed_2014_b05_ccm_contemporary_bed_max2013_2000-3_gray.png,random,fixed,n04256520_4,n02828884_4,Stimuli/canonical view 2/img_n04256520_4_gray.jpg,Stimuli/canonical view 2/img_n02828884_4_gray.jpg,foreground,left,Experiments/experiment_40/356.jpg,Experiments/experiment_40/357.jpg,Experiments/experiment_40/358.jpg,Experiments/experiment_40/359.jpg,530,1,2023-04-03_18h34.14.930,Occlusion_Psychophysics,2022.1.4,Win32,60.38282712,,,left,"[""left""]",[0.9119000000953292],False,,0.0,0.0,89.0,89.0,89.0,1.0,,,,,,
,,,,,,,,,,,,,,,,,,,,,0.05,,,,,,,,,,Stimuli/psy_flexible_rotation_30_objects_occ0.7_0.9s/images/train/n04256520_4/n04405907_5/img_club_house_italia_nautilus_sofa_samsung_40_uhd_smart_tv_2011_2014_gray.jpg,n04256520_4,n04405907_5,flexible,0.815891,n04256520_5,Stimuli/psy_flexible_rotation_30_objects_occ0.7_0.9s/images/train/n02883344_0/n04256520_5/img_b03_box_meridiani_belmondo_bench_sofa_2000-3_gray.png,random,flexible,n04256520_4,n04405907_5,Stimuli/canonical view 2/img_n04256520_4_gray.jpg,Stimuli/canonical view 2/img_n04405907_5_gray.jpg,foreground,left,Experiments/experiment_40/360.jpg,Experiments/experiment_40/361.jpg,Experiments/experiment_40/362.jpg,Experiments/experiment_40/363.jpg,530,1,2023-04-03_18h34.14.930,Occlusion_Psychophysics,2022.1.4,Win32,60.38282712,,,right,"[""right""]",[1.3423000000716456],False,,0.0,0.0,90.0,90.0,90.0,1.0,,,,,,
,,,,,,,,,,,,,,,,,,,,,0.025,,,,,,,,,,Stimuli/psy_flexible_rotation_30_objects_occ0.7_0.9s/images/train/n04379243_8/n04379243_-7/img_glass_table_quatre_dining_table_2002_gray.jpg,n04379243_8,n04379243_-7,flexible,0.709287,n02818832_0,Stimuli/psy_fixed_rotation_30_objects_occ0.7_0.9s/images/train/n02818832_3/n02818832_0/img_b05_ccm_contemporary_bed_max2013_b03_the_sofa_and_chair_company_-_stanley_bed_2014_2015-3_gray.png,random,fixed,n04379243_8,n04379243_-7,Stimuli/canonical view 2/img_n04379243_8_gray.jpg,Stimuli/canonical view 2/img_n04379243_-7_gray.jpg,foreground,left,Experiments/experiment_40/364.jpg,Experiments/experiment_40/365.jpg,Experiments/experiment_40/366.jpg,Experiments/experiment_40/367.jpg,530,1,2023-04-03_18h34.14.930,Occlusion_Psychophysics,2022.1.4,Win32,60.38282712,,,right,"[""right""]",[0.6372000000476419],False,,0.0,0.0,91.0,91.0,91.0,1.0,,,,,,
,,,,,,,,,,,,,,,,,,,,,0.05,,,,,,,,,,Stimuli/psy_fixed_rotation_30_objects_occ0.7_0.9s/images/train/n04256520_9/n02883344_0/img_napoleon_iii_sofa_b03_box_2006_gray.jpg,n04256520_9,n02883344_0,fixed,0.804338,n04405907_9,Stimuli/psy_flexible_rotation_30_objects_occ0.7_0.9s/images/train/n03928116_0/n04405907_9/img_b02_piano_vray_004_2011-3_gray.png,random,flexible,n04256520_9,n02883344_0,Stimuli/canonical view 2/img_n04256520_9_gray.jpg,Stimuli/canonical view 2/img_n02883344_0_gray.jpg,foreground,right,Experiments/experiment_40/368.jpg,Experiments/experiment_40/369.jpg,Experiments/experiment_40/370.jpg,Experiments/experiment_40/371.jpg,530,1,2023-04-03_18h34.14.930,Occlusion_Psychophysics,2022.1.4,Win32,60.38282712,,,left,"[""left""]",[1.3529000000953602],False,,0.0,0.0,92.0,92.0,92.0,1.0,,,,,,
,,,,,,,,,,,,,,,,,,,,,0.05,,,,,,,,,,Stimuli/psy_flexible_rotation_30_objects_occ0.7_0.9s/images/train/n04405907_9/n04256520_5/img_vray_004_meridiani_belmondo_bench_sofa_2010_gray.jpg,n04405907_9,n04256520_5,flexible,0.770324,n04256520_5,Stimuli/psy_flexible_rotation_30_objects_occ0.7_0.9s/images/train/n04405907_9/n04256520_5/img_vray_004_meridiani_belmondo_bench_sofa_2010-3_gray.png,foreground,same as foreground,n04405907_9,n04256520_5,Stimuli/canonical view 2/img_n04405907_9_gray.jpg,Stimuli/canonical view 2/img_n04256520_5_gray.jpg,foreground,left,Experiments/experiment_40/372.jpg,Experiments/experiment_40/373.jpg,Experiments/experiment_40/374.jpg,Experiments/experiment_40/375.jpg,530,1,2023-04-03_18h34.14.930,Occlusion_Psychophysics,2022.1.4,Win32,60.38282712,,,left,"[""right""]",[0.8188000000714055],False,,0.0,0.0,93.0,93.0,93.0,1.0,,,,,,
,,,,,,,,,,,,,,,,,,,,,0.05,,,,,,,,,,Stimuli/psy_flexible_rotation_30_objects_occ0.7_0.9s/images/train/n02883344_-1/n02818832_3/img_woven_box_b05_ccm_contemporary_bed_max2013_2007_gray.jpg,n02883344_-1,n02818832_3,flexible,0.879328,n04256520_9,Stimuli/psy_flexible_rotation_30_objects_occ0.7_0.9s/images/train/n04379243_0/n04256520_9/img_17th_c._monastery_dining_table_2010_napoleon_iii_sofa_2008-3_gray.png,random,flexible,n02883344_-1,n02818832_3,Stimuli/canonical view 2/img_n02883344_-1_gray.jpg,Stimuli/canonical view 2/img_n02818832_3_gray.jpg,foreground,right,Experiments/experiment_40/376.jpg,Experiments/experiment_40/377.jpg,Experiments/experiment_40/378.jpg,Experiments/experiment_40/379.jpg,530,1,2023-04-03_18h34.14.930,Occlusion_Psychophysics,2022.1.4,Win32,60.38282712,,,right,"[""left""]",[0.8189000000952547],False,,0.0,0.0,94.0,94.0,94.0,1.0,,,,,,
,,,,,,,,,,,,,,,,,,,,,0.025,,,,,,,,,,Stimuli/psy_fixed_rotation_30_objects_occ0.7_0.9s/images/train/n03001627_9/n04405907_5/img_chair_eames_plastic_armchair_samsung_40_uhd_smart_tv_2011_2004_gray.jpg,n03001627_9,n04405907_5,fixed,0.860124,n04405907_5,Stimuli/psy_fixed_rotation_30_objects_occ0.7_0.9s/images/train/n03001627_9/n04405907_5/img_chair_eames_plastic_armchair_samsung_40_uhd_smart_tv_2011_2004-3_gray.png,foreground,same as foreground,n03001627_9,n02933112_-18,Stimuli/canonical view 2/img_n03001627_9_gray.jpg,Stimuli/canonical view 2/img_n02933112_-18_gray.jpg,random,left,Experiments/experiment_40/380.jpg,Experiments/experiment_40/381.jpg,Experiments/experiment_40/382.jpg,Experiments/experiment_40/383.jpg,530,1,2023-04-03_18h34.14.930,Occlusion_Psychophysics,2022.1.4,Win32,60.38282712,,,left,"[""left""]",[0.8882000000476182],False,,0.0,0.0,95.0,95.0,95.0,1.0,,,,,,
,,,,,,,,,,,,,,,,,,,,,0.025,,,,,,,,,,Stimuli/psy_fixed_rotation_30_objects_occ0.7_0.9s/images/train/n03001627_-2/n04405907_8/img_wood_chair_stylized_tv_2002_gray.jpg,n03001627_-2,n04405907_8,fixed,0.730041,n02828884_3,Stimuli/psy_fixed_rotation_30_objects_occ0.7_0.9s/images/train/n02883344_15/n02828884_3/img_microwave_box_b04_wood_metal_park_bench_2011-3_gray.png,random,fixed,n03001627_-2,n04405907_8,Stimuli/canonical view 2/img_n03001627_-2_gray.jpg,Stimuli/canonical view 2/img_n04405907_8_gray.jpg,foreground,right,Experiments/experiment_40/384.jpg,Experiments/experiment_40/385.jpg,Experiments/experiment_40/386.jpg,Experiments/experiment_40/387.jpg,530,1,2023-04-03_18h34.14.930,Occlusion_Psychophysics,2022.1.4,Win32,60.38282712,,,left,"[""right""]",[0.7437000000475109],False,,0.0,0.0,96.0,96.0,96.0,1.0,,,,,,
,,,,,,,,,,,,,,,,,,,,,0.025,,,,,,,,,,Stimuli/psy_fixed_rotation_30_objects_occ0.7_0.9s/images/train/n04405907_9/n02828884_3/img_vray_004_b04_wood_metal_park_bench_2002_gray.jpg,n04405907_9,n02828884_3,fixed,0.737001,n02933112_4,Stimuli/psy_flexible_rotation_30_objects_occ0.7_0.9s/images/train/n02933112_-18/n02933112_4/img_cgaxis_models_48_26_vray_composite_buffet_2004-3_gray.png,random,flexible,n04405907_9,n04379243_8,Stimuli/canonical view 2/img_n04405907_9_gray.jpg,Stimuli/canonical view 2/img_n04379243_8_gray.jpg,random,left,Experiments/experiment_40/388.jpg,Experiments/experiment_40/389.jpg,Experiments/experiment_40/390.jpg,Experiments/experiment_40/391.jpg,530,1,2023-04-03_18h34.14.930,Occlusion_Psychophysics,2022.1.4,Win32,60.38282712,,,left,"[""left""]",[0.6742999999521544],False,,0.0,0.0,97.0,97.0,97.0,1.0,,,,,,
,,,,,,,,,,,,,,,,,,,,,0.025,,,,,,,,,,Stimuli/psy_fixed_rotation_30_objects_occ0.7_0.9s/images/train/n04405907_5/n02828884_3/img_samsung_40_uhd_smart_tv_2011_b04_wood_metal_park_bench_2005_gray.jpg,n04405907_5,n02828884_3,fixed,0.812144,n02828884_3,Stimuli/psy_fixed_rotation_30_objects_occ0.7_0.9s/images/train/n04405907_5/n02828884_3/img_samsung_40_uhd_smart_tv_2011_b04_wood_metal_park_bench_2005-3_gray.png,foreground,same as foreground,n04405907_5,n02828884_3,Stimuli/canonical view 2/img_n04405907_5_gray.jpg,Stimuli/canonical view 2/img_n02828884_3_gray.jpg,foreground,left,Experiments/experiment_40/392.jpg,Experiments/experiment_40/393.jpg,Experiments/experiment_40/394.jpg,Experiments/experiment_40/395.jpg,530,1,2023-04-03_18h34.14.930,Occlusion_Psychophysics,2022.1.4,Win32,60.38282712,,,left,"[""left""]",[0.7893999999760126],False,,0.0,0.0,98.0,98.0,98.0,1.0,,,,,,
,,,,,,,,,,,,,,,,,,,,,0.05,,,,,,,,,,Stimuli/psy_fixed_rotation_30_objects_occ0.7_0.9s/images/train/n02933112_-18/n02883344_-1/img_cgaxis_models_48_26_vray_composite_woven_box_2013_gray.jpg,n02933112_-18,n02883344_-1,fixed,0.747895,n04405907_5,Stimuli/psy_fixed_rotation_30_objects_occ0.7_0.9s/images/train/n03001627_8/n04405907_5/img_chair_billiani_doll_samsung_40_uhd_smart_tv_2011_2013-3_gray.png,random,fixed,n02933112_-18,n02883344_-1,Stimuli/canonical view 2/img_n02933112_-18_gray.jpg,Stimuli/canonical view 2/img_n02883344_-1_gray.jpg,foreground,left,Experiments/experiment_40/396.jpg,Experiments/experiment_40/397.jpg,Experiments/experiment_40/398.jpg,Experiments/experiment_40/399.jpg,530,1,2023-04-03_18h34.14.930,Occlusion_Psychophysics,2022.1.4,Win32,60.38282712,,,right,"[""right""]",[1.0851000000238855],False,,0.0,0.0,99.0,99.0,99.0,1.0,,,,,,
,,,,,,,,,,,,,,,,,,,,,,,,,,,,,,,,,,,,,,,,,,,,,,,,,,530,1,2023-04-03_18h34.14.930,Occlusion_Psychophysics,2022.1.4,Win32,60.38282712,,,,,,,,,,,,,,,0.0,0.0,0.0,0.0,1.0
,,,,,,,,,,,,,,,,,,,,,0.025,,,,,,,,,,Stimuli/psy_flexible_rotation_30_objects_occ0.7_0.9s/images/train/n04405907_5/n02818832_0/img_samsung_40_uhd_smart_tv_2011_b03_the_sofa_and_chair_company_-_stanley_bed_2014_2012_gray.jpg,n04405907_5,n02818832_0,flexible,0.725932,n02818832_0,Stimuli/psy_flexible_rotation_30_objects_occ0.7_0.9s/images/train/n04405907_5/n02818832_0/img_samsung_40_uhd_smart_tv_2011_b03_the_sofa_and_chair_company_-_stanley_bed_2014_2012-3_gray.png,foreground,same as foreground,n04405907_5,n02818832_0,Stimuli/canonical view 2/img_n04405907_5_gray.jpg,Stimuli/canonical view 2/img_n02818832_0_gray.jpg,foreground,right,Experiments/experiment_40/400.jpg,Experiments/experiment_40/401.jpg,Experiments/experiment_40/402.jpg,Experiments/experiment_40/403.jpg,530,1,2023-04-03_18h34.14.930,Occlusion_Psychophysics,2022.1.4,Win32,60.38282712,,,left,"[""left""]",[0.5908999999760454],False,,0.0,0.0,0.0,0.0,0.0,1.0,,,,,,
,,,,,,,,,,,,,,,,,,,,,0.05,,,,,,,,,,Stimuli/psy_flexible_rotation_30_objects_occ0.7_0.9s/images/train/n02828884_3/n04256520_4/img_b04_wood_metal_park_bench_club_house_italia_nautilus_sofa_2012_gray.jpg,n02828884_3,n04256520_4,flexible,0.767379,n02933112_-2,Stimuli/psy_flexible_rotation_30_objects_occ0.7_0.9s/images/train/n02933112_-18/n02933112_-2/img_cgaxis_models_48_26_vray_composite_sink_base_white_wood_2009-3_gray.png,random,flexible,n02828884_3,n02818832_0,Stimuli/canonical view 2/img_n02828884_3_gray.jpg,Stimuli/canonical view 2/img_n02818832_0_gray.jpg,random,left,Experiments/experiment_40/404.jpg,Experiments/experiment_40/405.jpg,Experiments/experiment_40/406.jpg,Experiments/experiment_40/407.jpg,530,1,2023-04-03_18h34.14.930,Occlusion_Psychophysics,2022.1.4,Win32,60.38282712,,,left,"[""left""]",[0.8016000000236545],False,,0.0,0.0,1.0,1.0,1.0,1.0,,,,,,
,,,,,,,,,,,,,,,,,,,,,0.05,,,,,,,,,,Stimuli/psy_fixed_rotation_30_objects_occ0.7_0.9s/images/train/n02828884_4/n04379243_8/img_b05_c-5_classic_series_bench-2012_glass_table_2002_gray.jpg,n02828884_4,n04379243_8,fixed,0.828119,n04379243_8,Stimuli/psy_fixed_rotation_30_objects_occ0.7_0.9s/images/train/n02828884_4/n04379243_8/img_b05_c-5_classic_series_bench-2012_glass_table_2002-3_gray.png,foreground,same as foreground,n02828884_4,n03001627_9,Stimuli/canonical view 2/img_n02828884_4_gray.jpg,Stimuli/canonical view 2/img_n03001627_9_gray.jpg,random,right,Experiments/experiment_40/408.jpg,Experiments/experiment_40/409.jpg,Experiments/experiment_40/410.jpg,Experiments/experiment_40/411.jpg,530,1,2023-04-03_18h34.14.930,Occlusion_Psychophysics,2022.1.4,Win32,60.38282712,,,left,"[""right""]",[1.4865000000002055],False,,0.0,0.0,2.0,2.0,2.0,1.0,,,,,,
,,,,,,,,,,,,,,,,,,,,,0.05,,,,,,,,,,Stimuli/psy_flexible_rotation_30_objects_occ0.7_0.9s/images/train/n02883344_-1/n02818832_0/img_woven_box_b03_the_sofa_and_chair_company_-_stanley_bed_2014_2011_gray.jpg,n02883344_-1,n02818832_0,flexible,0.730147,n02818832_0,Stimuli/psy_flexible_rotation_30_objects_occ0.7_0.9s/images/train/n02883344_-1/n02818832_0/img_woven_box_b03_the_sofa_and_chair_company_-_stanley_bed_2014_2011-3_gray.png,foreground,same as foreground,n02883344_-1,n03928116_0,Stimuli/canonical view 2/img_n02883344_-1_gray.jpg,Stimuli/canonical view 2/img_n03928116_0_gray.jpg,random,left,Experiments/experiment_40/412.jpg,Experiments/experiment_40/413.jpg,Experiments/experiment_40/414.jpg,Experiments/experiment_40/415.jpg,530,1,2023-04-03_18h34.14.930,Occlusion_Psychophysics,2022.1.4,Win32,60.38282712,,,left,"[""left""]",[0.6849999999999454],False,,0.0,0.0,3.0,3.0,3.0,1.0,,,,,,
,,,,,,,,,,,,,,,,,,,,,0.05,,,,,,,,,,Stimuli/psy_flexible_rotation_30_objects_occ0.7_0.9s/images/train/n04256520_5/n02933112_4/img_meridiani_belmondo_bench_sofa_buffet_2003_gray.jpg,n04256520_5,n02933112_4,flexible,0.833952,n02933112_4,Stimuli/psy_flexible_rotation_30_objects_occ0.7_0.9s/images/train/n04256520_5/n02933112_4/img_meridiani_belmondo_bench_sofa_buffet_2003-3_gray.png,foreground,same as foreground,n04256520_5,n02933112_4,Stimuli/canonical view 2/img_n04256520_5_gray.jpg,Stimuli/canonical view 2/img_n02933112_4_gray.jpg,foreground,left,Experiments/experiment_40/416.jpg,Experiments/experiment_40/417.jpg,Experiments/experiment_40/418.jpg,Experiments/experiment_40/419.jpg,530,1,2023-04-03_18h34.14.930,Occlusion_Psychophysics,2022.1.4,Win32,60.38282712,,,right,"[""left""]",[1.3695000000000164],True,right,1.0,0.0,4.0,4.0,4.0,1.0,0.8002,,,,,
,,,,,,,,,,,,,,,,,,,,,0.025,,,,,,,,,,Stimuli/psy_flexible_rotation_30_objects_occ0.7_0.9s/images/train/n02883344_15/n04256520_4/img_microwave_box_club_house_italia_nautilus_sofa_2004_gray.jpg,n02883344_15,n04256520_4,flexible,0.818806,n04256520_4,Stimuli/psy_flexible_rotation_30_objects_occ0.7_0.9s/images/train/n02883344_15/n04256520_4/img_microwave_box_club_house_italia_nautilus_sofa_2004-3_gray.png,foreground,same as foreground,n02883344_15,n04256520_4,Stimuli/canonical view 2/img_n02883344_15_gray.jpg,Stimuli/canonical view 2/img_n04256520_4_gray.jpg,foreground,left,Experiments/experiment_40/420.jpg,Experiments/experiment_40/421.jpg,Experiments/experiment_40/422.jpg,Experiments/experiment_40/423.jpg,530,1,2023-04-03_18h34.14.930,Occlusion_Psychophysics,2022.1.4,Win32,60.38282712,,,left,"[""left""]",[0.6045999999046217],False,,0.0,0.0,5.0,5.0,5.0,1.0,,,,,,
,,,,,,,,,,,,,,,,,,,,,0.05,,,,,,,,,,Stimuli/psy_flexible_rotation_30_objects_occ0.7_0.9s/images/train/n04379243_0/n02883344_-1/img_17th_c._monastery_dining_table_2010_woven_box_2006_gray.jpg,n04379243_0,n02883344_-1,flexible,0.801301,n02883344_-1,Stimuli/psy_flexible_rotation_30_objects_occ0.7_0.9s/images/train/n04379243_0/n02883344_-1/img_17th_c._monastery_dining_table_2010_woven_box_2006-3_gray.png,foreground,same as foreground,n04379243_0,n02883344_-1,Stimuli/canonical view 2/img_n04379243_0_gray.jpg,Stimuli/canonical view 2/img_n02883344_-1_gray.jpg,foreground,left,Experiments/experiment_40/424.jpg,Experiments/experiment_40/425.jpg,Experiments/experiment_40/426.jpg,Experiments/experiment_40/427.jpg,530,1,2023-04-03_18h34.14.930,Occlusion_Psychophysics,2022.1.4,Win32,60.38282712,,,right,"[""right""]",[0.8963999999762109],False,,0.0,0.0,6.0,6.0,6.0,1.0,,,,,,
,,,,,,,,,,,,,,,,,,,,,0.05,,,,,,,,,,Stimuli/psy_fixed_rotation_30_objects_occ0.7_0.9s/images/train/n04256520_9/n02883344_0/img_napoleon_iii_sofa_b03_box_2006_gray.jpg,n04256520_9,n02883344_0,fixed,0.804338,n04405907_9,Stimuli/psy_flexible_rotation_30_objects_occ0.7_0.9s/images/train/n03928116_0/n04405907_9/img_b02_piano_vray_004_2011-3_gray.png,random,flexible,n04256520_9,n02883344_0,Stimuli/canonical view 2/img_n04256520_9_gray.jpg,Stimuli/canonical view 2/img_n02883344_0_gray.jpg,foreground,right,Experiments/experiment_40/428.jpg,Experiments/experiment_40/429.jpg,Experiments/experiment_40/430.jpg,Experiments/experiment_40/431.jpg,530,1,2023-04-03_18h34.14.930,Occlusion_Psychophysics,2022.1.4,Win32,60.38282712,,,left,"[""left""]",[1.3696000000238655],False,,0.0,0.0,7.0,7.0,7.0,1.0,,,,,,
,,,,,,,,,,,,,,,,,,,,,0.05,,,,,,,,,,Stimuli/psy_flexible_rotation_30_objects_occ0.7_0.9s/images/train/n02883344_-1/n04256520_4/img_woven_box_club_house_italia_nautilus_sofa_2002_gray.jpg,n02883344_-1,n04256520_4,flexible,0.744067,n04379243_0,Stimuli/psy_flexible_rotation_30_objects_occ0.7_0.9s/images/train/n02883344_-1/n04379243_0/img_woven_box_17th_c._monastery_dining_table_2010_2000-3_gray.png,random,flexible,n02883344_-1,n04256520_4,Stimuli/canonical view 2/img_n02883344_-1_gray.jpg,Stimuli/canonical view 2/img_n04256520_4_gray.jpg,foreground,right,Experiments/experiment_40/432.jpg,Experiments/experiment_40/433.jpg,Experiments/experiment_40/434.jpg,Experiments/experiment_40/435.jpg,530,1,2023-04-03_18h34.14.930,Occlusion_Psychophysics,2022.1.4,Win32,60.38282712,,,left,"[""left""]",[0.7556999999285381],False,,0.0,0.0,8.0,8.0,8.0,1.0,,,,,,
