in_color,Instructions_key.keys,Instructions_key.rt,Tutorial_instruction_key.keys,Tutorial_instruction_key.rt,Tutorial_fixation_ley.keys,Tutorial_fixation_ley.rt,Tutorial_single_img_key.keys,Tutorial_single_img_key.rt,Tutorial_intra_trial_fixation_key.keys,Tutorial_intra_trial_fixation_key.rt,Tutorial_stimulus_key.keys,Tutorial_stimulus_key.rt,Tutorial_response_key.keys,Tutorial_response_key.rt,Tutorial_attention_check_key.keys,Tutorial_attention_check_key.rt,advance_or_repeat.keys,advance_or_repeat.rt,Practice_instructions_key.keys,Practice_instructions_key.rt,intra_trial_duration,Practice_key_response.keys,Practice_key_response.rt,Practice_react_key.keys,Practice_react_key.rt,Practice_loop.thisRepN,Practice_loop.thisTrialN,Practice_loop.thisN,Practice_loop.thisIndex,Practice_loop.ran,multi_object_filepath,background_id,foreground_id,multi_object_rotation,occlusion_level,single_object_id,single_object_filepath,single_is_foreground_or_random,single_object_rotation,background_choice_id,alt_choice_id,background_option_filepath,alternative_option_filepath,alternative_is_foreground_or_random,location_of_correct_answer,multi_object_exp_filename,single_object_exp_filename,background_option_exp_filename,alternative_option_exp_filename,participant,session,date,expName,psychopyVersion,OS,frameRate,Practice_end_key.keys,Practice_end_key.rt,correct_answer,Input_selection.keys,Input_selection.rt,Was_attention_check,Attention_check.keys,Attention_check.corr,Each_session_loop.thisRepN,Each_session_loop.thisTrialN,Each_session_loop.thisN,Each_session_loop.thisIndex,Each_session_loop.ran,Attention_check.rt,Num_sessions.thisRepN,Num_sessions.thisTrialN,Num_sessions.thisN,Num_sessions.thisIndex,Num_sessions.ran
False,space,9.2429,space,3.8858,space,5.3724,space,3.9659,space,1.9381,space,14.4385,left,5.4309,right,4.982,a,6.7698,space,2.4915,0.05,right,1.6515,r,4.6496,0.0,0.0,0.0,0.0,1.0,Stimuli/psy_flexible_rotation_30_objects_occ0.7_0.9s/images/train/n03001627_9/n02828884_3/img_chair_eames_plastic_armchair_b04_wood_metal_park_bench_2006_gray.jpg,n03001627_9,n02828884_3,flexible,0.701443,n02828884_3,Stimuli/psy_flexible_rotation_30_objects_occ0.7_0.9s/images/train/n03001627_9/n02828884_3/img_chair_eames_plastic_armchair_b04_wood_metal_park_bench_2006-3_gray.png,foreground,same as foreground,n03001627_9,n02828884_3,Stimuli/canonical view 2/img_n03001627_9_gray.jpg,Stimuli/canonical view 2/img_n02828884_3_gray.jpg,foreground,left,Experiments/experiment_12/1000.jpg,Experiments/experiment_12/1001.jpg,Experiments/experiment_12/1002.jpg,Experiments/experiment_12/1003.jpg,537,1.0,2023-04-17_14h39.02.788,Occlusion_Psychophysics,2022.1.4,MacIntel,30.02101471,,,,,,,,,,,,,,,,,,,
,,,,,,,,,,,,,,,,,,,,,0.05,right,1.309,r,4.4835,0.0,1.0,1.0,1.0,1.0,Stimuli/psy_flexible_rotation_30_objects_occ0.7_0.9s/images/train/n03928116_4/n04405907_9/img_dp_33_b_2013__vray_vray_004_2002_gray.jpg,n03928116_4,n04405907_9,flexible,0.700074,n04379243_8,Stimuli/psy_fixed_rotation_30_objects_occ0.7_0.9s/images/train/n04256520_5/n04379243_8/img_meridiani_belmondo_bench_sofa_glass_table_2014-3_gray.png,random,fixed,n03928116_4,n04405907_9,Stimuli/canonical view 2/img_n03928116_4_gray.jpg,Stimuli/canonical view 2/img_n04405907_9_gray.jpg,foreground,right,Experiments/experiment_12/1004.jpg,Experiments/experiment_12/1005.jpg,Experiments/experiment_12/1006.jpg,Experiments/experiment_12/1007.jpg,537,1.0,2023-04-17_14h39.02.788,Occlusion_Psychophysics,2022.1.4,MacIntel,30.02101471,,,,,,,,,,,,,,,,,,,
,,,,,,,,,,,,,,,,,,,,,0.05,right,1.4707,r,3.2177,0.0,2.0,2.0,2.0,1.0,Stimuli/psy_flexible_rotation_30_objects_occ0.7_0.9s/images/train/n02933112_-2/n04405907_5/img_sink_base_white_wood_samsung_40_uhd_smart_tv_2011_2015_gray.jpg,n02933112_-2,n04405907_5,flexible,0.868022,n02933112_4,Stimuli/psy_flexible_rotation_30_objects_occ0.7_0.9s/images/train/n03001627_-2/n02933112_4/img_wood_chair_buffet_2003-3_gray.png,random,flexible,n02933112_-2,n03001627_8,Stimuli/canonical view 2/img_n02933112_-2_gray.jpg,Stimuli/canonical view 2/img_n03001627_8_gray.jpg,random,left,Experiments/experiment_12/1008.jpg,Experiments/experiment_12/1009.jpg,Experiments/experiment_12/1010.jpg,Experiments/experiment_12/1011.jpg,537,1.0,2023-04-17_14h39.02.788,Occlusion_Psychophysics,2022.1.4,MacIntel,30.02101471,,,,,,,,,,,,,,,,,,,
,,,,,,,,,,,,,,,,,,,,,0.025,right,0.8755,r,4.1893,0.0,3.0,3.0,3.0,1.0,Stimuli/psy_fixed_rotation_30_objects_occ0.7_0.9s/images/train/n03928116_4/n04256520_9/img_dp_33_b_2013__vray_napoleon_iii_sofa_2000_gray.jpg,n03928116_4,n04256520_9,fixed,0.779327,n04256520_9,Stimuli/psy_fixed_rotation_30_objects_occ0.7_0.9s/images/train/n03928116_4/n04256520_9/img_dp_33_b_2013__vray_napoleon_iii_sofa_2000-3_gray.png,foreground,same as foreground,n03928116_4,n04256520_9,Stimuli/canonical view 2/img_n03928116_4_gray.jpg,Stimuli/canonical view 2/img_n04256520_9_gray.jpg,foreground,right,Experiments/experiment_12/1012.jpg,Experiments/experiment_12/1013.jpg,Experiments/experiment_12/1014.jpg,Experiments/experiment_12/1015.jpg,537,1.0,2023-04-17_14h39.02.788,Occlusion_Psychophysics,2022.1.4,MacIntel,30.02101471,,,,,,,,,,,,,,,,,,,
,,,,,,,,,,,,,,,,,,,,,0.025,left,1.6991,r,1.9129,0.0,4.0,4.0,4.0,1.0,Stimuli/psy_fixed_rotation_30_objects_occ0.7_0.9s/images/train/n04405907_9/n02883344_0/img_vray_004_b03_box_2008_gray.jpg,n04405907_9,n02883344_0,fixed,0.705294,n02883344_0,Stimuli/psy_fixed_rotation_30_objects_occ0.7_0.9s/images/train/n04405907_9/n02883344_0/img_vray_004_b03_box_2008-3_gray.png,foreground,same as foreground,n04405907_9,n04379243_-7,Stimuli/canonical view 2/img_n04405907_9_gray.jpg,Stimuli/canonical view 2/img_n04379243_-7_gray.jpg,random,left,Experiments/experiment_12/1016.jpg,Experiments/experiment_12/1017.jpg,Experiments/experiment_12/1018.jpg,Experiments/experiment_12/1019.jpg,537,1.0,2023-04-17_14h39.02.788,Occlusion_Psychophysics,2022.1.4,MacIntel,30.02101471,,,,,,,,,,,,,,,,,,,
,,,,,,,,,,,,,,,,,,,,,0.05,left,1.2413,a,3.4917,0.0,5.0,5.0,5.0,1.0,Stimuli/psy_flexible_rotation_30_objects_occ0.7_0.9s/images/train/n02883344_0/n02828884_3/img_b03_box_b04_wood_metal_park_bench_2001_gray.jpg,n02883344_0,n02828884_3,flexible,0.747668,n03928116_10,Stimuli/psy_fixed_rotation_30_objects_occ0.7_0.9s/images/train/n04379243_-7/n03928116_10/img_quatre_dining_table_ydp_103_r_2012__vray_2001-3_gray.png,random,fixed,n02883344_0,n04256520_4,Stimuli/canonical view 2/img_n02883344_0_gray.jpg,Stimuli/canonical view 2/img_n04256520_4_gray.jpg,random,left,Experiments/experiment_12/1020.jpg,Experiments/experiment_12/1021.jpg,Experiments/experiment_12/1022.jpg,Experiments/experiment_12/1023.jpg,537,1.0,2023-04-17_14h39.02.788,Occlusion_Psychophysics,2022.1.4,MacIntel,30.02101471,,,,,,,,,,,,,,,,,,,
,,,,,,,,,,,,,,,,,,,,,0.025,,,,,,,,,,Stimuli/psy_fixed_rotation_30_objects_occ0.7_0.9s/images/train/n04256520_4/n04379243_0/img_club_house_italia_nautilus_sofa_17th_c._monastery_dining_table_2010_2008_gray.jpg,n04256520_4,n04379243_0,fixed,0.706903,n04379243_0,Stimuli/psy_fixed_rotation_30_objects_occ0.7_0.9s/images/train/n04256520_4/n04379243_0/img_club_house_italia_nautilus_sofa_17th_c._monastery_dining_table_2010_2008-3_gray.png,foreground,same as foreground,n04256520_4,n04379243_0,Stimuli/canonical view 2/img_n04256520_4_gray.jpg,Stimuli/canonical view 2/img_n04379243_0_gray.jpg,foreground,right,Experiments/experiment_12/0.jpg,Experiments/experiment_12/1.jpg,Experiments/experiment_12/2.jpg,Experiments/experiment_12/3.jpg,537,1.0,2023-04-17_14h39.02.788,Occlusion_Psychophysics,2022.1.4,MacIntel,30.02101471,space,2.0759,left,"[""left""]",[0.8859000000022661],False,,0.0,0.0,0.0,0.0,0.0,1.0,,,,,,
,,,,,,,,,,,,,,,,,,,,,0.05,,,,,,,,,,Stimuli/psy_flexible_rotation_30_objects_occ0.7_0.9s/images/train/n02933112_4/n02883344_15/img_buffet_microwave_box_2005_gray.jpg,n02933112_4,n02883344_15,flexible,0.704481,n04256520_4,Stimuli/psy_flexible_rotation_30_objects_occ0.7_0.9s/images/train/n04405907_9/n04256520_4/img_vray_004_club_house_italia_nautilus_sofa_2008-3_gray.png,random,flexible,n02933112_4,n02883344_15,Stimuli/canonical view 2/img_n02933112_4_gray.jpg,Stimuli/canonical view 2/img_n02883344_15_gray.jpg,foreground,right,Experiments/experiment_12/4.jpg,Experiments/experiment_12/5.jpg,Experiments/experiment_12/6.jpg,Experiments/experiment_12/7.jpg,537,1.0,2023-04-17_14h39.02.788,Occlusion_Psychophysics,2022.1.4,MacIntel,30.02101471,,,left,"[""left""]",[1.23050000000012],False,,0.0,0.0,1.0,1.0,1.0,1.0,,,,,,
,,,,,,,,,,,,,,,,,,,,,0.05,,,,,,,,,,Stimuli/psy_fixed_rotation_30_objects_occ0.7_0.9s/images/train/n04379243_8/n02883344_-1/img_glass_table_woven_box_2004_gray.jpg,n04379243_8,n02883344_-1,fixed,0.780706,n02883344_-1,Stimuli/psy_fixed_rotation_30_objects_occ0.7_0.9s/images/train/n04379243_8/n02883344_-1/img_glass_table_woven_box_2004-3_gray.png,foreground,same as foreground,n04379243_8,n02883344_-1,Stimuli/canonical view 2/img_n04379243_8_gray.jpg,Stimuli/canonical view 2/img_n02883344_-1_gray.jpg,foreground,left,Experiments/experiment_12/8.jpg,Experiments/experiment_12/9.jpg,Experiments/experiment_12/10.jpg,Experiments/experiment_12/11.jpg,537,1.0,2023-04-17_14h39.02.788,Occlusion_Psychophysics,2022.1.4,MacIntel,30.02101471,,,right,"[""right""]",[0.5831999999993513],False,,0.0,0.0,2.0,2.0,2.0,1.0,,,,,,
,,,,,,,,,,,,,,,,,,,,,0.05,,,,,,,,,,Stimuli/psy_flexible_rotation_30_objects_occ0.7_0.9s/images/train/n02883344_0/n04379243_0/img_b03_box_17th_c._monastery_dining_table_2010_2002_gray.jpg,n02883344_0,n04379243_0,flexible,0.821074,n02883344_0,Stimuli/psy_flexible_rotation_30_objects_occ0.7_0.9s/images/train/n04405907_5/n02883344_0/img_samsung_40_uhd_smart_tv_2011_b03_box_2008-3_gray.png,random,flexible,n02883344_0,n04379243_0,Stimuli/canonical view 2/img_n02883344_0_gray.jpg,Stimuli/canonical view 2/img_n04379243_0_gray.jpg,foreground,right,Experiments/experiment_12/12.jpg,Experiments/experiment_12/13.jpg,Experiments/experiment_12/14.jpg,Experiments/experiment_12/15.jpg,537,1.0,2023-04-17_14h39.02.788,Occlusion_Psychophysics,2022.1.4,MacIntel,30.02101471,,,left,"[""left""]",[0.7646000000015647],True,right,1.0,0.0,3.0,3.0,3.0,1.0,1.5645,,,,,
,,,,,,,,,,,,,,,,,,,,,0.025,,,,,,,,,,Stimuli/psy_fixed_rotation_30_objects_occ0.7_0.9s/images/train/n04379243_-7/n04256520_9/img_quatre_dining_table_napoleon_iii_sofa_2007_gray.jpg,n04379243_-7,n04256520_9,fixed,0.733129,n02883344_0,Stimuli/psy_fixed_rotation_30_objects_occ0.7_0.9s/images/train/n02933112_4/n02883344_0/img_buffet_b03_box_2004-3_gray.png,random,fixed,n04379243_-7,n04256520_9,Stimuli/canonical view 2/img_n04379243_-7_gray.jpg,Stimuli/canonical view 2/img_n04256520_9_gray.jpg,foreground,right,Experiments/experiment_12/16.jpg,Experiments/experiment_12/17.jpg,Experiments/experiment_12/18.jpg,Experiments/experiment_12/19.jpg,537,1.0,2023-04-17_14h39.02.788,Occlusion_Psychophysics,2022.1.4,MacIntel,30.02101471,,,right,"[""right""]",[0.8471999999992477],False,,0.0,0.0,4.0,4.0,4.0,1.0,,,,,,
,,,,,,,,,,,,,,,,,,,,,0.05,,,,,,,,,,Stimuli/psy_flexible_rotation_30_objects_occ0.7_0.9s/images/train/n04256520_9/n02818832_3/img_napoleon_iii_sofa_b05_ccm_contemporary_bed_max2013_2005_gray.jpg,n04256520_9,n02818832_3,flexible,0.703334,n02818832_3,Stimuli/psy_flexible_rotation_30_objects_occ0.7_0.9s/images/train/n04256520_9/n02818832_3/img_napoleon_iii_sofa_b05_ccm_contemporary_bed_max2013_2005-3_gray.png,foreground,same as foreground,n04256520_9,n02818832_3,Stimuli/canonical view 2/img_n04256520_9_gray.jpg,Stimuli/canonical view 2/img_n02818832_3_gray.jpg,foreground,right,Experiments/experiment_12/20.jpg,Experiments/experiment_12/21.jpg,Experiments/experiment_12/22.jpg,Experiments/experiment_12/23.jpg,537,1.0,2023-04-17_14h39.02.788,Occlusion_Psychophysics,2022.1.4,MacIntel,30.02101471,,,right,"[""left""]",[1.1965000000000146],False,,0.0,0.0,5.0,5.0,5.0,1.0,,,,,,
,,,,,,,,,,,,,,,,,,,,,0.025,,,,,,,,,,Stimuli/psy_flexible_rotation_30_objects_occ0.7_0.9s/images/train/n02883344_15/n04405907_8/img_microwave_box_stylized_tv_2002_gray.jpg,n02883344_15,n04405907_8,flexible,0.714956,n04405907_5,Stimuli/psy_flexible_rotation_30_objects_occ0.7_0.9s/images/train/n02818832_9/n04405907_5/img_bed01_blue_samsung_40_uhd_smart_tv_2011_2003-3_gray.png,random,flexible,n02883344_15,n02818832_3,Stimuli/canonical view 2/img_n02883344_15_gray.jpg,Stimuli/canonical view 2/img_n02818832_3_gray.jpg,random,right,Experiments/experiment_12/24.jpg,Experiments/experiment_12/25.jpg,Experiments/experiment_12/26.jpg,Experiments/experiment_12/27.jpg,537,1.0,2023-04-17_14h39.02.788,Occlusion_Psychophysics,2022.1.4,MacIntel,30.02101471,,,right,"[""right""]",[0.9239999999999782],False,,0.0,0.0,6.0,6.0,6.0,1.0,,,,,,
,,,,,,,,,,,,,,,,,,,,,0.025,,,,,,,,,,Stimuli/psy_fixed_rotation_30_objects_occ0.7_0.9s/images/train/n04256520_4/n04405907_5/img_club_house_italia_nautilus_sofa_samsung_40_uhd_smart_tv_2011_2004_gray.jpg,n04256520_4,n04405907_5,fixed,0.800291,n04379243_8,Stimuli/psy_flexible_rotation_30_objects_occ0.7_0.9s/images/train/n02828884_4/n04379243_8/img_b05_c-5_classic_series_bench-2012_glass_table_2015-3_gray.png,random,flexible,n04256520_4,n04405907_5,Stimuli/canonical view 2/img_n04256520_4_gray.jpg,Stimuli/canonical view 2/img_n04405907_5_gray.jpg,foreground,right,Experiments/experiment_12/28.jpg,Experiments/experiment_12/29.jpg,Experiments/experiment_12/30.jpg,Experiments/experiment_12/31.jpg,537,1.0,2023-04-17_14h39.02.788,Occlusion_Psychophysics,2022.1.4,MacIntel,30.02101471,,,right,"[""right""]",[0.7724000000023352],False,,0.0,0.0,7.0,7.0,7.0,1.0,,,,,,
,,,,,,,,,,,,,,,,,,,,,0.025,,,,,,,,,,Stimuli/psy_flexible_rotation_30_objects_occ0.7_0.9s/images/train/n04405907_5/n03001627_-2/img_samsung_40_uhd_smart_tv_2011_wood_chair_2007_gray.jpg,n04405907_5,n03001627_-2,flexible,0.750284,n04379243_0,Stimuli/psy_flexible_rotation_30_objects_occ0.7_0.9s/images/train/n04405907_5/n04379243_0/img_samsung_40_uhd_smart_tv_2011_17th_c._monastery_dining_table_2010_2005-3_gray.png,random,flexible,n04405907_5,n03001627_-2,Stimuli/canonical view 2/img_n04405907_5_gray.jpg,Stimuli/canonical view 2/img_n03001627_-2_gray.jpg,foreground,left,Experiments/experiment_12/32.jpg,Experiments/experiment_12/33.jpg,Experiments/experiment_12/34.jpg,Experiments/experiment_12/35.jpg,537,1.0,2023-04-17_14h39.02.788,Occlusion_Psychophysics,2022.1.4,MacIntel,30.02101471,,,right,"[""right""]",[0.8166999999991731],False,,0.0,0.0,8.0,8.0,8.0,1.0,,,,,,
,,,,,,,,,,,,,,,,,,,,,0.025,,,,,,,,,,Stimuli/psy_flexible_rotation_30_objects_occ0.7_0.9s/images/train/n02818832_9/n02828884_3/img_bed01_blue_b04_wood_metal_park_bench_2011_gray.jpg,n02818832_9,n02828884_3,flexible,0.770281,n02828884_3,Stimuli/psy_flexible_rotation_30_objects_occ0.7_0.9s/images/train/n02818832_9/n02828884_3/img_bed01_blue_b04_wood_metal_park_bench_2011-3_gray.png,foreground,same as foreground,n02818832_9,n02828884_3,Stimuli/canonical view 2/img_n02818832_9_gray.jpg,Stimuli/canonical view 2/img_n02828884_3_gray.jpg,foreground,right,Experiments/experiment_12/36.jpg,Experiments/experiment_12/37.jpg,Experiments/experiment_12/38.jpg,Experiments/experiment_12/39.jpg,537,1.0,2023-04-17_14h39.02.788,Occlusion_Psychophysics,2022.1.4,MacIntel,30.02101471,,,left,"[""left""]",[0.8103000000007796],False,,0.0,0.0,9.0,9.0,9.0,1.0,,,,,,
,,,,,,,,,,,,,,,,,,,,,0.05,,,,,,,,,,Stimuli/psy_fixed_rotation_30_objects_occ0.7_0.9s/images/train/n03928116_4/n03928116_10/img_dp_33_b_2013__vray_ydp_103_r_2012__vray_2011_gray.jpg,n03928116_4,n03928116_10,fixed,0.772634,n04405907_8,Stimuli/psy_flexible_rotation_30_objects_occ0.7_0.9s/images/train/n02828884_4/n04405907_8/img_b05_c-5_classic_series_bench-2012_stylized_tv_2011-3_gray.png,random,flexible,n03928116_4,n03928116_0,Stimuli/canonical view 2/img_n03928116_4_gray.jpg,Stimuli/canonical view 2/img_n03928116_0_gray.jpg,random,right,Experiments/experiment_12/40.jpg,Experiments/experiment_12/41.jpg,Experiments/experiment_12/42.jpg,Experiments/experiment_12/43.jpg,537,1.0,2023-04-17_14h39.02.788,Occlusion_Psychophysics,2022.1.4,MacIntel,30.02101471,,,left,"[""left""]",[1.3185000000000855],False,,0.0,0.0,10.0,10.0,10.0,1.0,,,,,,
,,,,,,,,,,,,,,,,,,,,,0.025,,,,,,,,,,Stimuli/psy_fixed_rotation_30_objects_occ0.7_0.9s/images/train/n02883344_15/n02883344_-1/img_microwave_box_woven_box_2007_gray.jpg,n02883344_15,n02883344_-1,fixed,0.788457,n03928116_0,Stimuli/psy_flexible_rotation_30_objects_occ0.7_0.9s/images/train/n02828884_3/n03928116_0/img_b04_wood_metal_park_bench_b02_piano_2013-3_gray.png,random,flexible,n02883344_15,n02818832_3,Stimuli/canonical view 2/img_n02883344_15_gray.jpg,Stimuli/canonical view 2/img_n02818832_3_gray.jpg,random,left,Experiments/experiment_12/44.jpg,Experiments/experiment_12/45.jpg,Experiments/experiment_12/46.jpg,Experiments/experiment_12/47.jpg,537,1.0,2023-04-17_14h39.02.788,Occlusion_Psychophysics,2022.1.4,MacIntel,30.02101471,,,right,"[""right""]",[1.3746000000014647],False,,0.0,0.0,11.0,11.0,11.0,1.0,,,,,,
,,,,,,,,,,,,,,,,,,,,,0.05,,,,,,,,,,Stimuli/psy_flexible_rotation_30_objects_occ0.7_0.9s/images/train/n04256520_9/n04405907_8/img_napoleon_iii_sofa_stylized_tv_2012_gray.jpg,n04256520_9,n04405907_8,flexible,0.721387,n04405907_8,Stimuli/psy_flexible_rotation_30_objects_occ0.7_0.9s/images/train/n04256520_9/n04405907_8/img_napoleon_iii_sofa_stylized_tv_2012-3_gray.png,foreground,same as foreground,n04256520_9,n04405907_8,Stimuli/canonical view 2/img_n04256520_9_gray.jpg,Stimuli/canonical view 2/img_n04405907_8_gray.jpg,foreground,right,Experiments/experiment_12/48.jpg,Experiments/experiment_12/49.jpg,Experiments/experiment_12/50.jpg,Experiments/experiment_12/51.jpg,537,1.0,2023-04-17_14h39.02.788,Occlusion_Psychophysics,2022.1.4,MacIntel,30.02101471,,,right,"[""right""]",[0.786899999998468],False,,0.0,0.0,12.0,12.0,12.0,1.0,,,,,,
,,,,,,,,,,,,,,,,,,,,,0.025,,,,,,,,,,Stimuli/psy_fixed_rotation_30_objects_occ0.7_0.9s/images/train/n02933112_4/n02933112_-2/img_buffet_sink_base_white_wood_2007_gray.jpg,n02933112_4,n02933112_-2,fixed,0.704655,n02933112_-2,Stimuli/psy_fixed_rotation_30_objects_occ0.7_0.9s/images/train/n02933112_4/n02933112_-2/img_buffet_sink_base_white_wood_2007-3_gray.png,foreground,same as foreground,n02933112_4,n03928116_4,Stimuli/canonical view 2/img_n02933112_4_gray.jpg,Stimuli/canonical view 2/img_n03928116_4_gray.jpg,random,right,Experiments/experiment_12/52.jpg,Experiments/experiment_12/53.jpg,Experiments/experiment_12/54.jpg,Experiments/experiment_12/55.jpg,537,1.0,2023-04-17_14h39.02.788,Occlusion_Psychophysics,2022.1.4,MacIntel,30.02101471,,,right,"[""right""]",[1.0034000000021024],False,,0.0,0.0,13.0,13.0,13.0,1.0,,,,,,
,,,,,,,,,,,,,,,,,,,,,0.025,,,,,,,,,,Stimuli/psy_flexible_rotation_30_objects_occ0.7_0.9s/images/train/n04379243_8/n03928116_10/img_glass_table_ydp_103_r_2012__vray_2005_gray.jpg,n04379243_8,n03928116_10,flexible,0.722351,n03928116_10,Stimuli/psy_flexible_rotation_30_objects_occ0.7_0.9s/images/train/n04379243_8/n03928116_10/img_glass_table_ydp_103_r_2012__vray_2005-3_gray.png,foreground,same as foreground,n04379243_8,n03928116_10,Stimuli/canonical view 2/img_n04379243_8_gray.jpg,Stimuli/canonical view 2/img_n03928116_10_gray.jpg,foreground,right,Experiments/experiment_12/56.jpg,Experiments/experiment_12/57.jpg,Experiments/experiment_12/58.jpg,Experiments/experiment_12/59.jpg,537,1.0,2023-04-17_14h39.02.788,Occlusion_Psychophysics,2022.1.4,MacIntel,30.02101471,,,left,"[""left""]",[0.6440999999977066],False,,0.0,0.0,14.0,14.0,14.0,1.0,,,,,,
,,,,,,,,,,,,,,,,,,,,,0.025,,,,,,,,,,Stimuli/psy_fixed_rotation_30_objects_occ0.7_0.9s/images/train/n04405907_8/n03001627_9/img_stylized_tv_chair_eames_plastic_armchair_2002_gray.jpg,n04405907_8,n03001627_9,fixed,0.838585,n03001627_9,Stimuli/psy_fixed_rotation_30_objects_occ0.7_0.9s/images/train/n04405907_8/n03001627_9/img_stylized_tv_chair_eames_plastic_armchair_2002-3_gray.png,foreground,same as foreground,n04405907_8,n03001627_9,Stimuli/canonical view 2/img_n04405907_8_gray.jpg,Stimuli/canonical view 2/img_n03001627_9_gray.jpg,foreground,right,Experiments/experiment_12/60.jpg,Experiments/experiment_12/61.jpg,Experiments/experiment_12/62.jpg,Experiments/experiment_12/63.jpg,537,1.0,2023-04-17_14h39.02.788,Occlusion_Psychophysics,2022.1.4,MacIntel,30.02101471,,,left,"[""left""]",[0.817799999997078],False,,0.0,0.0,15.0,15.0,15.0,1.0,,,,,,
,,,,,,,,,,,,,,,,,,,,,0.025,,,,,,,,,,Stimuli/psy_flexible_rotation_30_objects_occ0.7_0.9s/images/train/n03928116_10/n03928116_0/img_ydp_103_r_2012__vray_b02_piano_2001_gray.jpg,n03928116_10,n03928116_0,flexible,0.709914,n03928116_0,Stimuli/psy_flexible_rotation_30_objects_occ0.7_0.9s/images/train/n03928116_10/n03928116_0/img_ydp_103_r_2012__vray_b02_piano_2001-3_gray.png,foreground,same as foreground,n03928116_10,n03928116_0,Stimuli/canonical view 2/img_n03928116_10_gray.jpg,Stimuli/canonical view 2/img_n03928116_0_gray.jpg,foreground,right,Experiments/experiment_12/64.jpg,Experiments/experiment_12/65.jpg,Experiments/experiment_12/66.jpg,Experiments/experiment_12/67.jpg,537,1.0,2023-04-17_14h39.02.788,Occlusion_Psychophysics,2022.1.4,MacIntel,30.02101471,,,left,"[""left""]",[0.6655000000000655],False,,0.0,0.0,16.0,16.0,16.0,1.0,,,,,,
,,,,,,,,,,,,,,,,,,,,,0.025,,,,,,,,,,Stimuli/psy_flexible_rotation_30_objects_occ0.7_0.9s/images/train/n02818832_9/n02818832_3/img_bed01_blue_b05_ccm_contemporary_bed_max2013_2014_gray.jpg,n02818832_9,n02818832_3,flexible,0.85953,n02883344_-1,Stimuli/psy_fixed_rotation_30_objects_occ0.7_0.9s/images/train/n04070727_5/n02883344_-1/img_b05_db_apps_tech_06_13_composite_woven_box_2012-3_gray.png,random,fixed,n02818832_9,n04379243_-7,Stimuli/canonical view 2/img_n02818832_9_gray.jpg,Stimuli/canonical view 2/img_n04379243_-7_gray.jpg,random,right,Experiments/experiment_12/68.jpg,Experiments/experiment_12/69.jpg,Experiments/experiment_12/70.jpg,Experiments/experiment_12/71.jpg,537,1.0,2023-04-17_14h39.02.788,Occlusion_Psychophysics,2022.1.4,MacIntel,30.02101471,,,left,"[""right""]",[0.7866000000014992],False,,0.0,0.0,17.0,17.0,17.0,1.0,,,,,,
,,,,,,,,,,,,,,,,,,,,,0.05,,,,,,,,,,Stimuli/psy_fixed_rotation_30_objects_occ0.7_0.9s/images/train/n04405907_8/n04256520_9/img_stylized_tv_napoleon_iii_sofa_2014_gray.jpg,n04405907_8,n04256520_9,fixed,0.790068,n04379243_-7,Stimuli/psy_fixed_rotation_30_objects_occ0.7_0.9s/images/train/n03928116_10/n04379243_-7/img_ydp_103_r_2012__vray_quatre_dining_table_2012-3_gray.png,random,fixed,n04405907_8,n04405907_9,Stimuli/canonical view 2/img_n04405907_8_gray.jpg,Stimuli/canonical view 2/img_n04405907_9_gray.jpg,random,right,Experiments/experiment_12/72.jpg,Experiments/experiment_12/73.jpg,Experiments/experiment_12/74.jpg,Experiments/experiment_12/75.jpg,537,1.0,2023-04-17_14h39.02.788,Occlusion_Psychophysics,2022.1.4,MacIntel,30.02101471,,,right,"[""right""]",[0.8741000000015902],False,,0.0,0.0,18.0,18.0,18.0,1.0,,,,,,
,,,,,,,,,,,,,,,,,,,,,0.025,,,,,,,,,,Stimuli/psy_flexible_rotation_30_objects_occ0.7_0.9s/images/train/n04256520_9/n04405907_9/img_napoleon_iii_sofa_vray_004_2000_gray.jpg,n04256520_9,n04405907_9,flexible,0.726911,n04405907_9,Stimuli/psy_flexible_rotation_30_objects_occ0.7_0.9s/images/train/n04256520_9/n04405907_9/img_napoleon_iii_sofa_vray_004_2000-3_gray.png,foreground,same as foreground,n04256520_9,n02933112_-18,Stimuli/canonical view 2/img_n04256520_9_gray.jpg,Stimuli/canonical view 2/img_n02933112_-18_gray.jpg,random,right,Experiments/experiment_12/76.jpg,Experiments/experiment_12/77.jpg,Experiments/experiment_12/78.jpg,Experiments/experiment_12/79.jpg,537,1.0,2023-04-17_14h39.02.788,Occlusion_Psychophysics,2022.1.4,MacIntel,30.02101471,,,right,"[""right""]",[0.7622000000028493],False,,0.0,0.0,19.0,19.0,19.0,1.0,,,,,,
,,,,,,,,,,,,,,,,,,,,,0.05,,,,,,,,,,Stimuli/psy_flexible_rotation_30_objects_occ0.7_0.9s/images/train/n02933112_-2/n04405907_8/img_sink_base_white_wood_stylized_tv_2009_gray.jpg,n02933112_-2,n04405907_8,flexible,0.771747,n02933112_-18,Stimuli/psy_fixed_rotation_30_objects_occ0.7_0.9s/images/train/n03001627_-2/n02933112_-18/img_wood_chair_cgaxis_models_48_26_vray_composite_2008-3_gray.png,random,fixed,n02933112_-2,n02883344_0,Stimuli/canonical view 2/img_n02933112_-2_gray.jpg,Stimuli/canonical view 2/img_n02883344_0_gray.jpg,random,left,Experiments/experiment_12/80.jpg,Experiments/experiment_12/81.jpg,Experiments/experiment_12/82.jpg,Experiments/experiment_12/83.jpg,537,1.0,2023-04-17_14h39.02.788,Occlusion_Psychophysics,2022.1.4,MacIntel,30.02101471,,,right,"[""right""]",[0.9563000000007378],False,,0.0,0.0,20.0,20.0,20.0,1.0,,,,,,
,,,,,,,,,,,,,,,,,,,,,0.025,,,,,,,,,,Stimuli/psy_flexible_rotation_30_objects_occ0.7_0.9s/images/train/n03001627_8/n03001627_9/img_chair_billiani_doll_chair_eames_plastic_armchair_2008_gray.jpg,n03001627_8,n03001627_9,flexible,0.786492,n04379243_0,Stimuli/psy_fixed_rotation_30_objects_occ0.7_0.9s/images/train/n02818832_3/n04379243_0/img_b05_ccm_contemporary_bed_max2013_17th_c._monastery_dining_table_2010_2012-3_gray.png,random,fixed,n03001627_8,n03001627_9,Stimuli/canonical view 2/img_n03001627_8_gray.jpg,Stimuli/canonical view 2/img_n03001627_9_gray.jpg,foreground,right,Experiments/experiment_12/84.jpg,Experiments/experiment_12/85.jpg,Experiments/experiment_12/86.jpg,Experiments/experiment_12/87.jpg,537,1.0,2023-04-17_14h39.02.788,Occlusion_Psychophysics,2022.1.4,MacIntel,30.02101471,,,left,"[""left""]",[1.1535999999975957],False,,0.0,0.0,21.0,21.0,21.0,1.0,,,,,,
,,,,,,,,,,,,,,,,,,,,,0.025,,,,,,,,,,Stimuli/psy_fixed_rotation_30_objects_occ0.7_0.9s/images/train/n02828884_3/n04405907_8/img_b04_wood_metal_park_bench_stylized_tv_2006_gray.jpg,n02828884_3,n04405907_8,fixed,0.790316,n04405907_8,Stimuli/psy_fixed_rotation_30_objects_occ0.7_0.9s/images/train/n02828884_3/n04405907_8/img_b04_wood_metal_park_bench_stylized_tv_2006-3_gray.png,foreground,same as foreground,n02828884_3,n04405907_8,Stimuli/canonical view 2/img_n02828884_3_gray.jpg,Stimuli/canonical view 2/img_n04405907_8_gray.jpg,foreground,right,Experiments/experiment_12/88.jpg,Experiments/experiment_12/89.jpg,Experiments/experiment_12/90.jpg,Experiments/experiment_12/91.jpg,537,1.0,2023-04-17_14h39.02.788,Occlusion_Psychophysics,2022.1.4,MacIntel,30.02101471,,,left,"[""left""]",[0.6178000000008979],False,,0.0,0.0,22.0,22.0,22.0,1.0,,,,,,
,,,,,,,,,,,,,,,,,,,,,0.025,,,,,,,,,,Stimuli/psy_flexible_rotation_30_objects_occ0.7_0.9s/images/train/n02883344_0/n04405907_9/img_b03_box_vray_004_2015_gray.jpg,n02883344_0,n04405907_9,flexible,0.826658,n03928116_0,Stimuli/psy_flexible_rotation_30_objects_occ0.7_0.9s/images/train/n04070727_5/n03928116_0/img_b05_db_apps_tech_06_13_composite_b02_piano_2012-3_gray.png,random,flexible,n02883344_0,n04405907_9,Stimuli/canonical view 2/img_n02883344_0_gray.jpg,Stimuli/canonical view 2/img_n04405907_9_gray.jpg,foreground,right,Experiments/experiment_12/92.jpg,Experiments/experiment_12/93.jpg,Experiments/experiment_12/94.jpg,Experiments/experiment_12/95.jpg,537,1.0,2023-04-17_14h39.02.788,Occlusion_Psychophysics,2022.1.4,MacIntel,30.02101471,,,left,"[""left""]",[0.9951999999993859],False,,0.0,0.0,23.0,23.0,23.0,1.0,,,,,,
,,,,,,,,,,,,,,,,,,,,,0.025,,,,,,,,,,Stimuli/psy_fixed_rotation_30_objects_occ0.7_0.9s/images/train/n02818832_9/n02933112_-18/img_bed01_blue_cgaxis_models_48_26_vray_composite_2003_gray.jpg,n02818832_9,n02933112_-18,fixed,0.721942,n02828884_4,Stimuli/psy_fixed_rotation_30_objects_occ0.7_0.9s/images/train/n03001627_9/n02828884_4/img_chair_eames_plastic_armchair_b05_c-5_classic_series_bench-2012_2000-3_gray.png,random,fixed,n02818832_9,n02933112_-18,Stimuli/canonical view 2/img_n02818832_9_gray.jpg,Stimuli/canonical view 2/img_n02933112_-18_gray.jpg,foreground,left,Experiments/experiment_12/96.jpg,Experiments/experiment_12/97.jpg,Experiments/experiment_12/98.jpg,Experiments/experiment_12/99.jpg,537,1.0,2023-04-17_14h39.02.788,Occlusion_Psychophysics,2022.1.4,MacIntel,30.02101471,,,left,"[""left""]",[1.1054000000021915],False,,0.0,0.0,24.0,24.0,24.0,1.0,,,,,,
,,,,,,,,,,,,,,,,,,,,,0.025,,,,,,,,,,Stimuli/psy_fixed_rotation_30_objects_occ0.7_0.9s/images/train/n04405907_9/n04405907_8/img_vray_004_stylized_tv_2009_gray.jpg,n04405907_9,n04405907_8,fixed,0.733472,n04405907_8,Stimuli/psy_fixed_rotation_30_objects_occ0.7_0.9s/images/train/n04405907_9/n04405907_8/img_vray_004_stylized_tv_2009-3_gray.png,foreground,same as foreground,n04405907_9,n04379243_8,Stimuli/canonical view 2/img_n04405907_9_gray.jpg,Stimuli/canonical view 2/img_n04379243_8_gray.jpg,random,right,Experiments/experiment_12/100.jpg,Experiments/experiment_12/101.jpg,Experiments/experiment_12/102.jpg,Experiments/experiment_12/103.jpg,537,1.0,2023-04-17_14h39.02.788,Occlusion_Psychophysics,2022.1.4,MacIntel,30.02101471,,,right,"[""left""]",[0.8435000000001764],False,,0.0,0.0,25.0,25.0,25.0,1.0,,,,,,
,,,,,,,,,,,,,,,,,,,,,0.025,,,,,,,,,,Stimuli/psy_fixed_rotation_30_objects_occ0.7_0.9s/images/train/n04379243_8/n02818832_0/img_glass_table_b03_the_sofa_and_chair_company_-_stanley_bed_2014_2013_gray.jpg,n04379243_8,n02818832_0,fixed,0.706721,n04256520_5,Stimuli/psy_flexible_rotation_30_objects_occ0.7_0.9s/images/train/n03928116_10/n04256520_5/img_ydp_103_r_2012__vray_meridiani_belmondo_bench_sofa_2003-3_gray.png,random,flexible,n04379243_8,n03001627_-2,Stimuli/canonical view 2/img_n04379243_8_gray.jpg,Stimuli/canonical view 2/img_n03001627_-2_gray.jpg,random,left,Experiments/experiment_12/104.jpg,Experiments/experiment_12/105.jpg,Experiments/experiment_12/106.jpg,Experiments/experiment_12/107.jpg,537,1.0,2023-04-17_14h39.02.788,Occlusion_Psychophysics,2022.1.4,MacIntel,30.02101471,,,right,"[""right""]",[0.8679999999999382],False,,0.0,0.0,26.0,26.0,26.0,1.0,,,,,,
,,,,,,,,,,,,,,,,,,,,,0.025,,,,,,,,,,Stimuli/psy_fixed_rotation_30_objects_occ0.7_0.9s/images/train/n03001627_9/n03928116_0/img_chair_eames_plastic_armchair_b02_piano_2000_gray.jpg,n03001627_9,n03928116_0,fixed,0.703486,n02818832_9,Stimuli/psy_flexible_rotation_30_objects_occ0.7_0.9s/images/train/n04379243_8/n02818832_9/img_glass_table_bed01_blue_2003-3_gray.png,random,flexible,n03001627_9,n02933112_-2,Stimuli/canonical view 2/img_n03001627_9_gray.jpg,Stimuli/canonical view 2/img_n02933112_-2_gray.jpg,random,left,Experiments/experiment_12/108.jpg,Experiments/experiment_12/109.jpg,Experiments/experiment_12/110.jpg,Experiments/experiment_12/111.jpg,537,1.0,2023-04-17_14h39.02.788,Occlusion_Psychophysics,2022.1.4,MacIntel,30.02101471,,,left,"[""left""]",[0.8061000000013792],False,,0.0,0.0,27.0,27.0,27.0,1.0,,,,,,
,,,,,,,,,,,,,,,,,,,,,0.025,,,,,,,,,,Stimuli/psy_fixed_rotation_30_objects_occ0.7_0.9s/images/train/n04256520_5/n04405907_9/img_meridiani_belmondo_bench_sofa_vray_004_2002_gray.jpg,n04256520_5,n04405907_9,fixed,0.786479,n04256520_9,Stimuli/psy_fixed_rotation_30_objects_occ0.7_0.9s/images/train/n04070727_0/n04256520_9/img_b03_ka90ivi20r_2013__vray_napoleon_iii_sofa_2015-3_gray.png,random,fixed,n04256520_5,n04405907_9,Stimuli/canonical view 2/img_n04256520_5_gray.jpg,Stimuli/canonical view 2/img_n04405907_9_gray.jpg,foreground,left,Experiments/experiment_12/112.jpg,Experiments/experiment_12/113.jpg,Experiments/experiment_12/114.jpg,Experiments/experiment_12/115.jpg,537,1.0,2023-04-17_14h39.02.788,Occlusion_Psychophysics,2022.1.4,MacIntel,30.02101471,,,right,"[""right""]",[0.7224000000021533],False,,0.0,0.0,28.0,28.0,28.0,1.0,,,,,,
,,,,,,,,,,,,,,,,,,,,,0.025,,,,,,,,,,Stimuli/psy_flexible_rotation_30_objects_occ0.7_0.9s/images/train/n02818832_0/n04256520_9/img_b03_the_sofa_and_chair_company_-_stanley_bed_2014_napoleon_iii_sofa_2005_gray.jpg,n02818832_0,n04256520_9,flexible,0.81787,n02818832_3,Stimuli/psy_flexible_rotation_30_objects_occ0.7_0.9s/images/train/n04070727_3/n02818832_3/img_b05_db_apps_tech_06_02_2_composite_b05_ccm_contemporary_bed_max2013_2010-3_gray.png,random,flexible,n02818832_0,n04256520_9,Stimuli/canonical view 2/img_n02818832_0_gray.jpg,Stimuli/canonical view 2/img_n04256520_9_gray.jpg,foreground,left,Experiments/experiment_12/116.jpg,Experiments/experiment_12/117.jpg,Experiments/experiment_12/118.jpg,Experiments/experiment_12/119.jpg,537,1.0,2023-04-17_14h39.02.788,Occlusion_Psychophysics,2022.1.4,MacIntel,30.02101471,,,left,"[""right""]",[0.8452999999969961],False,,0.0,0.0,29.0,29.0,29.0,1.0,,,,,,
,,,,,,,,,,,,,,,,,,,,,0.05,,,,,,,,,,Stimuli/psy_flexible_rotation_30_objects_occ0.7_0.9s/images/train/n02883344_-1/n02818832_0/img_woven_box_b03_the_sofa_and_chair_company_-_stanley_bed_2014_2013_gray.jpg,n02883344_-1,n02818832_0,flexible,0.810022,n02818832_0,Stimuli/psy_flexible_rotation_30_objects_occ0.7_0.9s/images/train/n02883344_-1/n02818832_0/img_woven_box_b03_the_sofa_and_chair_company_-_stanley_bed_2014_2013-3_gray.png,foreground,same as foreground,n02883344_-1,n02818832_0,Stimuli/canonical view 2/img_n02883344_-1_gray.jpg,Stimuli/canonical view 2/img_n02818832_0_gray.jpg,foreground,left,Experiments/experiment_12/120.jpg,Experiments/experiment_12/121.jpg,Experiments/experiment_12/122.jpg,Experiments/experiment_12/123.jpg,537,1.0,2023-04-17_14h39.02.788,Occlusion_Psychophysics,2022.1.4,MacIntel,30.02101471,,,left,"[""left""]",[0.7592000000031476],False,,0.0,0.0,30.0,30.0,30.0,1.0,,,,,,
,,,,,,,,,,,,,,,,,,,,,0.025,,,,,,,,,,Stimuli/psy_flexible_rotation_30_objects_occ0.7_0.9s/images/train/n04405907_9/n02883344_15/img_vray_004_microwave_box_2012_gray.jpg,n04405907_9,n02883344_15,flexible,0.851214,n04405907_8,Stimuli/psy_fixed_rotation_30_objects_occ0.7_0.9s/images/train/n03001627_8/n04405907_8/img_chair_billiani_doll_stylized_tv_2011-3_gray.png,random,fixed,n04405907_9,n02933112_-18,Stimuli/canonical view 2/img_n04405907_9_gray.jpg,Stimuli/canonical view 2/img_n02933112_-18_gray.jpg,random,right,Experiments/experiment_12/124.jpg,Experiments/experiment_12/125.jpg,Experiments/experiment_12/126.jpg,Experiments/experiment_12/127.jpg,537,1.0,2023-04-17_14h39.02.788,Occlusion_Psychophysics,2022.1.4,MacIntel,30.02101471,,,right,"[""right""]",[0.8904000000022734],False,,0.0,0.0,31.0,31.0,31.0,1.0,,,,,,
,,,,,,,,,,,,,,,,,,,,,0.025,,,,,,,,,,Stimuli/psy_fixed_rotation_30_objects_occ0.7_0.9s/images/train/n02933112_-2/n04405907_9/img_sink_base_white_wood_vray_004_2000_gray.jpg,n02933112_-2,n04405907_9,fixed,0.816246,n04405907_9,Stimuli/psy_fixed_rotation_30_objects_occ0.7_0.9s/images/train/n02933112_-2/n04405907_9/img_sink_base_white_wood_vray_004_2000-3_gray.png,foreground,same as foreground,n02933112_-2,n04405907_9,Stimuli/canonical view 2/img_n02933112_-2_gray.jpg,Stimuli/canonical view 2/img_n04405907_9_gray.jpg,foreground,left,Experiments/experiment_12/128.jpg,Experiments/experiment_12/129.jpg,Experiments/experiment_12/130.jpg,Experiments/experiment_12/131.jpg,537,1.0,2023-04-17_14h39.02.788,Occlusion_Psychophysics,2022.1.4,MacIntel,30.02101471,,,right,"[""right""]",[0.7513999999985117],False,,0.0,0.0,32.0,32.0,32.0,1.0,,,,,,
,,,,,,,,,,,,,,,,,,,,,0.05,,,,,,,,,,Stimuli/psy_fixed_rotation_30_objects_occ0.7_0.9s/images/train/n02828884_3/n02883344_-1/img_b04_wood_metal_park_bench_woven_box_2005_gray.jpg,n02828884_3,n02883344_-1,fixed,0.757505,n02883344_-1,Stimuli/psy_fixed_rotation_30_objects_occ0.7_0.9s/images/train/n02828884_3/n02883344_-1/img_b04_wood_metal_park_bench_woven_box_2005-3_gray.png,foreground,same as foreground,n02828884_3,n02883344_-1,Stimuli/canonical view 2/img_n02828884_3_gray.jpg,Stimuli/canonical view 2/img_n02883344_-1_gray.jpg,foreground,right,Experiments/experiment_12/132.jpg,Experiments/experiment_12/133.jpg,Experiments/experiment_12/134.jpg,Experiments/experiment_12/135.jpg,537,1.0,2023-04-17_14h39.02.788,Occlusion_Psychophysics,2022.1.4,MacIntel,30.02101471,,,left,"[""left""]",[0.8391999999992095],False,,0.0,0.0,33.0,33.0,33.0,1.0,,,,,,
,,,,,,,,,,,,,,,,,,,,,0.05,,,,,,,,,,Stimuli/psy_flexible_rotation_30_objects_occ0.7_0.9s/images/train/n03928116_4/n04256520_9/img_dp_33_b_2013__vray_napoleon_iii_sofa_2015_gray.jpg,n03928116_4,n04256520_9,flexible,0.725682,n04256520_9,Stimuli/psy_flexible_rotation_30_objects_occ0.7_0.9s/images/train/n03928116_4/n04256520_9/img_dp_33_b_2013__vray_napoleon_iii_sofa_2015-3_gray.png,foreground,same as foreground,n03928116_4,n04256520_9,Stimuli/canonical view 2/img_n03928116_4_gray.jpg,Stimuli/canonical view 2/img_n04256520_9_gray.jpg,foreground,left,Experiments/experiment_12/136.jpg,Experiments/experiment_12/137.jpg,Experiments/experiment_12/138.jpg,Experiments/experiment_12/139.jpg,537,1.0,2023-04-17_14h39.02.788,Occlusion_Psychophysics,2022.1.4,MacIntel,30.02101471,,,right,"[""left""]",[0.8775999999977557],False,,0.0,0.0,34.0,34.0,34.0,1.0,,,,,,
,,,,,,,,,,,,,,,,,,,,,0.025,,,,,,,,,,Stimuli/psy_fixed_rotation_30_objects_occ0.7_0.9s/images/train/n02883344_0/n04256520_9/img_b03_box_napoleon_iii_sofa_2014_gray.jpg,n02883344_0,n04256520_9,fixed,0.863872,n04256520_9,Stimuli/psy_fixed_rotation_30_objects_occ0.7_0.9s/images/train/n02883344_0/n04256520_9/img_b03_box_napoleon_iii_sofa_2014-3_gray.png,foreground,same as foreground,n02883344_0,n04256520_9,Stimuli/canonical view 2/img_n02883344_0_gray.jpg,Stimuli/canonical view 2/img_n04256520_9_gray.jpg,foreground,left,Experiments/experiment_12/140.jpg,Experiments/experiment_12/141.jpg,Experiments/experiment_12/142.jpg,Experiments/experiment_12/143.jpg,537,1.0,2023-04-17_14h39.02.788,Occlusion_Psychophysics,2022.1.4,MacIntel,30.02101471,,,right,"[""right""]",[0.6741999999992458],False,,0.0,0.0,35.0,35.0,35.0,1.0,,,,,,
,,,,,,,,,,,,,,,,,,,,,0.05,,,,,,,,,,Stimuli/psy_fixed_rotation_30_objects_occ0.7_0.9s/images/train/n03928116_0/n04256520_4/img_b02_piano_club_house_italia_nautilus_sofa_2010_gray.jpg,n03928116_0,n04256520_4,fixed,0.718798,n04256520_4,Stimuli/psy_fixed_rotation_30_objects_occ0.7_0.9s/images/train/n03928116_0/n04256520_4/img_b02_piano_club_house_italia_nautilus_sofa_2010-3_gray.png,foreground,same as foreground,n03928116_0,n04256520_4,Stimuli/canonical view 2/img_n03928116_0_gray.jpg,Stimuli/canonical view 2/img_n04256520_4_gray.jpg,foreground,right,Experiments/experiment_12/144.jpg,Experiments/experiment_12/145.jpg,Experiments/experiment_12/146.jpg,Experiments/experiment_12/147.jpg,537,1.0,2023-04-17_14h39.02.788,Occlusion_Psychophysics,2022.1.4,MacIntel,30.02101471,,,right,"[""right""]",[0.6438000000007378],False,,0.0,0.0,36.0,36.0,36.0,1.0,,,,,,
,,,,,,,,,,,,,,,,,,,,,0.025,,,,,,,,,,Stimuli/psy_flexible_rotation_30_objects_occ0.7_0.9s/images/train/n04256520_4/n04256520_5/img_club_house_italia_nautilus_sofa_meridiani_belmondo_bench_sofa_2015_gray.jpg,n04256520_4,n04256520_5,flexible,0.803769,n02818832_3,Stimuli/psy_fixed_rotation_30_objects_occ0.7_0.9s/images/train/n02883344_0/n02818832_3/img_b03_box_b05_ccm_contemporary_bed_max2013_2000-3_gray.png,random,fixed,n04256520_4,n04256520_5,Stimuli/canonical view 2/img_n04256520_4_gray.jpg,Stimuli/canonical view 2/img_n04256520_5_gray.jpg,foreground,right,Experiments/experiment_12/148.jpg,Experiments/experiment_12/149.jpg,Experiments/experiment_12/150.jpg,Experiments/experiment_12/151.jpg,537,1.0,2023-04-17_14h39.02.788,Occlusion_Psychophysics,2022.1.4,MacIntel,30.02101471,,,left,"[""right""]",[0.8863000000008014],False,,0.0,0.0,37.0,37.0,37.0,1.0,,,,,,
,,,,,,,,,,,,,,,,,,,,,0.05,,,,,,,,,,Stimuli/psy_fixed_rotation_30_objects_occ0.7_0.9s/images/train/n04256520_4/n02883344_0/img_club_house_italia_nautilus_sofa_b03_box_2012_gray.jpg,n04256520_4,n02883344_0,fixed,0.702818,n02883344_-1,Stimuli/psy_flexible_rotation_30_objects_occ0.7_0.9s/images/train/n02828884_3/n02883344_-1/img_b04_wood_metal_park_bench_woven_box_2007-3_gray.png,random,flexible,n04256520_4,n02883344_0,Stimuli/canonical view 2/img_n04256520_4_gray.jpg,Stimuli/canonical view 2/img_n02883344_0_gray.jpg,foreground,left,Experiments/experiment_12/152.jpg,Experiments/experiment_12/153.jpg,Experiments/experiment_12/154.jpg,Experiments/experiment_12/155.jpg,537,1.0,2023-04-17_14h39.02.788,Occlusion_Psychophysics,2022.1.4,MacIntel,30.02101471,,,left,"[""left""]",[1.1855000000000473],False,,0.0,0.0,38.0,38.0,38.0,1.0,,,,,,
,,,,,,,,,,,,,,,,,,,,,0.025,,,,,,,,,,Stimuli/psy_fixed_rotation_30_objects_occ0.7_0.9s/images/train/n02883344_15/n02933112_4/img_microwave_box_buffet_2003_gray.jpg,n02883344_15,n02933112_4,fixed,0.790467,n02933112_-18,Stimuli/psy_fixed_rotation_30_objects_occ0.7_0.9s/images/train/n02883344_0/n02933112_-18/img_b03_box_cgaxis_models_48_26_vray_composite_2011-3_gray.png,random,fixed,n02883344_15,n02933112_4,Stimuli/canonical view 2/img_n02883344_15_gray.jpg,Stimuli/canonical view 2/img_n02933112_4_gray.jpg,foreground,left,Experiments/experiment_12/156.jpg,Experiments/experiment_12/157.jpg,Experiments/experiment_12/158.jpg,Experiments/experiment_12/159.jpg,537,1.0,2023-04-17_14h39.02.788,Occlusion_Psychophysics,2022.1.4,MacIntel,30.02101471,,,right,"[""right""]",[0.6176000000014028],False,,0.0,0.0,39.0,39.0,39.0,1.0,,,,,,
,,,,,,,,,,,,,,,,,,,,,0.05,,,,,,,,,,Stimuli/psy_flexible_rotation_30_objects_occ0.7_0.9s/images/train/n02933112_-18/n02933112_4/img_cgaxis_models_48_26_vray_composite_buffet_2011_gray.jpg,n02933112_-18,n02933112_4,flexible,0.840478,n02933112_4,Stimuli/psy_flexible_rotation_30_objects_occ0.7_0.9s/images/train/n02933112_-18/n02933112_4/img_cgaxis_models_48_26_vray_composite_buffet_2011-3_gray.png,foreground,same as foreground,n02933112_-18,n02933112_4,Stimuli/canonical view 2/img_n02933112_-18_gray.jpg,Stimuli/canonical view 2/img_n02933112_4_gray.jpg,foreground,left,Experiments/experiment_12/160.jpg,Experiments/experiment_12/161.jpg,Experiments/experiment_12/162.jpg,Experiments/experiment_12/163.jpg,537,1.0,2023-04-17_14h39.02.788,Occlusion_Psychophysics,2022.1.4,MacIntel,30.02101471,,,left,"[""left""]",[0.6254999999998745],False,,0.0,0.0,40.0,40.0,40.0,1.0,,,,,,
,,,,,,,,,,,,,,,,,,,,,0.05,,,,,,,,,,Stimuli/psy_flexible_rotation_30_objects_occ0.7_0.9s/images/train/n03928116_4/n02818832_0/img_dp_33_b_2013__vray_b03_the_sofa_and_chair_company_-_stanley_bed_2014_2013_gray.jpg,n03928116_4,n02818832_0,flexible,0.74611,n02818832_0,Stimuli/psy_flexible_rotation_30_objects_occ0.7_0.9s/images/train/n03928116_4/n02818832_0/img_dp_33_b_2013__vray_b03_the_sofa_and_chair_company_-_stanley_bed_2014_2013-3_gray.png,foreground,same as foreground,n03928116_4,n04379243_0,Stimuli/canonical view 2/img_n03928116_4_gray.jpg,Stimuli/canonical view 2/img_n04379243_0_gray.jpg,random,left,Experiments/experiment_12/164.jpg,Experiments/experiment_12/165.jpg,Experiments/experiment_12/166.jpg,Experiments/experiment_12/167.jpg,537,1.0,2023-04-17_14h39.02.788,Occlusion_Psychophysics,2022.1.4,MacIntel,30.02101471,,,right,"[""right""]",[0.5853000000008706],False,,0.0,0.0,41.0,41.0,41.0,1.0,,,,,,
,,,,,,,,,,,,,,,,,,,,,0.025,,,,,,,,,,Stimuli/psy_fixed_rotation_30_objects_occ0.7_0.9s/images/train/n04379243_-7/n04405907_9/img_quatre_dining_table_vray_004_2015_gray.jpg,n04379243_-7,n04405907_9,fixed,0.787989,n04405907_9,Stimuli/psy_fixed_rotation_30_objects_occ0.7_0.9s/images/train/n04379243_-7/n04405907_9/img_quatre_dining_table_vray_004_2015-3_gray.png,foreground,same as foreground,n04379243_-7,n04405907_9,Stimuli/canonical view 2/img_n04379243_-7_gray.jpg,Stimuli/canonical view 2/img_n04405907_9_gray.jpg,foreground,left,Experiments/experiment_12/168.jpg,Experiments/experiment_12/169.jpg,Experiments/experiment_12/170.jpg,Experiments/experiment_12/171.jpg,537,1.0,2023-04-17_14h39.02.788,Occlusion_Psychophysics,2022.1.4,MacIntel,30.02101471,,,left,"[""left""]",[0.6361999999992349],False,,0.0,0.0,42.0,42.0,42.0,1.0,,,,,,
,,,,,,,,,,,,,,,,,,,,,0.025,,,,,,,,,,Stimuli/psy_fixed_rotation_30_objects_occ0.7_0.9s/images/train/n02818832_9/n02933112_-18/img_bed01_blue_cgaxis_models_48_26_vray_composite_2006_gray.jpg,n02818832_9,n02933112_-18,fixed,0.710574,n02933112_-18,Stimuli/psy_fixed_rotation_30_objects_occ0.7_0.9s/images/train/n02818832_9/n02933112_-18/img_bed01_blue_cgaxis_models_48_26_vray_composite_2006-3_gray.png,foreground,same as foreground,n02818832_9,n02933112_4,Stimuli/canonical view 2/img_n02818832_9_gray.jpg,Stimuli/canonical view 2/img_n02933112_4_gray.jpg,random,right,Experiments/experiment_12/172.jpg,Experiments/experiment_12/173.jpg,Experiments/experiment_12/174.jpg,Experiments/experiment_12/175.jpg,537,1.0,2023-04-17_14h39.02.788,Occlusion_Psychophysics,2022.1.4,MacIntel,30.02101471,,,right,"[""right""]",[0.7009000000023207],False,,0.0,0.0,43.0,43.0,43.0,1.0,,,,,,
,,,,,,,,,,,,,,,,,,,,,0.025,,,,,,,,,,Stimuli/psy_fixed_rotation_30_objects_occ0.7_0.9s/images/train/n04256520_9/n02883344_0/img_napoleon_iii_sofa_b03_box_2004_gray.jpg,n04256520_9,n02883344_0,fixed,0.840414,n02933112_4,Stimuli/psy_flexible_rotation_30_objects_occ0.7_0.9s/images/train/n03928116_4/n02933112_4/img_dp_33_b_2013__vray_buffet_2011-3_gray.png,random,flexible,n04256520_9,n02883344_15,Stimuli/canonical view 2/img_n04256520_9_gray.jpg,Stimuli/canonical view 2/img_n02883344_15_gray.jpg,random,left,Experiments/experiment_12/176.jpg,Experiments/experiment_12/177.jpg,Experiments/experiment_12/178.jpg,Experiments/experiment_12/179.jpg,537,1.0,2023-04-17_14h39.02.788,Occlusion_Psychophysics,2022.1.4,MacIntel,30.02101471,,,right,"[""left""]",[0.7861999999993259],False,,0.0,0.0,44.0,44.0,44.0,1.0,,,,,,
,,,,,,,,,,,,,,,,,,,,,0.025,,,,,,,,,,Stimuli/psy_flexible_rotation_30_objects_occ0.7_0.9s/images/train/n02933112_4/n04405907_8/img_buffet_stylized_tv_2010_gray.jpg,n02933112_4,n04405907_8,flexible,0.719958,n04405907_8,Stimuli/psy_flexible_rotation_30_objects_occ0.7_0.9s/images/train/n02933112_4/n04405907_8/img_buffet_stylized_tv_2010-3_gray.png,foreground,same as foreground,n02933112_4,n03001627_8,Stimuli/canonical view 2/img_n02933112_4_gray.jpg,Stimuli/canonical view 2/img_n03001627_8_gray.jpg,random,left,Experiments/experiment_12/180.jpg,Experiments/experiment_12/181.jpg,Experiments/experiment_12/182.jpg,Experiments/experiment_12/183.jpg,537,1.0,2023-04-17_14h39.02.788,Occlusion_Psychophysics,2022.1.4,MacIntel,30.02101471,,,left,"[""left""]",[0.7098999999984699],False,,0.0,0.0,45.0,45.0,45.0,1.0,,,,,,
,,,,,,,,,,,,,,,,,,,,,0.05,,,,,,,,,,Stimuli/psy_flexible_rotation_30_objects_occ0.7_0.9s/images/train/n02883344_-1/n04256520_5/img_woven_box_meridiani_belmondo_bench_sofa_2002_gray.jpg,n02883344_-1,n04256520_5,flexible,0.720927,n03928116_0,Stimuli/psy_fixed_rotation_30_objects_occ0.7_0.9s/images/train/n04070727_5/n03928116_0/img_b05_db_apps_tech_06_13_composite_b02_piano_2006-3_gray.png,random,fixed,n02883344_-1,n04256520_5,Stimuli/canonical view 2/img_n02883344_-1_gray.jpg,Stimuli/canonical view 2/img_n04256520_5_gray.jpg,foreground,right,Experiments/experiment_12/184.jpg,Experiments/experiment_12/185.jpg,Experiments/experiment_12/186.jpg,Experiments/experiment_12/187.jpg,537,1.0,2023-04-17_14h39.02.788,Occlusion_Psychophysics,2022.1.4,MacIntel,30.02101471,,,left,"[""left""]",[0.6826999999993859],False,,0.0,0.0,46.0,46.0,46.0,1.0,,,,,,
,,,,,,,,,,,,,,,,,,,,,0.05,,,,,,,,,,Stimuli/psy_fixed_rotation_30_objects_occ0.7_0.9s/images/train/n03928116_0/n02933112_-2/img_b02_piano_sink_base_white_wood_2012_gray.jpg,n03928116_0,n02933112_-2,fixed,0.766484,n02933112_-2,Stimuli/psy_fixed_rotation_30_objects_occ0.7_0.9s/images/train/n03928116_0/n02933112_-2/img_b02_piano_sink_base_white_wood_2012-3_gray.png,foreground,same as foreground,n03928116_0,n02933112_-2,Stimuli/canonical view 2/img_n03928116_0_gray.jpg,Stimuli/canonical view 2/img_n02933112_-2_gray.jpg,foreground,left,Experiments/experiment_12/188.jpg,Experiments/experiment_12/189.jpg,Experiments/experiment_12/190.jpg,Experiments/experiment_12/191.jpg,537,1.0,2023-04-17_14h39.02.788,Occlusion_Psychophysics,2022.1.4,MacIntel,30.02101471,,,right,"[""right""]",[0.549300000000585],False,,0.0,0.0,47.0,47.0,47.0,1.0,,,,,,
,,,,,,,,,,,,,,,,,,,,,0.05,,,,,,,,,,Stimuli/psy_fixed_rotation_30_objects_occ0.7_0.9s/images/train/n02828884_3/n02818832_0/img_b04_wood_metal_park_bench_b03_the_sofa_and_chair_company_-_stanley_bed_2014_2009_gray.jpg,n02828884_3,n02818832_0,fixed,0.707548,n02883344_0,Stimuli/psy_fixed_rotation_30_objects_occ0.7_0.9s/images/train/n04256520_4/n02883344_0/img_club_house_italia_nautilus_sofa_b03_box_2008-3_gray.png,random,fixed,n02828884_3,n03928116_10,Stimuli/canonical view 2/img_n02828884_3_gray.jpg,Stimuli/canonical view 2/img_n03928116_10_gray.jpg,random,right,Experiments/experiment_12/192.jpg,Experiments/experiment_12/193.jpg,Experiments/experiment_12/194.jpg,Experiments/experiment_12/195.jpg,537,1.0,2023-04-17_14h39.02.788,Occlusion_Psychophysics,2022.1.4,MacIntel,30.02101471,,,left,"[""left""]",[0.6648999999986245],False,,0.0,0.0,48.0,48.0,48.0,1.0,,,,,,
,,,,,,,,,,,,,,,,,,,,,0.05,,,,,,,,,,Stimuli/psy_flexible_rotation_30_objects_occ0.7_0.9s/images/train/n02818832_9/n03928116_10/img_bed01_blue_ydp_103_r_2012__vray_2008_gray.jpg,n02818832_9,n03928116_10,flexible,0.776973,n03928116_0,Stimuli/psy_fixed_rotation_30_objects_occ0.7_0.9s/images/train/n04405907_5/n03928116_0/img_samsung_40_uhd_smart_tv_2011_b02_piano_2003-3_gray.png,random,fixed,n02818832_9,n02883344_0,Stimuli/canonical view 2/img_n02818832_9_gray.jpg,Stimuli/canonical view 2/img_n02883344_0_gray.jpg,random,left,Experiments/experiment_12/196.jpg,Experiments/experiment_12/197.jpg,Experiments/experiment_12/198.jpg,Experiments/experiment_12/199.jpg,537,1.0,2023-04-17_14h39.02.788,Occlusion_Psychophysics,2022.1.4,MacIntel,30.02101471,,,right,"[""left""]",[0.7275999999978922],False,,0.0,0.0,49.0,49.0,49.0,1.0,,,,,,
,,,,,,,,,,,,,,,,,,,,,0.05,,,,,,,,,,Stimuli/psy_fixed_rotation_30_objects_occ0.7_0.9s/images/train/n04405907_9/n04256520_4/img_vray_004_club_house_italia_nautilus_sofa_2008_gray.jpg,n04405907_9,n04256520_4,fixed,0.831805,n03928116_0,Stimuli/psy_fixed_rotation_30_objects_occ0.7_0.9s/images/train/n03928116_4/n03928116_0/img_dp_33_b_2013__vray_b02_piano_2002-3_gray.png,random,fixed,n04405907_9,n04256520_4,Stimuli/canonical view 2/img_n04405907_9_gray.jpg,Stimuli/canonical view 2/img_n04256520_4_gray.jpg,foreground,right,Experiments/experiment_12/200.jpg,Experiments/experiment_12/201.jpg,Experiments/experiment_12/202.jpg,Experiments/experiment_12/203.jpg,537,1.0,2023-04-17_14h39.02.788,Occlusion_Psychophysics,2022.1.4,MacIntel,30.02101471,,,right,"[""right""]",[1.0914000000022952],False,,0.0,0.0,50.0,50.0,50.0,1.0,,,,,,
,,,,,,,,,,,,,,,,,,,,,0.025,,,,,,,,,,Stimuli/psy_fixed_rotation_30_objects_occ0.7_0.9s/images/train/n04379243_-7/n04379243_0/img_quatre_dining_table_17th_c._monastery_dining_table_2010_2015_gray.jpg,n04379243_-7,n04379243_0,fixed,0.736477,n04379243_8,Stimuli/psy_flexible_rotation_30_objects_occ0.7_0.9s/images/train/n03001627_-2/n04379243_8/img_wood_chair_glass_table_2015-3_gray.png,random,flexible,n04379243_-7,n04379243_0,Stimuli/canonical view 2/img_n04379243_-7_gray.jpg,Stimuli/canonical view 2/img_n04379243_0_gray.jpg,foreground,left,Experiments/experiment_12/204.jpg,Experiments/experiment_12/205.jpg,Experiments/experiment_12/206.jpg,Experiments/experiment_12/207.jpg,537,1.0,2023-04-17_14h39.02.788,Occlusion_Psychophysics,2022.1.4,MacIntel,30.02101471,,,left,"[""left""]",[0.6356000000014319],False,,0.0,0.0,51.0,51.0,51.0,1.0,,,,,,
,,,,,,,,,,,,,,,,,,,,,0.025,,,,,,,,,,Stimuli/psy_fixed_rotation_30_objects_occ0.7_0.9s/images/train/n02933112_-2/n04256520_4/img_sink_base_white_wood_club_house_italia_nautilus_sofa_2002_gray.jpg,n02933112_-2,n04256520_4,fixed,0.761647,n02883344_-1,Stimuli/psy_flexible_rotation_30_objects_occ0.7_0.9s/images/train/n03001627_8/n02883344_-1/img_chair_billiani_doll_woven_box_2002-3_gray.png,random,flexible,n02933112_-2,n02883344_-1,Stimuli/canonical view 2/img_n02933112_-2_gray.jpg,Stimuli/canonical view 2/img_n02883344_-1_gray.jpg,random,right,Experiments/experiment_12/208.jpg,Experiments/experiment_12/209.jpg,Experiments/experiment_12/210.jpg,Experiments/experiment_12/211.jpg,537,1.0,2023-04-17_14h39.02.788,Occlusion_Psychophysics,2022.1.4,MacIntel,30.02101471,,,left,"[""left""]",[0.5895999999977448],False,,0.0,0.0,52.0,52.0,52.0,1.0,,,,,,
,,,,,,,,,,,,,,,,,,,,,0.025,,,,,,,,,,Stimuli/psy_fixed_rotation_30_objects_occ0.7_0.9s/images/train/n02818832_3/n04256520_4/img_b05_ccm_contemporary_bed_max2013_club_house_italia_nautilus_sofa_2005_gray.jpg,n02818832_3,n04256520_4,fixed,0.724791,n04256520_4,Stimuli/psy_fixed_rotation_30_objects_occ0.7_0.9s/images/train/n02818832_3/n04256520_4/img_b05_ccm_contemporary_bed_max2013_club_house_italia_nautilus_sofa_2005-3_gray.png,foreground,same as foreground,n02818832_3,n04256520_4,Stimuli/canonical view 2/img_n02818832_3_gray.jpg,Stimuli/canonical view 2/img_n04256520_4_gray.jpg,foreground,left,Experiments/experiment_12/212.jpg,Experiments/experiment_12/213.jpg,Experiments/experiment_12/214.jpg,Experiments/experiment_12/215.jpg,537,1.0,2023-04-17_14h39.02.788,Occlusion_Psychophysics,2022.1.4,MacIntel,30.02101471,,,left,"[""left""]",[0.9863000000007105],False,,0.0,0.0,53.0,53.0,53.0,1.0,,,,,,
,,,,,,,,,,,,,,,,,,,,,0.025,,,,,,,,,,Stimuli/psy_flexible_rotation_30_objects_occ0.7_0.9s/images/train/n04256520_9/n02883344_15/img_napoleon_iii_sofa_microwave_box_2006_gray.jpg,n04256520_9,n02883344_15,flexible,0.772926,n04405907_8,Stimuli/psy_fixed_rotation_30_objects_occ0.7_0.9s/images/train/n03001627_8/n04405907_8/img_chair_billiani_doll_stylized_tv_2000-3_gray.png,random,fixed,n04256520_9,n03001627_9,Stimuli/canonical view 2/img_n04256520_9_gray.jpg,Stimuli/canonical view 2/img_n03001627_9_gray.jpg,random,right,Experiments/experiment_12/216.jpg,Experiments/experiment_12/217.jpg,Experiments/experiment_12/218.jpg,Experiments/experiment_12/219.jpg,537,1.0,2023-04-17_14h39.02.788,Occlusion_Psychophysics,2022.1.4,MacIntel,30.02101471,,,left,"[""left""]",[0.6315999999976611],False,,0.0,0.0,54.0,54.0,54.0,1.0,,,,,,
,,,,,,,,,,,,,,,,,,,,,0.025,,,,,,,,,,Stimuli/psy_fixed_rotation_30_objects_occ0.7_0.9s/images/train/n02883344_-1/n04405907_9/img_woven_box_vray_004_2006_gray.jpg,n02883344_-1,n04405907_9,fixed,0.771736,n04405907_8,Stimuli/psy_fixed_rotation_30_objects_occ0.7_0.9s/images/train/n03001627_9/n04405907_8/img_chair_eames_plastic_armchair_stylized_tv_2007-3_gray.png,random,fixed,n02883344_-1,n02883344_15,Stimuli/canonical view 2/img_n02883344_-1_gray.jpg,Stimuli/canonical view 2/img_n02883344_15_gray.jpg,random,left,Experiments/experiment_12/220.jpg,Experiments/experiment_12/221.jpg,Experiments/experiment_12/222.jpg,Experiments/experiment_12/223.jpg,537,1.0,2023-04-17_14h39.02.788,Occlusion_Psychophysics,2022.1.4,MacIntel,30.02101471,,,right,"[""left""]",[0.8708000000008269],False,,0.0,0.0,55.0,55.0,55.0,1.0,,,,,,
,,,,,,,,,,,,,,,,,,,,,0.025,,,,,,,,,,Stimuli/psy_fixed_rotation_30_objects_occ0.7_0.9s/images/train/n02933112_-18/n02883344_15/img_cgaxis_models_48_26_vray_composite_microwave_box_2014_gray.jpg,n02933112_-18,n02883344_15,fixed,0.827932,n02883344_15,Stimuli/psy_fixed_rotation_30_objects_occ0.7_0.9s/images/train/n02933112_-18/n02883344_15/img_cgaxis_models_48_26_vray_composite_microwave_box_2014-3_gray.png,foreground,same as foreground,n02933112_-18,n04379243_0,Stimuli/canonical view 2/img_n02933112_-18_gray.jpg,Stimuli/canonical view 2/img_n04379243_0_gray.jpg,random,left,Experiments/experiment_12/224.jpg,Experiments/experiment_12/225.jpg,Experiments/experiment_12/226.jpg,Experiments/experiment_12/227.jpg,537,1.0,2023-04-17_14h39.02.788,Occlusion_Psychophysics,2022.1.4,MacIntel,30.02101471,,,left,"[""right""]",[0.667400000002317],True,left,1.0,0.0,56.0,56.0,56.0,1.0,2.0519,,,,,
,,,,,,,,,,,,,,,,,,,,,0.025,,,,,,,,,,Stimuli/psy_fixed_rotation_30_objects_occ0.7_0.9s/images/train/n04379243_8/n02933112_-18/img_glass_table_cgaxis_models_48_26_vray_composite_2002_gray.jpg,n04379243_8,n02933112_-18,fixed,0.786316,n03928116_0,Stimuli/psy_fixed_rotation_30_objects_occ0.7_0.9s/images/train/n02818832_3/n03928116_0/img_b05_ccm_contemporary_bed_max2013_b02_piano_2002-3_gray.png,random,fixed,n04379243_8,n02933112_-18,Stimuli/canonical view 2/img_n04379243_8_gray.jpg,Stimuli/canonical view 2/img_n02933112_-18_gray.jpg,foreground,left,Experiments/experiment_12/228.jpg,Experiments/experiment_12/229.jpg,Experiments/experiment_12/230.jpg,Experiments/experiment_12/231.jpg,537,1.0,2023-04-17_14h39.02.788,Occlusion_Psychophysics,2022.1.4,MacIntel,30.02101471,,,right,"[""right""]",[0.5859000000020842],False,,0.0,0.0,57.0,57.0,57.0,1.0,,,,,,
,,,,,,,,,,,,,,,,,,,,,0.05,,,,,,,,,,Stimuli/psy_flexible_rotation_30_objects_occ0.7_0.9s/images/train/n04379243_-7/n02933112_-2/img_quatre_dining_table_sink_base_white_wood_2002_gray.jpg,n04379243_-7,n02933112_-2,flexible,0.704485,n02933112_-2,Stimuli/psy_flexible_rotation_30_objects_occ0.7_0.9s/images/train/n04379243_-7/n02933112_-2/img_quatre_dining_table_sink_base_white_wood_2002-3_gray.png,foreground,same as foreground,n04379243_-7,n02933112_-2,Stimuli/canonical view 2/img_n04379243_-7_gray.jpg,Stimuli/canonical view 2/img_n02933112_-2_gray.jpg,foreground,left,Experiments/experiment_12/232.jpg,Experiments/experiment_12/233.jpg,Experiments/experiment_12/234.jpg,Experiments/experiment_12/235.jpg,537,1.0,2023-04-17_14h39.02.788,Occlusion_Psychophysics,2022.1.4,MacIntel,30.02101471,,,right,"[""right""]",[0.6157999999970798],False,,0.0,0.0,58.0,58.0,58.0,1.0,,,,,,
,,,,,,,,,,,,,,,,,,,,,0.025,,,,,,,,,,Stimuli/psy_flexible_rotation_30_objects_occ0.7_0.9s/images/train/n04379243_-7/n04405907_9/img_quatre_dining_table_vray_004_2004_gray.jpg,n04379243_-7,n04405907_9,flexible,0.78853,n02883344_15,Stimuli/psy_fixed_rotation_30_objects_occ0.7_0.9s/images/train/n02933112_-2/n02883344_15/img_sink_base_white_wood_microwave_box_2007-3_gray.png,random,fixed,n04379243_-7,n03001627_9,Stimuli/canonical view 2/img_n04379243_-7_gray.jpg,Stimuli/canonical view 2/img_n03001627_9_gray.jpg,random,right,Experiments/experiment_12/236.jpg,Experiments/experiment_12/237.jpg,Experiments/experiment_12/238.jpg,Experiments/experiment_12/239.jpg,537,1.0,2023-04-17_14h39.02.788,Occlusion_Psychophysics,2022.1.4,MacIntel,30.02101471,,,right,"[""right""]",[0.6693999999984044],False,,0.0,0.0,59.0,59.0,59.0,1.0,,,,,,
,,,,,,,,,,,,,,,,,,,,,0.025,,,,,,,,,,Stimuli/psy_fixed_rotation_30_objects_occ0.7_0.9s/images/train/n04405907_5/n02818832_9/img_samsung_40_uhd_smart_tv_2011_bed01_blue_2013_gray.jpg,n04405907_5,n02818832_9,fixed,0.814986,n02818832_9,Stimuli/psy_fixed_rotation_30_objects_occ0.7_0.9s/images/train/n04405907_5/n02818832_9/img_samsung_40_uhd_smart_tv_2011_bed01_blue_2013-3_gray.png,foreground,same as foreground,n04405907_5,n02828884_9,Stimuli/canonical view 2/img_n04405907_5_gray.jpg,Stimuli/canonical view 2/img_n02828884_9_gray.jpg,random,left,Experiments/experiment_12/240.jpg,Experiments/experiment_12/241.jpg,Experiments/experiment_12/242.jpg,Experiments/experiment_12/243.jpg,537,1.0,2023-04-17_14h39.02.788,Occlusion_Psychophysics,2022.1.4,MacIntel,30.02101471,,,right,"[""left""]",[0.7718000000008942],False,,0.0,0.0,60.0,60.0,60.0,1.0,,,,,,
,,,,,,,,,,,,,,,,,,,,,0.05,,,,,,,,,,Stimuli/psy_flexible_rotation_30_objects_occ0.7_0.9s/images/train/n03928116_4/n02933112_-2/img_dp_33_b_2013__vray_sink_base_white_wood_2006_gray.jpg,n03928116_4,n02933112_-2,flexible,0.710703,n02883344_0,Stimuli/psy_fixed_rotation_30_objects_occ0.7_0.9s/images/train/n02933112_4/n02883344_0/img_buffet_b03_box_2006-3_gray.png,random,fixed,n03928116_4,n02933112_-2,Stimuli/canonical view 2/img_n03928116_4_gray.jpg,Stimuli/canonical view 2/img_n02933112_-2_gray.jpg,foreground,left,Experiments/experiment_12/244.jpg,Experiments/experiment_12/245.jpg,Experiments/experiment_12/246.jpg,Experiments/experiment_12/247.jpg,537,1.0,2023-04-17_14h39.02.788,Occlusion_Psychophysics,2022.1.4,MacIntel,30.02101471,,,right,"[""right""]",[0.674899999998388],False,,0.0,0.0,61.0,61.0,61.0,1.0,,,,,,
,,,,,,,,,,,,,,,,,,,,,0.025,,,,,,,,,,Stimuli/psy_fixed_rotation_30_objects_occ0.7_0.9s/images/train/n02883344_0/n04256520_9/img_b03_box_napoleon_iii_sofa_2005_gray.jpg,n02883344_0,n04256520_9,fixed,0.722748,n04256520_9,Stimuli/psy_fixed_rotation_30_objects_occ0.7_0.9s/images/train/n02883344_0/n04256520_9/img_b03_box_napoleon_iii_sofa_2005-3_gray.png,foreground,same as foreground,n02883344_0,n02828884_3,Stimuli/canonical view 2/img_n02883344_0_gray.jpg,Stimuli/canonical view 2/img_n02828884_3_gray.jpg,random,right,Experiments/experiment_12/248.jpg,Experiments/experiment_12/249.jpg,Experiments/experiment_12/250.jpg,Experiments/experiment_12/251.jpg,537,1.0,2023-04-17_14h39.02.788,Occlusion_Psychophysics,2022.1.4,MacIntel,30.02101471,,,left,"[""left""]",[0.9629000000022643],False,,0.0,0.0,62.0,62.0,62.0,1.0,,,,,,
,,,,,,,,,,,,,,,,,,,,,0.05,,,,,,,,,,Stimuli/psy_flexible_rotation_30_objects_occ0.7_0.9s/images/train/n02818832_0/n04256520_9/img_b03_the_sofa_and_chair_company_-_stanley_bed_2014_napoleon_iii_sofa_2007_gray.jpg,n02818832_0,n04256520_9,flexible,0.811299,n04256520_9,Stimuli/psy_flexible_rotation_30_objects_occ0.7_0.9s/images/train/n02818832_0/n04256520_9/img_b03_the_sofa_and_chair_company_-_stanley_bed_2014_napoleon_iii_sofa_2007-3_gray.png,foreground,same as foreground,n02818832_0,n04256520_9,Stimuli/canonical view 2/img_n02818832_0_gray.jpg,Stimuli/canonical view 2/img_n04256520_9_gray.jpg,foreground,left,Experiments/experiment_12/252.jpg,Experiments/experiment_12/253.jpg,Experiments/experiment_12/254.jpg,Experiments/experiment_12/255.jpg,537,1.0,2023-04-17_14h39.02.788,Occlusion_Psychophysics,2022.1.4,MacIntel,30.02101471,,,left,"[""left""]",[1.4358999999985826],False,,0.0,0.0,63.0,63.0,63.0,1.0,,,,,,
,,,,,,,,,,,,,,,,,,,,,0.025,,,,,,,,,,Stimuli/psy_flexible_rotation_30_objects_occ0.7_0.9s/images/train/n02883344_-1/n03928116_0/img_woven_box_b02_piano_2001_gray.jpg,n02883344_-1,n03928116_0,flexible,0.710277,n02933112_-18,Stimuli/psy_fixed_rotation_30_objects_occ0.7_0.9s/images/train/n02818832_9/n02933112_-18/img_bed01_blue_cgaxis_models_48_26_vray_composite_2001-3_gray.png,random,fixed,n02883344_-1,n02883344_0,Stimuli/canonical view 2/img_n02883344_-1_gray.jpg,Stimuli/canonical view 2/img_n02883344_0_gray.jpg,random,left,Experiments/experiment_12/256.jpg,Experiments/experiment_12/257.jpg,Experiments/experiment_12/258.jpg,Experiments/experiment_12/259.jpg,537,1.0,2023-04-17_14h39.02.788,Occlusion_Psychophysics,2022.1.4,MacIntel,30.02101471,,,right,"[""right""]",[1.210800000000745],False,,0.0,0.0,64.0,64.0,64.0,1.0,,,,,,
,,,,,,,,,,,,,,,,,,,,,0.05,,,,,,,,,,Stimuli/psy_fixed_rotation_30_objects_occ0.7_0.9s/images/train/n02818832_0/n02883344_15/img_b03_the_sofa_and_chair_company_-_stanley_bed_2014_microwave_box_2010_gray.jpg,n02818832_0,n02883344_15,fixed,0.7422,n02818832_3,Stimuli/psy_flexible_rotation_30_objects_occ0.7_0.9s/images/train/n04405907_8/n02818832_3/img_stylized_tv_b05_ccm_contemporary_bed_max2013_2004-3_gray.png,random,flexible,n02818832_0,n02828884_9,Stimuli/canonical view 2/img_n02818832_0_gray.jpg,Stimuli/canonical view 2/img_n02828884_9_gray.jpg,random,left,Experiments/experiment_12/260.jpg,Experiments/experiment_12/261.jpg,Experiments/experiment_12/262.jpg,Experiments/experiment_12/263.jpg,537,1.0,2023-04-17_14h39.02.788,Occlusion_Psychophysics,2022.1.4,MacIntel,30.02101471,,,left,"[""left""]",[0.8718000000008033],False,,0.0,0.0,65.0,65.0,65.0,1.0,,,,,,
,,,,,,,,,,,,,,,,,,,,,0.05,,,,,,,,,,Stimuli/psy_flexible_rotation_30_objects_occ0.7_0.9s/images/train/n04379243_0/n04405907_9/img_17th_c._monastery_dining_table_2010_vray_004_2007_gray.jpg,n04379243_0,n04405907_9,flexible,0.746778,n04405907_9,Stimuli/psy_flexible_rotation_30_objects_occ0.7_0.9s/images/train/n04379243_0/n04405907_9/img_17th_c._monastery_dining_table_2010_vray_004_2007-3_gray.png,foreground,same as foreground,n04379243_0,n03001627_-2,Stimuli/canonical view 2/img_n04379243_0_gray.jpg,Stimuli/canonical view 2/img_n03001627_-2_gray.jpg,random,left,Experiments/experiment_12/264.jpg,Experiments/experiment_12/265.jpg,Experiments/experiment_12/266.jpg,Experiments/experiment_12/267.jpg,537,1.0,2023-04-17_14h39.02.788,Occlusion_Psychophysics,2022.1.4,MacIntel,30.02101471,,,right,"[""right""]",[0.6770000000001346],False,,0.0,0.0,66.0,66.0,66.0,1.0,,,,,,
,,,,,,,,,,,,,,,,,,,,,0.05,,,,,,,,,,Stimuli/psy_fixed_rotation_30_objects_occ0.7_0.9s/images/train/n02933112_-18/n04379243_-7/img_cgaxis_models_48_26_vray_composite_quatre_dining_table_2009_gray.jpg,n02933112_-18,n04379243_-7,fixed,0.714553,n02933112_4,Stimuli/psy_fixed_rotation_30_objects_occ0.7_0.9s/images/train/n04405907_9/n02933112_4/img_vray_004_buffet_2004-3_gray.png,random,fixed,n02933112_-18,n04379243_-7,Stimuli/canonical view 2/img_n02933112_-18_gray.jpg,Stimuli/canonical view 2/img_n04379243_-7_gray.jpg,foreground,left,Experiments/experiment_12/268.jpg,Experiments/experiment_12/269.jpg,Experiments/experiment_12/270.jpg,Experiments/experiment_12/271.jpg,537,1.0,2023-04-17_14h39.02.788,Occlusion_Psychophysics,2022.1.4,MacIntel,30.02101471,,,right,"[""left""]",[0.8193000000007942],False,,0.0,0.0,67.0,67.0,67.0,1.0,,,,,,
,,,,,,,,,,,,,,,,,,,,,0.05,,,,,,,,,,Stimuli/psy_fixed_rotation_30_objects_occ0.7_0.9s/images/train/n02933112_-2/n02818832_0/img_sink_base_white_wood_b03_the_sofa_and_chair_company_-_stanley_bed_2014_2009_gray.jpg,n02933112_-2,n02818832_0,fixed,0.752916,n04256520_9,Stimuli/psy_fixed_rotation_30_objects_occ0.7_0.9s/images/train/n02818832_9/n04256520_9/img_bed01_blue_napoleon_iii_sofa_2008-3_gray.png,random,fixed,n02933112_-2,n02818832_9,Stimuli/canonical view 2/img_n02933112_-2_gray.jpg,Stimuli/canonical view 2/img_n02818832_9_gray.jpg,random,left,Experiments/experiment_12/272.jpg,Experiments/experiment_12/273.jpg,Experiments/experiment_12/274.jpg,Experiments/experiment_12/275.jpg,537,1.0,2023-04-17_14h39.02.788,Occlusion_Psychophysics,2022.1.4,MacIntel,30.02101471,,,left,"[""left""]",[0.6943000000007942],False,,0.0,0.0,68.0,68.0,68.0,1.0,,,,,,
,,,,,,,,,,,,,,,,,,,,,0.05,,,,,,,,,,Stimuli/psy_flexible_rotation_30_objects_occ0.7_0.9s/images/train/n02818832_9/n02883344_15/img_bed01_blue_microwave_box_2005_gray.jpg,n02818832_9,n02883344_15,flexible,0.72161,n03928116_0,Stimuli/psy_fixed_rotation_30_objects_occ0.7_0.9s/images/train/n02883344_15/n03928116_0/img_microwave_box_b02_piano_2011-3_gray.png,random,fixed,n02818832_9,n02883344_15,Stimuli/canonical view 2/img_n02818832_9_gray.jpg,Stimuli/canonical view 2/img_n02883344_15_gray.jpg,foreground,right,Experiments/experiment_12/276.jpg,Experiments/experiment_12/277.jpg,Experiments/experiment_12/278.jpg,Experiments/experiment_12/279.jpg,537,1.0,2023-04-17_14h39.02.788,Occlusion_Psychophysics,2022.1.4,MacIntel,30.02101471,,,right,"[""left""]",[0.8158999999984644],False,,0.0,0.0,69.0,69.0,69.0,1.0,,,,,,
,,,,,,,,,,,,,,,,,,,,,0.025,,,,,,,,,,Stimuli/psy_flexible_rotation_30_objects_occ0.7_0.9s/images/train/n02883344_15/n02818832_9/img_microwave_box_bed01_blue_2012_gray.jpg,n02883344_15,n02818832_9,flexible,0.83025,n02933112_-2,Stimuli/psy_fixed_rotation_30_objects_occ0.7_0.9s/images/train/n02933112_4/n02933112_-2/img_buffet_sink_base_white_wood_2010-3_gray.png,random,fixed,n02883344_15,n02818832_9,Stimuli/canonical view 2/img_n02883344_15_gray.jpg,Stimuli/canonical view 2/img_n02818832_9_gray.jpg,foreground,right,Experiments/experiment_12/280.jpg,Experiments/experiment_12/281.jpg,Experiments/experiment_12/282.jpg,Experiments/experiment_12/283.jpg,537,1.0,2023-04-17_14h39.02.788,Occlusion_Psychophysics,2022.1.4,MacIntel,30.02101471,,,left,"[""left""]",[0.8736999999994168],False,,0.0,0.0,70.0,70.0,70.0,1.0,,,,,,
,,,,,,,,,,,,,,,,,,,,,0.05,,,,,,,,,,Stimuli/psy_flexible_rotation_30_objects_occ0.7_0.9s/images/train/n03001627_9/n04405907_5/img_chair_eames_plastic_armchair_samsung_40_uhd_smart_tv_2011_2006_gray.jpg,n03001627_9,n04405907_5,flexible,0.754194,n04405907_9,Stimuli/psy_flexible_rotation_30_objects_occ0.7_0.9s/images/train/n02818832_0/n04405907_9/img_b03_the_sofa_and_chair_company_-_stanley_bed_2014_vray_004_2012-3_gray.png,random,flexible,n03001627_9,n04379243_0,Stimuli/canonical view 2/img_n03001627_9_gray.jpg,Stimuli/canonical view 2/img_n04379243_0_gray.jpg,random,right,Experiments/experiment_12/284.jpg,Experiments/experiment_12/285.jpg,Experiments/experiment_12/286.jpg,Experiments/experiment_12/287.jpg,537,1.0,2023-04-17_14h39.02.788,Occlusion_Psychophysics,2022.1.4,MacIntel,30.02101471,,,left,"[""left""]",[0.7783000000008542],False,,0.0,0.0,71.0,71.0,71.0,1.0,,,,,,
,,,,,,,,,,,,,,,,,,,,,0.05,,,,,,,,,,Stimuli/psy_fixed_rotation_30_objects_occ0.7_0.9s/images/train/n02818832_0/n04405907_9/img_b03_the_sofa_and_chair_company_-_stanley_bed_2014_vray_004_2008_gray.jpg,n02818832_0,n04405907_9,fixed,0.714992,n04405907_9,Stimuli/psy_fixed_rotation_30_objects_occ0.7_0.9s/images/train/n02818832_0/n04405907_9/img_b03_the_sofa_and_chair_company_-_stanley_bed_2014_vray_004_2008-3_gray.png,foreground,same as foreground,n02818832_0,n04256520_9,Stimuli/canonical view 2/img_n02818832_0_gray.jpg,Stimuli/canonical view 2/img_n04256520_9_gray.jpg,random,right,Experiments/experiment_12/288.jpg,Experiments/experiment_12/289.jpg,Experiments/experiment_12/290.jpg,Experiments/experiment_12/291.jpg,537,1.0,2023-04-17_14h39.02.788,Occlusion_Psychophysics,2022.1.4,MacIntel,30.02101471,,,right,"[""right""]",[0.7051999999994223],False,,0.0,0.0,72.0,72.0,72.0,1.0,,,,,,
,,,,,,,,,,,,,,,,,,,,,0.05,,,,,,,,,,Stimuli/psy_flexible_rotation_30_objects_occ0.7_0.9s/images/train/n03001627_-2/n04379243_8/img_wood_chair_glass_table_2014_gray.jpg,n03001627_-2,n04379243_8,flexible,0.768229,n04379243_8,Stimuli/psy_flexible_rotation_30_objects_occ0.7_0.9s/images/train/n03001627_-2/n04379243_8/img_wood_chair_glass_table_2014-3_gray.png,foreground,same as foreground,n03001627_-2,n04405907_8,Stimuli/canonical view 2/img_n03001627_-2_gray.jpg,Stimuli/canonical view 2/img_n04405907_8_gray.jpg,random,left,Experiments/experiment_12/292.jpg,Experiments/experiment_12/293.jpg,Experiments/experiment_12/294.jpg,Experiments/experiment_12/295.jpg,537,1.0,2023-04-17_14h39.02.788,Occlusion_Psychophysics,2022.1.4,MacIntel,30.02101471,,,left,"[""left""]",[1.0347999999971762],False,,0.0,0.0,73.0,73.0,73.0,1.0,,,,,,
,,,,,,,,,,,,,,,,,,,,,0.05,,,,,,,,,,Stimuli/psy_fixed_rotation_30_objects_occ0.7_0.9s/images/train/n04379243_8/n02818832_0/img_glass_table_b03_the_sofa_and_chair_company_-_stanley_bed_2014_2007_gray.jpg,n04379243_8,n02818832_0,fixed,0.720225,n02818832_0,Stimuli/psy_fixed_rotation_30_objects_occ0.7_0.9s/images/train/n04379243_8/n02818832_0/img_glass_table_b03_the_sofa_and_chair_company_-_stanley_bed_2014_2007-3_gray.png,foreground,same as foreground,n04379243_8,n02933112_4,Stimuli/canonical view 2/img_n04379243_8_gray.jpg,Stimuli/canonical view 2/img_n02933112_4_gray.jpg,random,right,Experiments/experiment_12/296.jpg,Experiments/experiment_12/297.jpg,Experiments/experiment_12/298.jpg,Experiments/experiment_12/299.jpg,537,1.0,2023-04-17_14h39.02.788,Occlusion_Psychophysics,2022.1.4,MacIntel,30.02101471,,,right,"[""right""]",[0.6585999999979322],False,,0.0,0.0,74.0,74.0,74.0,1.0,,,,,,
,,,,,,,,,,,,,,,,,,,,,0.05,,,,,,,,,,Stimuli/psy_flexible_rotation_30_objects_occ0.7_0.9s/images/train/n02818832_0/n02933112_-18/img_b03_the_sofa_and_chair_company_-_stanley_bed_2014_cgaxis_models_48_26_vray_composite_2001_gray.jpg,n02818832_0,n02933112_-18,flexible,0.762607,n02933112_-18,Stimuli/psy_flexible_rotation_30_objects_occ0.7_0.9s/images/train/n02818832_0/n02933112_-18/img_b03_the_sofa_and_chair_company_-_stanley_bed_2014_cgaxis_models_48_26_vray_composite_2001-3_gray.png,foreground,same as foreground,n02818832_0,n02818832_9,Stimuli/canonical view 2/img_n02818832_0_gray.jpg,Stimuli/canonical view 2/img_n02818832_9_gray.jpg,random,left,Experiments/experiment_12/300.jpg,Experiments/experiment_12/301.jpg,Experiments/experiment_12/302.jpg,Experiments/experiment_12/303.jpg,537,1.0,2023-04-17_14h39.02.788,Occlusion_Psychophysics,2022.1.4,MacIntel,30.02101471,,,right,"[""right""]",[0.6772000000030403],False,,0.0,0.0,75.0,75.0,75.0,1.0,,,,,,
,,,,,,,,,,,,,,,,,,,,,0.025,,,,,,,,,,Stimuli/psy_fixed_rotation_30_objects_occ0.7_0.9s/images/train/n02818832_9/n02883344_0/img_bed01_blue_b03_box_2006_gray.jpg,n02818832_9,n02883344_0,fixed,0.736506,n02883344_0,Stimuli/psy_fixed_rotation_30_objects_occ0.7_0.9s/images/train/n02818832_9/n02883344_0/img_bed01_blue_b03_box_2006-3_gray.png,foreground,same as foreground,n02818832_9,n02883344_0,Stimuli/canonical view 2/img_n02818832_9_gray.jpg,Stimuli/canonical view 2/img_n02883344_0_gray.jpg,foreground,right,Experiments/experiment_12/304.jpg,Experiments/experiment_12/305.jpg,Experiments/experiment_12/306.jpg,Experiments/experiment_12/307.jpg,537,1.0,2023-04-17_14h39.02.788,Occlusion_Psychophysics,2022.1.4,MacIntel,30.02101471,,,right,"[""left""]",[1.268000000000029],False,,0.0,0.0,76.0,76.0,76.0,1.0,,,,,,
,,,,,,,,,,,,,,,,,,,,,0.025,,,,,,,,,,Stimuli/psy_fixed_rotation_30_objects_occ0.7_0.9s/images/train/n02818832_0/n04405907_9/img_b03_the_sofa_and_chair_company_-_stanley_bed_2014_vray_004_2010_gray.jpg,n02818832_0,n04405907_9,fixed,0.787891,n04405907_9,Stimuli/psy_fixed_rotation_30_objects_occ0.7_0.9s/images/train/n02818832_0/n04405907_9/img_b03_the_sofa_and_chair_company_-_stanley_bed_2014_vray_004_2010-3_gray.png,foreground,same as foreground,n02818832_0,n04405907_9,Stimuli/canonical view 2/img_n02818832_0_gray.jpg,Stimuli/canonical view 2/img_n04405907_9_gray.jpg,foreground,left,Experiments/experiment_12/308.jpg,Experiments/experiment_12/309.jpg,Experiments/experiment_12/310.jpg,Experiments/experiment_12/311.jpg,537,1.0,2023-04-17_14h39.02.788,Occlusion_Psychophysics,2022.1.4,MacIntel,30.02101471,,,left,"[""left""]",[0.7893000000005941],False,,0.0,0.0,77.0,77.0,77.0,1.0,,,,,,
,,,,,,,,,,,,,,,,,,,,,0.05,,,,,,,,,,Stimuli/psy_fixed_rotation_30_objects_occ0.7_0.9s/images/train/n02818832_0/n02933112_-18/img_b03_the_sofa_and_chair_company_-_stanley_bed_2014_cgaxis_models_48_26_vray_composite_2009_gray.jpg,n02818832_0,n02933112_-18,fixed,0.732942,n02883344_0,Stimuli/psy_flexible_rotation_30_objects_occ0.7_0.9s/images/train/n04256520_4/n02883344_0/img_club_house_italia_nautilus_sofa_b03_box_2004-3_gray.png,random,flexible,n02818832_0,n02933112_-18,Stimuli/canonical view 2/img_n02818832_0_gray.jpg,Stimuli/canonical view 2/img_n02933112_-18_gray.jpg,foreground,left,Experiments/experiment_12/312.jpg,Experiments/experiment_12/313.jpg,Experiments/experiment_12/314.jpg,Experiments/experiment_12/315.jpg,537,1.0,2023-04-17_14h39.02.788,Occlusion_Psychophysics,2022.1.4,MacIntel,30.02101471,,,right,"[""right""]",[0.6723000000008597],False,,0.0,0.0,78.0,78.0,78.0,1.0,,,,,,
,,,,,,,,,,,,,,,,,,,,,0.025,,,,,,,,,,Stimuli/psy_fixed_rotation_30_objects_occ0.7_0.9s/images/train/n02883344_15/n04256520_4/img_microwave_box_club_house_italia_nautilus_sofa_2011_gray.jpg,n02883344_15,n04256520_4,fixed,0.760439,n02883344_15,Stimuli/psy_flexible_rotation_30_objects_occ0.7_0.9s/images/train/n03001627_-2/n02883344_15/img_wood_chair_microwave_box_2011-3_gray.png,random,flexible,n02883344_15,n04256520_9,Stimuli/canonical view 2/img_n02883344_15_gray.jpg,Stimuli/canonical view 2/img_n04256520_9_gray.jpg,random,right,Experiments/experiment_12/316.jpg,Experiments/experiment_12/317.jpg,Experiments/experiment_12/318.jpg,Experiments/experiment_12/319.jpg,537,1.0,2023-04-17_14h39.02.788,Occlusion_Psychophysics,2022.1.4,MacIntel,30.02101471,,,right,"[""right""]",[0.7526000000016211],False,,0.0,0.0,79.0,79.0,79.0,1.0,,,,,,
,,,,,,,,,,,,,,,,,,,,,0.05,,,,,,,,,,Stimuli/psy_flexible_rotation_30_objects_occ0.7_0.9s/images/train/n04256520_9/n02883344_15/img_napoleon_iii_sofa_microwave_box_2010_gray.jpg,n04256520_9,n02883344_15,flexible,0.735944,n02883344_15,Stimuli/psy_flexible_rotation_30_objects_occ0.7_0.9s/images/train/n04256520_9/n02883344_15/img_napoleon_iii_sofa_microwave_box_2010-3_gray.png,foreground,same as foreground,n04256520_9,n02883344_15,Stimuli/canonical view 2/img_n04256520_9_gray.jpg,Stimuli/canonical view 2/img_n02883344_15_gray.jpg,foreground,right,Experiments/experiment_12/320.jpg,Experiments/experiment_12/321.jpg,Experiments/experiment_12/322.jpg,Experiments/experiment_12/323.jpg,537,1.0,2023-04-17_14h39.02.788,Occlusion_Psychophysics,2022.1.4,MacIntel,30.02101471,,,right,"[""right""]",[0.7596000000014556],False,,0.0,0.0,80.0,80.0,80.0,1.0,,,,,,
,,,,,,,,,,,,,,,,,,,,,0.05,,,,,,,,,,Stimuli/psy_fixed_rotation_30_objects_occ0.7_0.9s/images/train/n04405907_9/n04256520_9/img_vray_004_napoleon_iii_sofa_2012_gray.jpg,n04405907_9,n04256520_9,fixed,0.826087,n03928116_4,Stimuli/psy_fixed_rotation_30_objects_occ0.7_0.9s/images/train/n04379243_0/n03928116_4/img_17th_c._monastery_dining_table_2010_dp_33_b_2013__vray_2014-3_gray.png,random,fixed,n04405907_9,n04256520_9,Stimuli/canonical view 2/img_n04405907_9_gray.jpg,Stimuli/canonical view 2/img_n04256520_9_gray.jpg,foreground,left,Experiments/experiment_12/324.jpg,Experiments/experiment_12/325.jpg,Experiments/experiment_12/326.jpg,Experiments/experiment_12/327.jpg,537,1.0,2023-04-17_14h39.02.788,Occlusion_Psychophysics,2022.1.4,MacIntel,30.02101471,,,right,"[""left""]",[1.0623000000007323],False,,0.0,0.0,81.0,81.0,81.0,1.0,,,,,,
,,,,,,,,,,,,,,,,,,,,,0.05,,,,,,,,,,Stimuli/psy_fixed_rotation_30_objects_occ0.7_0.9s/images/train/n02933112_4/n04405907_8/img_buffet_stylized_tv_2008_gray.jpg,n02933112_4,n04405907_8,fixed,0.746801,n04405907_8,Stimuli/psy_fixed_rotation_30_objects_occ0.7_0.9s/images/train/n02933112_4/n04405907_8/img_buffet_stylized_tv_2008-3_gray.png,foreground,same as foreground,n02933112_4,n04405907_8,Stimuli/canonical view 2/img_n02933112_4_gray.jpg,Stimuli/canonical view 2/img_n04405907_8_gray.jpg,foreground,left,Experiments/experiment_12/328.jpg,Experiments/experiment_12/329.jpg,Experiments/experiment_12/330.jpg,Experiments/experiment_12/331.jpg,537,1.0,2023-04-17_14h39.02.788,Occlusion_Psychophysics,2022.1.4,MacIntel,30.02101471,,,right,"[""right""]",[0.9324999999998909],False,,0.0,0.0,82.0,82.0,82.0,1.0,,,,,,
,,,,,,,,,,,,,,,,,,,,,0.025,,,,,,,,,,Stimuli/psy_fixed_rotation_30_objects_occ0.7_0.9s/images/train/n02828884_4/n04379243_0/img_b05_c-5_classic_series_bench-2012_17th_c._monastery_dining_table_2010_2012_gray.jpg,n02828884_4,n04379243_0,fixed,0.764548,n03928116_0,Stimuli/psy_flexible_rotation_30_objects_occ0.7_0.9s/images/train/n04405907_8/n03928116_0/img_stylized_tv_b02_piano_2000-3_gray.png,random,flexible,n02828884_4,n04379243_0,Stimuli/canonical view 2/img_n02828884_4_gray.jpg,Stimuli/canonical view 2/img_n04379243_0_gray.jpg,foreground,left,Experiments/experiment_12/332.jpg,Experiments/experiment_12/333.jpg,Experiments/experiment_12/334.jpg,Experiments/experiment_12/335.jpg,537,1.0,2023-04-17_14h39.02.788,Occlusion_Psychophysics,2022.1.4,MacIntel,30.02101471,,,left,"[""left""]",[0.6479999999999109],False,,0.0,0.0,83.0,83.0,83.0,1.0,,,,,,
,,,,,,,,,,,,,,,,,,,,,0.05,,,,,,,,,,Stimuli/psy_fixed_rotation_30_objects_occ0.7_0.9s/images/train/n03001627_-2/n02818832_9/img_wood_chair_bed01_blue_2000_gray.jpg,n03001627_-2,n02818832_9,fixed,0.743867,n02818832_9,Stimuli/psy_fixed_rotation_30_objects_occ0.7_0.9s/images/train/n03001627_-2/n02818832_9/img_wood_chair_bed01_blue_2000-3_gray.png,foreground,same as foreground,n03001627_-2,n02828884_3,Stimuli/canonical view 2/img_n03001627_-2_gray.jpg,Stimuli/canonical view 2/img_n02828884_3_gray.jpg,random,right,Experiments/experiment_12/336.jpg,Experiments/experiment_12/337.jpg,Experiments/experiment_12/338.jpg,Experiments/experiment_12/339.jpg,537,1.0,2023-04-17_14h39.02.788,Occlusion_Psychophysics,2022.1.4,MacIntel,30.02101471,,,right,"[""left""]",[1.089299999997138],False,,0.0,0.0,84.0,84.0,84.0,1.0,,,,,,
,,,,,,,,,,,,,,,,,,,,,0.05,,,,,,,,,,Stimuli/psy_flexible_rotation_30_objects_occ0.7_0.9s/images/train/n02933112_-18/n04379243_-7/img_cgaxis_models_48_26_vray_composite_quatre_dining_table_2007_gray.jpg,n02933112_-18,n04379243_-7,flexible,0.765442,n04379243_-7,Stimuli/psy_flexible_rotation_30_objects_occ0.7_0.9s/images/train/n02933112_-18/n04379243_-7/img_cgaxis_models_48_26_vray_composite_quatre_dining_table_2007-3_gray.png,foreground,same as foreground,n02933112_-18,n04379243_-7,Stimuli/canonical view 2/img_n02933112_-18_gray.jpg,Stimuli/canonical view 2/img_n04379243_-7_gray.jpg,foreground,right,Experiments/experiment_12/340.jpg,Experiments/experiment_12/341.jpg,Experiments/experiment_12/342.jpg,Experiments/experiment_12/343.jpg,537,1.0,2023-04-17_14h39.02.788,Occlusion_Psychophysics,2022.1.4,MacIntel,30.02101471,,,left,"[""left""]",[1.1190000000001419],False,,0.0,0.0,85.0,85.0,85.0,1.0,,,,,,
,,,,,,,,,,,,,,,,,,,,,0.05,,,,,,,,,,Stimuli/psy_flexible_rotation_30_objects_occ0.7_0.9s/images/train/n03928116_0/n02828884_3/img_b02_piano_b04_wood_metal_park_bench_2001_gray.jpg,n03928116_0,n02828884_3,flexible,0.707188,n02828884_3,Stimuli/psy_flexible_rotation_30_objects_occ0.7_0.9s/images/train/n03928116_0/n02828884_3/img_b02_piano_b04_wood_metal_park_bench_2001-3_gray.png,foreground,same as foreground,n03928116_0,n02933112_4,Stimuli/canonical view 2/img_n03928116_0_gray.jpg,Stimuli/canonical view 2/img_n02933112_4_gray.jpg,random,left,Experiments/experiment_12/344.jpg,Experiments/experiment_12/345.jpg,Experiments/experiment_12/346.jpg,Experiments/experiment_12/347.jpg,537,1.0,2023-04-17_14h39.02.788,Occlusion_Psychophysics,2022.1.4,MacIntel,30.02101471,,,right,"[""right""]",[0.5651000000013937],False,,0.0,0.0,86.0,86.0,86.0,1.0,,,,,,
,,,,,,,,,,,,,,,,,,,,,0.025,,,,,,,,,,Stimuli/psy_fixed_rotation_30_objects_occ0.7_0.9s/images/train/n03001627_-2/n04256520_5/img_wood_chair_meridiani_belmondo_bench_sofa_2011_gray.jpg,n03001627_-2,n04256520_5,fixed,0.718107,n02883344_15,Stimuli/psy_fixed_rotation_30_objects_occ0.7_0.9s/images/train/n04256520_5/n02883344_15/img_meridiani_belmondo_bench_sofa_microwave_box_2000-3_gray.png,random,fixed,n03001627_-2,n04256520_5,Stimuli/canonical view 2/img_n03001627_-2_gray.jpg,Stimuli/canonical view 2/img_n04256520_5_gray.jpg,foreground,right,Experiments/experiment_12/348.jpg,Experiments/experiment_12/349.jpg,Experiments/experiment_12/350.jpg,Experiments/experiment_12/351.jpg,537,1.0,2023-04-17_14h39.02.788,Occlusion_Psychophysics,2022.1.4,MacIntel,30.02101471,,,left,"[""left""]",[0.7270000000000891],False,,0.0,0.0,87.0,87.0,87.0,1.0,,,,,,
,,,,,,,,,,,,,,,,,,,,,0.025,,,,,,,,,,Stimuli/psy_fixed_rotation_30_objects_occ0.7_0.9s/images/train/n04256520_4/n04405907_9/img_club_house_italia_nautilus_sofa_vray_004_2010_gray.jpg,n04256520_4,n04405907_9,fixed,0.78162,n04405907_9,Stimuli/psy_fixed_rotation_30_objects_occ0.7_0.9s/images/train/n04256520_4/n04405907_9/img_club_house_italia_nautilus_sofa_vray_004_2010-3_gray.png,foreground,same as foreground,n04256520_4,n04405907_9,Stimuli/canonical view 2/img_n04256520_4_gray.jpg,Stimuli/canonical view 2/img_n04405907_9_gray.jpg,foreground,right,Experiments/experiment_12/352.jpg,Experiments/experiment_12/353.jpg,Experiments/experiment_12/354.jpg,Experiments/experiment_12/355.jpg,537,1.0,2023-04-17_14h39.02.788,Occlusion_Psychophysics,2022.1.4,MacIntel,30.02101471,,,right,"[""right""]",[0.7353999999984353],False,,0.0,0.0,88.0,88.0,88.0,1.0,,,,,,
,,,,,,,,,,,,,,,,,,,,,0.025,,,,,,,,,,Stimuli/psy_fixed_rotation_30_objects_occ0.7_0.9s/images/train/n02933112_-2/n03928116_0/img_sink_base_white_wood_b02_piano_2013_gray.jpg,n02933112_-2,n03928116_0,fixed,0.719547,n03928116_0,Stimuli/psy_fixed_rotation_30_objects_occ0.7_0.9s/images/train/n02933112_-2/n03928116_0/img_sink_base_white_wood_b02_piano_2013-3_gray.png,foreground,same as foreground,n02933112_-2,n02818832_0,Stimuli/canonical view 2/img_n02933112_-2_gray.jpg,Stimuli/canonical view 2/img_n02818832_0_gray.jpg,random,right,Experiments/experiment_12/356.jpg,Experiments/experiment_12/357.jpg,Experiments/experiment_12/358.jpg,Experiments/experiment_12/359.jpg,537,1.0,2023-04-17_14h39.02.788,Occlusion_Psychophysics,2022.1.4,MacIntel,30.02101471,,,left,"[""right""]",[0.8980000000001382],False,,0.0,0.0,89.0,89.0,89.0,1.0,,,,,,
,,,,,,,,,,,,,,,,,,,,,0.05,,,,,,,,,,Stimuli/psy_flexible_rotation_30_objects_occ0.7_0.9s/images/train/n04256520_5/n04379243_8/img_meridiani_belmondo_bench_sofa_glass_table_2012_gray.jpg,n04256520_5,n04379243_8,flexible,0.743162,n02818832_3,Stimuli/psy_flexible_rotation_30_objects_occ0.7_0.9s/images/train/n04256520_4/n02818832_3/img_club_house_italia_nautilus_sofa_b05_ccm_contemporary_bed_max2013_2014-3_gray.png,random,flexible,n04256520_5,n02883344_-1,Stimuli/canonical view 2/img_n04256520_5_gray.jpg,Stimuli/canonical view 2/img_n02883344_-1_gray.jpg,random,right,Experiments/experiment_12/360.jpg,Experiments/experiment_12/361.jpg,Experiments/experiment_12/362.jpg,Experiments/experiment_12/363.jpg,537,1.0,2023-04-17_14h39.02.788,Occlusion_Psychophysics,2022.1.4,MacIntel,30.02101471,,,right,"[""left""]",[1.4741000000014992],False,,0.0,0.0,90.0,90.0,90.0,1.0,,,,,,
,,,,,,,,,,,,,,,,,,,,,0.025,,,,,,,,,,Stimuli/psy_fixed_rotation_30_objects_occ0.7_0.9s/images/train/n02828884_9/n02883344_-1/img_cr-96_bench_woven_box_2007_gray.jpg,n02828884_9,n02883344_-1,fixed,0.730242,n02818832_3,Stimuli/psy_fixed_rotation_30_objects_occ0.7_0.9s/images/train/n04070727_5/n02818832_3/img_b05_db_apps_tech_06_13_composite_b05_ccm_contemporary_bed_max2013_2000-3_gray.png,random,fixed,n02828884_9,n02883344_-1,Stimuli/canonical view 2/img_n02828884_9_gray.jpg,Stimuli/canonical view 2/img_n02883344_-1_gray.jpg,foreground,right,Experiments/experiment_12/364.jpg,Experiments/experiment_12/365.jpg,Experiments/experiment_12/366.jpg,Experiments/experiment_12/367.jpg,537,1.0,2023-04-17_14h39.02.788,Occlusion_Psychophysics,2022.1.4,MacIntel,30.02101471,,,left,"[""left""]",[0.7264999999999873],False,,0.0,0.0,91.0,91.0,91.0,1.0,,,,,,
,,,,,,,,,,,,,,,,,,,,,0.05,,,,,,,,,,Stimuli/psy_flexible_rotation_30_objects_occ0.7_0.9s/images/train/n04256520_9/n04379243_-7/img_napoleon_iii_sofa_quatre_dining_table_2000_gray.jpg,n04256520_9,n04379243_-7,flexible,0.81389,n02818832_3,Stimuli/psy_fixed_rotation_30_objects_occ0.7_0.9s/images/train/n03928116_0/n02818832_3/img_b02_piano_b05_ccm_contemporary_bed_max2013_2002-3_gray.png,random,fixed,n04256520_9,n02828884_3,Stimuli/canonical view 2/img_n04256520_9_gray.jpg,Stimuli/canonical view 2/img_n02828884_3_gray.jpg,random,left,Experiments/experiment_12/368.jpg,Experiments/experiment_12/369.jpg,Experiments/experiment_12/370.jpg,Experiments/experiment_12/371.jpg,537,1.0,2023-04-17_14h39.02.788,Occlusion_Psychophysics,2022.1.4,MacIntel,30.02101471,,,left,"[""left""]",[1.05600000000004],False,,0.0,0.0,92.0,92.0,92.0,1.0,,,,,,
,,,,,,,,,,,,,,,,,,,,,0.025,,,,,,,,,,Stimuli/psy_flexible_rotation_30_objects_occ0.7_0.9s/images/train/n04379243_-7/n04379243_8/img_quatre_dining_table_glass_table_2009_gray.jpg,n04379243_-7,n04379243_8,flexible,0.709392,n04379243_8,Stimuli/psy_flexible_rotation_30_objects_occ0.7_0.9s/images/train/n04379243_-7/n04379243_8/img_quatre_dining_table_glass_table_2009-3_gray.png,foreground,same as foreground,n04379243_-7,n02818832_9,Stimuli/canonical view 2/img_n04379243_-7_gray.jpg,Stimuli/canonical view 2/img_n02818832_9_gray.jpg,random,right,Experiments/experiment_12/372.jpg,Experiments/experiment_12/373.jpg,Experiments/experiment_12/374.jpg,Experiments/experiment_12/375.jpg,537,1.0,2023-04-17_14h39.02.788,Occlusion_Psychophysics,2022.1.4,MacIntel,30.02101471,,,right,"[""right""]",[0.671899999998459],False,,0.0,0.0,93.0,93.0,93.0,1.0,,,,,,
,,,,,,,,,,,,,,,,,,,,,0.05,,,,,,,,,,Stimuli/psy_fixed_rotation_30_objects_occ0.7_0.9s/images/train/n04379243_0/n03928116_10/img_17th_c._monastery_dining_table_2010_ydp_103_r_2012__vray_2015_gray.jpg,n04379243_0,n03928116_10,fixed,0.799615,n04256520_4,Stimuli/psy_fixed_rotation_30_objects_occ0.7_0.9s/images/train/n04256520_9/n04256520_4/img_napoleon_iii_sofa_club_house_italia_nautilus_sofa_2005-3_gray.png,random,fixed,n04379243_0,n02933112_4,Stimuli/canonical view 2/img_n04379243_0_gray.jpg,Stimuli/canonical view 2/img_n02933112_4_gray.jpg,random,left,Experiments/experiment_12/376.jpg,Experiments/experiment_12/377.jpg,Experiments/experiment_12/378.jpg,Experiments/experiment_12/379.jpg,537,1.0,2023-04-17_14h39.02.788,Occlusion_Psychophysics,2022.1.4,MacIntel,30.02101471,,,right,"[""right""]",[0.5736999999992349],False,,0.0,0.0,94.0,94.0,94.0,1.0,,,,,,
,,,,,,,,,,,,,,,,,,,,,0.025,,,,,,,,,,Stimuli/psy_fixed_rotation_30_objects_occ0.7_0.9s/images/train/n02828884_3/n04379243_8/img_b04_wood_metal_park_bench_glass_table_2007_gray.jpg,n02828884_3,n04379243_8,fixed,0.7525,n04379243_8,Stimuli/psy_fixed_rotation_30_objects_occ0.7_0.9s/images/train/n02828884_3/n04379243_8/img_b04_wood_metal_park_bench_glass_table_2007-3_gray.png,foreground,same as foreground,n02828884_3,n02883344_-1,Stimuli/canonical view 2/img_n02828884_3_gray.jpg,Stimuli/canonical view 2/img_n02883344_-1_gray.jpg,random,left,Experiments/experiment_12/380.jpg,Experiments/experiment_12/381.jpg,Experiments/experiment_12/382.jpg,Experiments/experiment_12/383.jpg,537,1.0,2023-04-17_14h39.02.788,Occlusion_Psychophysics,2022.1.4,MacIntel,30.02101471,,,left,"[""left""]",[0.7759999999998399],False,,0.0,0.0,95.0,95.0,95.0,1.0,,,,,,
,,,,,,,,,,,,,,,,,,,,,0.05,,,,,,,,,,Stimuli/psy_fixed_rotation_30_objects_occ0.7_0.9s/images/train/n04405907_9/n02883344_-1/img_vray_004_woven_box_2011_gray.jpg,n04405907_9,n02883344_-1,fixed,0.756637,n03001627_9,Stimuli/psy_flexible_rotation_30_objects_occ0.7_0.9s/images/train/n04070727_0/n03001627_9/img_b03_ka90ivi20r_2013__vray_chair_eames_plastic_armchair_2014-3_gray.png,random,flexible,n04405907_9,n02883344_-1,Stimuli/canonical view 2/img_n04405907_9_gray.jpg,Stimuli/canonical view 2/img_n02883344_-1_gray.jpg,foreground,left,Experiments/experiment_12/384.jpg,Experiments/experiment_12/385.jpg,Experiments/experiment_12/386.jpg,Experiments/experiment_12/387.jpg,537,1.0,2023-04-17_14h39.02.788,Occlusion_Psychophysics,2022.1.4,MacIntel,30.02101471,,,right,"[""right""]",[0.7869000000023334],True,left,1.0,0.0,96.0,96.0,96.0,1.0,1.4923,,,,,
,,,,,,,,,,,,,,,,,,,,,0.05,,,,,,,,,,Stimuli/psy_fixed_rotation_30_objects_occ0.7_0.9s/images/train/n02828884_4/n04256520_5/img_b05_c-5_classic_series_bench-2012_meridiani_belmondo_bench_sofa_2001_gray.jpg,n02828884_4,n04256520_5,fixed,0.71461,n04256520_5,Stimuli/psy_fixed_rotation_30_objects_occ0.7_0.9s/images/train/n02828884_4/n04256520_5/img_b05_c-5_classic_series_bench-2012_meridiani_belmondo_bench_sofa_2001-3_gray.png,foreground,same as foreground,n02828884_4,n02933112_-2,Stimuli/canonical view 2/img_n02828884_4_gray.jpg,Stimuli/canonical view 2/img_n02933112_-2_gray.jpg,random,right,Experiments/experiment_12/388.jpg,Experiments/experiment_12/389.jpg,Experiments/experiment_12/390.jpg,Experiments/experiment_12/391.jpg,537,1.0,2023-04-17_14h39.02.788,Occlusion_Psychophysics,2022.1.4,MacIntel,30.02101471,,,left,"[""left""]",[0.6665999999979704],False,,0.0,0.0,97.0,97.0,97.0,1.0,,,,,,
,,,,,,,,,,,,,,,,,,,,,0.05,,,,,,,,,,Stimuli/psy_flexible_rotation_30_objects_occ0.7_0.9s/images/train/n04379243_-7/n04405907_5/img_quatre_dining_table_samsung_40_uhd_smart_tv_2011_2013_gray.jpg,n04379243_-7,n04405907_5,flexible,0.738991,n04405907_5,Stimuli/psy_flexible_rotation_30_objects_occ0.7_0.9s/images/train/n04379243_-7/n04405907_5/img_quatre_dining_table_samsung_40_uhd_smart_tv_2011_2013-3_gray.png,foreground,same as foreground,n04379243_-7,n04405907_5,Stimuli/canonical view 2/img_n04379243_-7_gray.jpg,Stimuli/canonical view 2/img_n04405907_5_gray.jpg,foreground,right,Experiments/experiment_12/392.jpg,Experiments/experiment_12/393.jpg,Experiments/experiment_12/394.jpg,Experiments/experiment_12/395.jpg,537,1.0,2023-04-17_14h39.02.788,Occlusion_Psychophysics,2022.1.4,MacIntel,30.02101471,,,left,"[""left""]",[0.6266999999991185],False,,0.0,0.0,98.0,98.0,98.0,1.0,,,,,,
,,,,,,,,,,,,,,,,,,,,,0.025,,,,,,,,,,Stimuli/psy_fixed_rotation_30_objects_occ0.7_0.9s/images/train/n04379243_-7/n04405907_5/img_quatre_dining_table_samsung_40_uhd_smart_tv_2011_2001_gray.jpg,n04379243_-7,n04405907_5,fixed,0.721254,n02933112_-2,Stimuli/psy_flexible_rotation_30_objects_occ0.7_0.9s/images/train/n03928116_0/n02933112_-2/img_b02_piano_sink_base_white_wood_2004-3_gray.png,random,flexible,n04379243_-7,n02818832_3,Stimuli/canonical view 2/img_n04379243_-7_gray.jpg,Stimuli/canonical view 2/img_n02818832_3_gray.jpg,random,right,Experiments/experiment_12/396.jpg,Experiments/experiment_12/397.jpg,Experiments/experiment_12/398.jpg,Experiments/experiment_12/399.jpg,537,1.0,2023-04-17_14h39.02.788,Occlusion_Psychophysics,2022.1.4,MacIntel,30.02101471,,,left,"[""left""]",[0.7486000000014883],False,,0.0,0.0,99.0,99.0,99.0,1.0,,,,,,
,,,,,,,,,,,,,,,,,,,,,,,,,,,,,,,,,,,,,,,,,,,,,,,,,,537,1.0,2023-04-17_14h39.02.788,Occlusion_Psychophysics,2022.1.4,MacIntel,30.02101471,,,,,,,,,,,,,,,0.0,0.0,0.0,0.0,1.0
,,,,,,,,,,,,,,,,,,,,,0.05,,,,,,,,,,Stimuli/psy_flexible_rotation_30_objects_occ0.7_0.9s/images/train/n04405907_5/n02818832_9/img_samsung_40_uhd_smart_tv_2011_bed01_blue_2008_gray.jpg,n04405907_5,n02818832_9,flexible,0.758649,n04256520_4,Stimuli/psy_flexible_rotation_30_objects_occ0.7_0.9s/images/train/n02818832_9/n04256520_4/img_bed01_blue_club_house_italia_nautilus_sofa_2009-3_gray.png,random,flexible,n04405907_5,n04405907_9,Stimuli/canonical view 2/img_n04405907_5_gray.jpg,Stimuli/canonical view 2/img_n04405907_9_gray.jpg,random,right,Experiments/experiment_12/400.jpg,Experiments/experiment_12/401.jpg,Experiments/experiment_12/402.jpg,Experiments/experiment_12/403.jpg,537,1.0,2023-04-17_14h39.02.788,Occlusion_Psychophysics,2022.1.4,MacIntel,30.02101471,,,right,"[""left""]",[0.6353000000005977],False,,0.0,0.0,0.0,0.0,0.0,1.0,,,,,,
,,,,,,,,,,,,,,,,,,,,,0.05,,,,,,,,,,Stimuli/psy_flexible_rotation_30_objects_occ0.7_0.9s/images/train/n02883344_-1/n04256520_4/img_woven_box_club_house_italia_nautilus_sofa_2015_gray.jpg,n02883344_-1,n04256520_4,flexible,0.726564,n02933112_-2,Stimuli/psy_fixed_rotation_30_objects_occ0.7_0.9s/images/train/n02933112_4/n02933112_-2/img_buffet_sink_base_white_wood_2013-3_gray.png,random,fixed,n02883344_-1,n02828884_4,Stimuli/canonical view 2/img_n02883344_-1_gray.jpg,Stimuli/canonical view 2/img_n02828884_4_gray.jpg,random,left,Experiments/experiment_12/404.jpg,Experiments/experiment_12/405.jpg,Experiments/experiment_12/406.jpg,Experiments/experiment_12/407.jpg,537,1.0,2023-04-17_14h39.02.788,Occlusion_Psychophysics,2022.1.4,MacIntel,30.02101471,,,right,"[""left""]",[1.0698999999983698],False,,0.0,0.0,1.0,1.0,1.0,1.0,,,,,,
,,,,,,,,,,,,,,,,,,,,,0.025,,,,,,,,,,Stimuli/psy_fixed_rotation_30_objects_occ0.7_0.9s/images/train/n03001627_8/n02883344_-1/img_chair_billiani_doll_woven_box_2004_gray.jpg,n03001627_8,n02883344_-1,fixed,0.731758,n02883344_-1,Stimuli/psy_fixed_rotation_30_objects_occ0.7_0.9s/images/train/n03001627_8/n02883344_-1/img_chair_billiani_doll_woven_box_2004-3_gray.png,foreground,same as foreground,n03001627_8,n02883344_-1,Stimuli/canonical view 2/img_n03001627_8_gray.jpg,Stimuli/canonical view 2/img_n02883344_-1_gray.jpg,foreground,left,Experiments/experiment_12/408.jpg,Experiments/experiment_12/409.jpg,Experiments/experiment_12/410.jpg,Experiments/experiment_12/411.jpg,537,1.0,2023-04-17_14h39.02.788,Occlusion_Psychophysics,2022.1.4,MacIntel,30.02101471,,,right,"[""right""]",[0.5863000000008469],False,,0.0,0.0,2.0,2.0,2.0,1.0,,,,,,
,,,,,,,,,,,,,,,,,,,,,0.05,,,,,,,,,,Stimuli/psy_fixed_rotation_30_objects_occ0.7_0.9s/images/train/n03928116_0/n02818832_3/img_b02_piano_b05_ccm_contemporary_bed_max2013_2005_gray.jpg,n03928116_0,n02818832_3,fixed,0.72855,n02828884_4,Stimuli/psy_flexible_rotation_30_objects_occ0.7_0.9s/images/train/n02828884_4/n02828884_4/img_b05_c-5_classic_series_bench-2012_b05_c-5_classic_series_bench-2012_2002-3_gray.png,random,flexible,n03928116_0,n03928116_10,Stimuli/canonical view 2/img_n03928116_0_gray.jpg,Stimuli/canonical view 2/img_n03928116_10_gray.jpg,random,left,Experiments/experiment_12/412.jpg,Experiments/experiment_12/413.jpg,Experiments/experiment_12/414.jpg,Experiments/experiment_12/415.jpg,537,1.0,2023-04-17_14h39.02.788,Occlusion_Psychophysics,2022.1.4,MacIntel,30.02101471,,,left,"[""left""]",[0.5637999999969452],False,,0.0,0.0,3.0,3.0,3.0,1.0,,,,,,
,,,,,,,,,,,,,,,,,,,,,0.025,,,,,,,,,,Stimuli/psy_flexible_rotation_30_objects_occ0.7_0.9s/images/train/n02818832_0/n02933112_-18/img_b03_the_sofa_and_chair_company_-_stanley_bed_2014_cgaxis_models_48_26_vray_composite_2014_gray.jpg,n02818832_0,n02933112_-18,flexible,0.820767,n02933112_-18,Stimuli/psy_flexible_rotation_30_objects_occ0.7_0.9s/images/train/n02818832_0/n02933112_-18/img_b03_the_sofa_and_chair_company_-_stanley_bed_2014_cgaxis_models_48_26_vray_composite_2014-3_gray.png,foreground,same as foreground,n02818832_0,n02933112_-18,Stimuli/canonical view 2/img_n02818832_0_gray.jpg,Stimuli/canonical view 2/img_n02933112_-18_gray.jpg,foreground,right,Experiments/experiment_12/416.jpg,Experiments/experiment_12/417.jpg,Experiments/experiment_12/418.jpg,Experiments/experiment_12/419.jpg,537,1.0,2023-04-17_14h39.02.788,Occlusion_Psychophysics,2022.1.4,MacIntel,30.02101471,,,left,"[""left""]",[0.6806000000015047],False,,0.0,0.0,4.0,4.0,4.0,1.0,,,,,,
,,,,,,,,,,,,,,,,,,,,,0.025,,,,,,,,,,Stimuli/psy_fixed_rotation_30_objects_occ0.7_0.9s/images/train/n02933112_-2/n04256520_5/img_sink_base_white_wood_meridiani_belmondo_bench_sofa_2002_gray.jpg,n02933112_-2,n04256520_5,fixed,0.763466,n04379243_-7,Stimuli/psy_fixed_rotation_30_objects_occ0.7_0.9s/images/train/n03928116_10/n04379243_-7/img_ydp_103_r_2012__vray_quatre_dining_table_2002-3_gray.png,random,fixed,n02933112_-2,n02883344_15,Stimuli/canonical view 2/img_n02933112_-2_gray.jpg,Stimuli/canonical view 2/img_n02883344_15_gray.jpg,random,right,Experiments/experiment_12/420.jpg,Experiments/experiment_12/421.jpg,Experiments/experiment_12/422.jpg,Experiments/experiment_12/423.jpg,537,1.0,2023-04-17_14h39.02.788,Occlusion_Psychophysics,2022.1.4,MacIntel,30.02101471,,,left,"[""left""]",[0.916199999999435],False,,0.0,0.0,5.0,5.0,5.0,1.0,,,,,,
,,,,,,,,,,,,,,,,,,,,,0.05,,,,,,,,,,Stimuli/psy_fixed_rotation_30_objects_occ0.7_0.9s/images/train/n04379243_0/n02818832_9/img_17th_c._monastery_dining_table_2010_bed01_blue_2010_gray.jpg,n04379243_0,n02818832_9,fixed,0.704337,n04379243_0,Stimuli/psy_flexible_rotation_30_objects_occ0.7_0.9s/images/train/n02818832_3/n04379243_0/img_b05_ccm_contemporary_bed_max2013_17th_c._monastery_dining_table_2010_2000-3_gray.png,random,flexible,n04379243_0,n02818832_9,Stimuli/canonical view 2/img_n04379243_0_gray.jpg,Stimuli/canonical view 2/img_n02818832_9_gray.jpg,foreground,right,Experiments/experiment_12/424.jpg,Experiments/experiment_12/425.jpg,Experiments/experiment_12/426.jpg,Experiments/experiment_12/427.jpg,537,1.0,2023-04-17_14h39.02.788,Occlusion_Psychophysics,2022.1.4,MacIntel,30.02101471,,,right,"[""right""]",[0.5931999999991149],False,,0.0,0.0,6.0,6.0,6.0,1.0,,,,,,
,,,,,,,,,,,,,,,,,,,,,0.05,,,,,,,,,,Stimuli/psy_fixed_rotation_30_objects_occ0.7_0.9s/images/train/n03928116_0/n02883344_15/img_b02_piano_microwave_box_2006_gray.jpg,n03928116_0,n02883344_15,fixed,0.795491,n02883344_-1,Stimuli/psy_flexible_rotation_30_objects_occ0.7_0.9s/images/train/n04256520_9/n02883344_-1/img_napoleon_iii_sofa_woven_box_2003-3_gray.png,random,flexible,n03928116_0,n02883344_15,Stimuli/canonical view 2/img_n03928116_0_gray.jpg,Stimuli/canonical view 2/img_n02883344_15_gray.jpg,foreground,left,Experiments/experiment_12/428.jpg,Experiments/experiment_12/429.jpg,Experiments/experiment_12/430.jpg,Experiments/experiment_12/431.jpg,537,1.0,2023-04-17_14h39.02.788,Occlusion_Psychophysics,2022.1.4,MacIntel,30.02101471,,,right,"[""left""]",[0.8221000000014556],False,,0.0,0.0,7.0,7.0,7.0,1.0,,,,,,
,,,,,,,,,,,,,,,,,,,,,0.025,,,,,,,,,,Stimuli/psy_fixed_rotation_30_objects_occ0.7_0.9s/images/train/n02818832_3/n04379243_0/img_b05_ccm_contemporary_bed_max2013_17th_c._monastery_dining_table_2010_2014_gray.jpg,n02818832_3,n04379243_0,fixed,0.705127,n04379243_0,Stimuli/psy_fixed_rotation_30_objects_occ0.7_0.9s/images/train/n02818832_3/n04379243_0/img_b05_ccm_contemporary_bed_max2013_17th_c._monastery_dining_table_2010_2014-3_gray.png,foreground,same as foreground,n02818832_3,n04379243_0,Stimuli/canonical view 2/img_n02818832_3_gray.jpg,Stimuli/canonical view 2/img_n04379243_0_gray.jpg,foreground,left,Experiments/experiment_12/432.jpg,Experiments/experiment_12/433.jpg,Experiments/experiment_12/434.jpg,Experiments/experiment_12/435.jpg,537,1.0,2023-04-17_14h39.02.788,Occlusion_Psychophysics,2022.1.4,MacIntel,30.02101471,,,left,"[""left""]",[0.9266000000015993],False,,0.0,0.0,8.0,8.0,8.0,1.0,,,,,,
