in_color,Instructions_key.keys,Instructions_key.rt,Tutorial_instruction_key.keys,Tutorial_instruction_key.rt,Tutorial_fixation_ley.keys,Tutorial_fixation_ley.rt,Tutorial_single_img_key.keys,Tutorial_single_img_key.rt,Tutorial_intra_trial_fixation_key.keys,Tutorial_intra_trial_fixation_key.rt,Tutorial_stimulus_key.keys,Tutorial_stimulus_key.rt,Tutorial_response_key.keys,Tutorial_response_key.rt,Tutorial_attention_check_key.keys,Tutorial_attention_check_key.rt,advance_or_repeat.keys,advance_or_repeat.rt,Practice_instructions_key.keys,Practice_instructions_key.rt,intra_trial_duration,Practice_key_response.keys,Practice_key_response.rt,Practice_react_key.keys,Practice_react_key.rt,Practice_loop.thisRepN,Practice_loop.thisTrialN,Practice_loop.thisN,Practice_loop.thisIndex,Practice_loop.ran,multi_object_filepath,background_id,foreground_id,multi_object_rotation,occlusion_level,single_object_id,single_object_filepath,single_is_foreground_or_random,single_object_rotation,background_choice_id,alt_choice_id,background_option_filepath,alternative_option_filepath,alternative_is_foreground_or_random,location_of_correct_answer,multi_object_exp_filename,single_object_exp_filename,background_option_exp_filename,alternative_option_exp_filename,participant,session,date,expName,psychopyVersion,OS,frameRate,Practice_end_key.keys,Practice_end_key.rt,correct_answer,Input_selection.keys,Input_selection.rt,Was_attention_check,Attention_check.keys,Attention_check.corr,Each_session_loop.thisRepN,Each_session_loop.thisTrialN,Each_session_loop.thisN,Each_session_loop.thisIndex,Each_session_loop.ran,Attention_check.rt,Num_sessions.thisRepN,Num_sessions.thisTrialN,Num_sessions.thisN,Num_sessions.thisIndex,Num_sessions.ran
False,left,43.967,right,3.267,right,2.4,right,3.664,right,3.633,right,21.526,left,11.988,right,4.699,a,7.664,right,3.817,0.05,right,1.766,r,6.35,0.0,0.0,0.0,0.0,1.0,Stimuli/psy_fixed_rotation_30_objects_occ0.7_0.9s/images/train/n02818832_0/n03928116_0/img_b03_the_sofa_and_chair_company_-_stanley_bed_2014_b02_piano_2006_gray.jpg,n02818832_0,n03928116_0,fixed,0.740401,n03928116_0,Stimuli/psy_fixed_rotation_30_objects_occ0.7_0.9s/images/train/n02818832_0/n03928116_0/img_b03_the_sofa_and_chair_company_-_stanley_bed_2014_b02_piano_2006-3_gray.png,foreground,same as foreground,n02818832_0,n04379243_-7,Stimuli/canonical view 2/img_n02818832_0_gray.jpg,Stimuli/canonical view 2/img_n04379243_-7_gray.jpg,random,left,Experiments/experiment_45/1000.jpg,Experiments/experiment_45/1001.jpg,Experiments/experiment_45/1002.jpg,Experiments/experiment_45/1003.jpg,610,1,2023-06-28_15h25.59.773,Occlusion_Psychophysics,2022.1.4,MacIntel,60.09615385,,,,,,,,,,,,,,,,,,,
,,,,,,,,,,,,,,,,,,,,,0.025,left,1.117,a,4.149,0.0,1.0,1.0,1.0,1.0,Stimuli/psy_fixed_rotation_30_objects_occ0.7_0.9s/images/train/n04405907_8/n03001627_9/img_stylized_tv_chair_eames_plastic_armchair_2011_gray.jpg,n04405907_8,n03001627_9,fixed,0.74789,n03001627_9,Stimuli/psy_fixed_rotation_30_objects_occ0.7_0.9s/images/train/n04405907_8/n03001627_9/img_stylized_tv_chair_eames_plastic_armchair_2011-3_gray.png,foreground,same as foreground,n04405907_8,n03001627_9,Stimuli/canonical view 2/img_n04405907_8_gray.jpg,Stimuli/canonical view 2/img_n03001627_9_gray.jpg,foreground,left,Experiments/experiment_45/1004.jpg,Experiments/experiment_45/1005.jpg,Experiments/experiment_45/1006.jpg,Experiments/experiment_45/1007.jpg,610,1,2023-06-28_15h25.59.773,Occlusion_Psychophysics,2022.1.4,MacIntel,60.09615385,,,,,,,,,,,,,,,,,,,
,,,,,,,,,,,,,,,,,,,,,0.05,,,,,,,,,,Stimuli/psy_flexible_rotation_30_objects_occ0.7_0.9s/images/train/n02828884_4/n02883344_-1/img_b05_c-5_classic_series_bench-2012_woven_box_2008_gray.jpg,n02828884_4,n02883344_-1,flexible,0.817592,n03928116_10,Stimuli/psy_fixed_rotation_30_objects_occ0.7_0.9s/images/train/n04405907_8/n03928116_10/img_stylized_tv_ydp_103_r_2012__vray_2008-3_gray.png,random,fixed,n02828884_4,n03001627_8,Stimuli/canonical view 2/img_n02828884_4_gray.jpg,Stimuli/canonical view 2/img_n03001627_8_gray.jpg,random,right,Experiments/experiment_45/0.jpg,Experiments/experiment_45/1.jpg,Experiments/experiment_45/2.jpg,Experiments/experiment_45/3.jpg,610,1,2023-06-28_15h25.59.773,Occlusion_Psychophysics,2022.1.4,MacIntel,60.09615385,right,1.35,right,"[""right""]",[1.3269999999999982],False,,0.0,0.0,0.0,0.0,0.0,1.0,,,,,,
,,,,,,,,,,,,,,,,,,,,,0.05,,,,,,,,,,Stimuli/psy_flexible_rotation_30_objects_occ0.7_0.9s/images/train/n02933112_-2/n02818832_9/img_sink_base_white_wood_bed01_blue_2004_gray.jpg,n02933112_-2,n02818832_9,flexible,0.729611,n02818832_9,Stimuli/psy_flexible_rotation_30_objects_occ0.7_0.9s/images/train/n02933112_-2/n02818832_9/img_sink_base_white_wood_bed01_blue_2004-3_gray.png,foreground,same as foreground,n02933112_-2,n03001627_-2,Stimuli/canonical view 2/img_n02933112_-2_gray.jpg,Stimuli/canonical view 2/img_n03001627_-2_gray.jpg,random,left,Experiments/experiment_45/4.jpg,Experiments/experiment_45/5.jpg,Experiments/experiment_45/6.jpg,Experiments/experiment_45/7.jpg,610,1,2023-06-28_15h25.59.773,Occlusion_Psychophysics,2022.1.4,MacIntel,60.09615385,,,right,"[""left""]",[1.4769999999999754],False,,0.0,0.0,1.0,1.0,1.0,1.0,,,,,,
,,,,,,,,,,,,,,,,,,,,,0.025,,,,,,,,,,Stimuli/psy_flexible_rotation_30_objects_occ0.7_0.9s/images/train/n02818832_9/n02828884_4/img_bed01_blue_b05_c-5_classic_series_bench-2012_2012_gray.jpg,n02818832_9,n02828884_4,flexible,0.714555,n02883344_0,Stimuli/psy_fixed_rotation_30_objects_occ0.7_0.9s/images/train/n04256520_4/n02883344_0/img_club_house_italia_nautilus_sofa_b03_box_2004-3_gray.png,random,fixed,n02818832_9,n02828884_4,Stimuli/canonical view 2/img_n02818832_9_gray.jpg,Stimuli/canonical view 2/img_n02828884_4_gray.jpg,foreground,right,Experiments/experiment_45/8.jpg,Experiments/experiment_45/9.jpg,Experiments/experiment_45/10.jpg,Experiments/experiment_45/11.jpg,610,1,2023-06-28_15h25.59.773,Occlusion_Psychophysics,2022.1.4,MacIntel,60.09615385,,,right,"[""right""]",[1.0090000000000146],False,,0.0,0.0,2.0,2.0,2.0,1.0,,,,,,
,,,,,,,,,,,,,,,,,,,,,0.025,,,,,,,,,,Stimuli/psy_fixed_rotation_30_objects_occ0.7_0.9s/images/train/n03928116_10/n03928116_0/img_ydp_103_r_2012__vray_b02_piano_2005_gray.jpg,n03928116_10,n03928116_0,fixed,0.728933,n03928116_0,Stimuli/psy_fixed_rotation_30_objects_occ0.7_0.9s/images/train/n03928116_10/n03928116_0/img_ydp_103_r_2012__vray_b02_piano_2005-3_gray.png,foreground,same as foreground,n03928116_10,n04256520_4,Stimuli/canonical view 2/img_n03928116_10_gray.jpg,Stimuli/canonical view 2/img_n04256520_4_gray.jpg,random,left,Experiments/experiment_45/12.jpg,Experiments/experiment_45/13.jpg,Experiments/experiment_45/14.jpg,Experiments/experiment_45/15.jpg,610,1,2023-06-28_15h25.59.773,Occlusion_Psychophysics,2022.1.4,MacIntel,60.09615385,,,left,"[""left""]",[1.1269999999999527],False,,0.0,0.0,3.0,3.0,3.0,1.0,,,,,,
,,,,,,,,,,,,,,,,,,,,,0.05,,,,,,,,,,Stimuli/psy_flexible_rotation_30_objects_occ0.7_0.9s/images/train/n03928116_10/n03928116_0/img_ydp_103_r_2012__vray_b02_piano_2003_gray.jpg,n03928116_10,n03928116_0,flexible,0.733449,n03928116_0,Stimuli/psy_flexible_rotation_30_objects_occ0.7_0.9s/images/train/n03928116_10/n03928116_0/img_ydp_103_r_2012__vray_b02_piano_2003-3_gray.png,foreground,same as foreground,n03928116_10,n03928116_0,Stimuli/canonical view 2/img_n03928116_10_gray.jpg,Stimuli/canonical view 2/img_n03928116_0_gray.jpg,foreground,left,Experiments/experiment_45/16.jpg,Experiments/experiment_45/17.jpg,Experiments/experiment_45/18.jpg,Experiments/experiment_45/19.jpg,610,1,2023-06-28_15h25.59.773,Occlusion_Psychophysics,2022.1.4,MacIntel,60.09615385,,,right,"[""right""]",[0.9759999999999991],False,,0.0,0.0,4.0,4.0,4.0,1.0,,,,,,
,,,,,,,,,,,,,,,,,,,,,0.05,,,,,,,,,,Stimuli/psy_flexible_rotation_30_objects_occ0.7_0.9s/images/train/n04379243_0/n02818832_9/img_17th_c._monastery_dining_table_2010_bed01_blue_2007_gray.jpg,n04379243_0,n02818832_9,flexible,0.705972,n02818832_0,Stimuli/psy_fixed_rotation_30_objects_occ0.7_0.9s/images/train/n04256520_4/n02818832_0/img_club_house_italia_nautilus_sofa_b03_the_sofa_and_chair_company_-_stanley_bed_2014_2002-3_gray.png,random,fixed,n04379243_0,n02818832_9,Stimuli/canonical view 2/img_n04379243_0_gray.jpg,Stimuli/canonical view 2/img_n02818832_9_gray.jpg,foreground,right,Experiments/experiment_45/20.jpg,Experiments/experiment_45/21.jpg,Experiments/experiment_45/22.jpg,Experiments/experiment_45/23.jpg,610,1,2023-06-28_15h25.59.773,Occlusion_Psychophysics,2022.1.4,MacIntel,60.09615385,,,right,"[""right""]",[0.7779999999999063],False,,0.0,0.0,5.0,5.0,5.0,1.0,,,,,,
,,,,,,,,,,,,,,,,,,,,,0.025,,,,,,,,,,Stimuli/psy_flexible_rotation_30_objects_occ0.7_0.9s/images/train/n04379243_-7/n04379243_0/img_quatre_dining_table_17th_c._monastery_dining_table_2010_2009_gray.jpg,n04379243_-7,n04379243_0,flexible,0.71689,n02933112_4,Stimuli/psy_flexible_rotation_30_objects_occ0.7_0.9s/images/train/n02933112_-18/n02933112_4/img_cgaxis_models_48_26_vray_composite_buffet_2015-3_gray.png,random,flexible,n04379243_-7,n02933112_-18,Stimuli/canonical view 2/img_n04379243_-7_gray.jpg,Stimuli/canonical view 2/img_n02933112_-18_gray.jpg,random,right,Experiments/experiment_45/24.jpg,Experiments/experiment_45/25.jpg,Experiments/experiment_45/26.jpg,Experiments/experiment_45/27.jpg,610,1,2023-06-28_15h25.59.773,Occlusion_Psychophysics,2022.1.4,MacIntel,60.09615385,,,right,"[""right""]",[0.9139999999999873],False,,0.0,0.0,6.0,6.0,6.0,1.0,,,,,,
,,,,,,,,,,,,,,,,,,,,,0.05,,,,,,,,,,Stimuli/psy_flexible_rotation_30_objects_occ0.7_0.9s/images/train/n02828884_4/n04379243_8/img_b05_c-5_classic_series_bench-2012_glass_table_2000_gray.jpg,n02828884_4,n04379243_8,flexible,0.722736,n04379243_8,Stimuli/psy_flexible_rotation_30_objects_occ0.7_0.9s/images/train/n02828884_4/n04379243_8/img_b05_c-5_classic_series_bench-2012_glass_table_2000-3_gray.png,foreground,same as foreground,n02828884_4,n04379243_8,Stimuli/canonical view 2/img_n02828884_4_gray.jpg,Stimuli/canonical view 2/img_n04379243_8_gray.jpg,foreground,left,Experiments/experiment_45/28.jpg,Experiments/experiment_45/29.jpg,Experiments/experiment_45/30.jpg,Experiments/experiment_45/31.jpg,610,1,2023-06-28_15h25.59.773,Occlusion_Psychophysics,2022.1.4,MacIntel,60.09615385,,,right,"[""right""]",[1.2099999999999227],False,,0.0,0.0,7.0,7.0,7.0,1.0,,,,,,
,,,,,,,,,,,,,,,,,,,,,0.05,,,,,,,,,,Stimuli/psy_fixed_rotation_30_objects_occ0.7_0.9s/images/train/n03001627_9/n04256520_9/img_chair_eames_plastic_armchair_napoleon_iii_sofa_2003_gray.jpg,n03001627_9,n04256520_9,fixed,0.77176,n02883344_0,Stimuli/psy_flexible_rotation_30_objects_occ0.7_0.9s/images/train/n04256520_5/n02883344_0/img_meridiani_belmondo_bench_sofa_b03_box_2007-3_gray.png,random,flexible,n03001627_9,n02933112_-18,Stimuli/canonical view 2/img_n03001627_9_gray.jpg,Stimuli/canonical view 2/img_n02933112_-18_gray.jpg,random,left,Experiments/experiment_45/32.jpg,Experiments/experiment_45/33.jpg,Experiments/experiment_45/34.jpg,Experiments/experiment_45/35.jpg,610,1,2023-06-28_15h25.59.773,Occlusion_Psychophysics,2022.1.4,MacIntel,60.09615385,,,right,"[""right""]",[1.4120000000000346],False,,0.0,0.0,8.0,8.0,8.0,1.0,,,,,,
,,,,,,,,,,,,,,,,,,,,,0.05,,,,,,,,,,Stimuli/psy_fixed_rotation_30_objects_occ0.7_0.9s/images/train/n04256520_4/n04405907_8/img_club_house_italia_nautilus_sofa_stylized_tv_2001_gray.jpg,n04256520_4,n04405907_8,fixed,0.725232,n04405907_8,Stimuli/psy_fixed_rotation_30_objects_occ0.7_0.9s/images/train/n04256520_4/n04405907_8/img_club_house_italia_nautilus_sofa_stylized_tv_2001-3_gray.png,foreground,same as foreground,n04256520_4,n04405907_8,Stimuli/canonical view 2/img_n04256520_4_gray.jpg,Stimuli/canonical view 2/img_n04405907_8_gray.jpg,foreground,right,Experiments/experiment_45/36.jpg,Experiments/experiment_45/37.jpg,Experiments/experiment_45/38.jpg,Experiments/experiment_45/39.jpg,610,1,2023-06-28_15h25.59.773,Occlusion_Psychophysics,2022.1.4,MacIntel,60.09615385,,,left,"[""left""]",[0.8600000000000136],False,,0.0,0.0,9.0,9.0,9.0,1.0,,,,,,
,,,,,,,,,,,,,,,,,,,,,0.025,,,,,,,,,,Stimuli/psy_flexible_rotation_30_objects_occ0.7_0.9s/images/train/n04379243_0/n02818832_9/img_17th_c._monastery_dining_table_2010_bed01_blue_2013_gray.jpg,n04379243_0,n02818832_9,flexible,0.741255,n02883344_15,Stimuli/psy_flexible_rotation_30_objects_occ0.7_0.9s/images/train/n02883344_15/n02883344_15/img_microwave_box_microwave_box_2001-3_gray.png,random,flexible,n04379243_0,n04256520_9,Stimuli/canonical view 2/img_n04379243_0_gray.jpg,Stimuli/canonical view 2/img_n04256520_9_gray.jpg,random,left,Experiments/experiment_45/40.jpg,Experiments/experiment_45/41.jpg,Experiments/experiment_45/42.jpg,Experiments/experiment_45/43.jpg,610,1,2023-06-28_15h25.59.773,Occlusion_Psychophysics,2022.1.4,MacIntel,60.09615385,,,left,"[""left""]",[0.8919999999999391],False,,0.0,0.0,10.0,10.0,10.0,1.0,,,,,,
,,,,,,,,,,,,,,,,,,,,,0.025,,,,,,,,,,Stimuli/psy_flexible_rotation_30_objects_occ0.7_0.9s/images/train/n03928116_4/n02818832_3/img_dp_33_b_2013__vray_b05_ccm_contemporary_bed_max2013_2007_gray.jpg,n03928116_4,n02818832_3,flexible,0.707121,n02818832_3,Stimuli/psy_flexible_rotation_30_objects_occ0.7_0.9s/images/train/n03928116_4/n02818832_3/img_dp_33_b_2013__vray_b05_ccm_contemporary_bed_max2013_2007-3_gray.png,foreground,same as foreground,n03928116_4,n02818832_3,Stimuli/canonical view 2/img_n03928116_4_gray.jpg,Stimuli/canonical view 2/img_n02818832_3_gray.jpg,foreground,right,Experiments/experiment_45/44.jpg,Experiments/experiment_45/45.jpg,Experiments/experiment_45/46.jpg,Experiments/experiment_45/47.jpg,610,1,2023-06-28_15h25.59.773,Occlusion_Psychophysics,2022.1.4,MacIntel,60.09615385,,,right,"[""right""]",[0.7119999999999891],False,,0.0,0.0,11.0,11.0,11.0,1.0,,,,,,
,,,,,,,,,,,,,,,,,,,,,0.05,,,,,,,,,,Stimuli/psy_flexible_rotation_30_objects_occ0.7_0.9s/images/train/n04379243_-7/n04405907_5/img_quatre_dining_table_samsung_40_uhd_smart_tv_2011_2015_gray.jpg,n04379243_-7,n04405907_5,flexible,0.807996,n02933112_-2,Stimuli/psy_flexible_rotation_30_objects_occ0.7_0.9s/images/train/n04070727_5/n02933112_-2/img_b05_db_apps_tech_06_13_composite_sink_base_white_wood_2009-3_gray.png,random,flexible,n04379243_-7,n02933112_-18,Stimuli/canonical view 2/img_n04379243_-7_gray.jpg,Stimuli/canonical view 2/img_n02933112_-18_gray.jpg,random,left,Experiments/experiment_45/48.jpg,Experiments/experiment_45/49.jpg,Experiments/experiment_45/50.jpg,Experiments/experiment_45/51.jpg,610,1,2023-06-28_15h25.59.773,Occlusion_Psychophysics,2022.1.4,MacIntel,60.09615385,,,left,"[""left""]",[0.9429999999999836],False,,0.0,0.0,12.0,12.0,12.0,1.0,,,,,,
,,,,,,,,,,,,,,,,,,,,,0.025,,,,,,,,,,Stimuli/psy_flexible_rotation_30_objects_occ0.7_0.9s/images/train/n03928116_4/n04256520_9/img_dp_33_b_2013__vray_napoleon_iii_sofa_2001_gray.jpg,n03928116_4,n04256520_9,flexible,0.701587,n03001627_8,Stimuli/psy_flexible_rotation_30_objects_occ0.7_0.9s/images/train/n04405907_8/n03001627_8/img_stylized_tv_chair_billiani_doll_2002-3_gray.png,random,flexible,n03928116_4,n04256520_9,Stimuli/canonical view 2/img_n03928116_4_gray.jpg,Stimuli/canonical view 2/img_n04256520_9_gray.jpg,foreground,left,Experiments/experiment_45/52.jpg,Experiments/experiment_45/53.jpg,Experiments/experiment_45/54.jpg,Experiments/experiment_45/55.jpg,610,1,2023-06-28_15h25.59.773,Occlusion_Psychophysics,2022.1.4,MacIntel,60.09615385,,,left,"[""left""]",[1.125],False,,0.0,0.0,13.0,13.0,13.0,1.0,,,,,,
,,,,,,,,,,,,,,,,,,,,,0.05,,,,,,,,,,Stimuli/psy_flexible_rotation_30_objects_occ0.7_0.9s/images/train/n02818832_0/n02933112_-2/img_b03_the_sofa_and_chair_company_-_stanley_bed_2014_sink_base_white_wood_2011_gray.jpg,n02818832_0,n02933112_-2,flexible,0.777599,n02933112_-2,Stimuli/psy_flexible_rotation_30_objects_occ0.7_0.9s/images/train/n02818832_0/n02933112_-2/img_b03_the_sofa_and_chair_company_-_stanley_bed_2014_sink_base_white_wood_2011-3_gray.png,foreground,same as foreground,n02818832_0,n02933112_-2,Stimuli/canonical view 2/img_n02818832_0_gray.jpg,Stimuli/canonical view 2/img_n02933112_-2_gray.jpg,foreground,left,Experiments/experiment_45/56.jpg,Experiments/experiment_45/57.jpg,Experiments/experiment_45/58.jpg,Experiments/experiment_45/59.jpg,610,1,2023-06-28_15h25.59.773,Occlusion_Psychophysics,2022.1.4,MacIntel,60.09615385,,,left,"[""right""]",[1.322999999999979],False,,0.0,0.0,14.0,14.0,14.0,1.0,,,,,,
,,,,,,,,,,,,,,,,,,,,,0.05,,,,,,,,,,Stimuli/psy_flexible_rotation_30_objects_occ0.7_0.9s/images/train/n03928116_10/n02828884_3/img_ydp_103_r_2012__vray_b04_wood_metal_park_bench_2010_gray.jpg,n03928116_10,n02828884_3,flexible,0.800873,n02828884_3,Stimuli/psy_flexible_rotation_30_objects_occ0.7_0.9s/images/train/n03928116_10/n02828884_3/img_ydp_103_r_2012__vray_b04_wood_metal_park_bench_2010-3_gray.png,foreground,same as foreground,n03928116_10,n02828884_9,Stimuli/canonical view 2/img_n03928116_10_gray.jpg,Stimuli/canonical view 2/img_n02828884_9_gray.jpg,random,right,Experiments/experiment_45/60.jpg,Experiments/experiment_45/61.jpg,Experiments/experiment_45/62.jpg,Experiments/experiment_45/63.jpg,610,1,2023-06-28_15h25.59.773,Occlusion_Psychophysics,2022.1.4,MacIntel,60.09615385,,,left,"[""right""]",[1.2930000000000064],False,,0.0,0.0,15.0,15.0,15.0,1.0,,,,,,
,,,,,,,,,,,,,,,,,,,,,0.025,,,,,,,,,,Stimuli/psy_flexible_rotation_30_objects_occ0.7_0.9s/images/train/n02933112_-18/n02933112_-2/img_cgaxis_models_48_26_vray_composite_sink_base_white_wood_2002_gray.jpg,n02933112_-18,n02933112_-2,flexible,0.799841,n03928116_10,Stimuli/psy_fixed_rotation_30_objects_occ0.7_0.9s/images/train/n02828884_3/n03928116_10/img_b04_wood_metal_park_bench_ydp_103_r_2012__vray_2011-3_gray.png,random,fixed,n02933112_-18,n04256520_5,Stimuli/canonical view 2/img_n02933112_-18_gray.jpg,Stimuli/canonical view 2/img_n04256520_5_gray.jpg,random,left,Experiments/experiment_45/64.jpg,Experiments/experiment_45/65.jpg,Experiments/experiment_45/66.jpg,Experiments/experiment_45/67.jpg,610,1,2023-06-28_15h25.59.773,Occlusion_Psychophysics,2022.1.4,MacIntel,60.09615385,,,right,"[""left""]",[1.240000000000009],False,,0.0,0.0,16.0,16.0,16.0,1.0,,,,,,
,,,,,,,,,,,,,,,,,,,,,0.05,,,,,,,,,,Stimuli/psy_flexible_rotation_30_objects_occ0.7_0.9s/images/train/n04405907_5/n02818832_0/img_samsung_40_uhd_smart_tv_2011_b03_the_sofa_and_chair_company_-_stanley_bed_2014_2012_gray.jpg,n04405907_5,n02818832_0,flexible,0.725932,n02818832_0,Stimuli/psy_flexible_rotation_30_objects_occ0.7_0.9s/images/train/n04405907_5/n02818832_0/img_samsung_40_uhd_smart_tv_2011_b03_the_sofa_and_chair_company_-_stanley_bed_2014_2012-3_gray.png,foreground,same as foreground,n04405907_5,n02818832_0,Stimuli/canonical view 2/img_n04405907_5_gray.jpg,Stimuli/canonical view 2/img_n02818832_0_gray.jpg,foreground,right,Experiments/experiment_45/68.jpg,Experiments/experiment_45/69.jpg,Experiments/experiment_45/70.jpg,Experiments/experiment_45/71.jpg,610,1,2023-06-28_15h25.59.773,Occlusion_Psychophysics,2022.1.4,MacIntel,60.09615385,,,left,"[""left""]",[0.8970000000000482],False,,0.0,0.0,17.0,17.0,17.0,1.0,,,,,,
,,,,,,,,,,,,,,,,,,,,,0.05,,,,,,,,,,Stimuli/psy_flexible_rotation_30_objects_occ0.7_0.9s/images/train/n04379243_8/n02818832_9/img_glass_table_bed01_blue_2007_gray.jpg,n04379243_8,n02818832_9,flexible,0.741072,n02818832_9,Stimuli/psy_flexible_rotation_30_objects_occ0.7_0.9s/images/train/n04379243_8/n02818832_9/img_glass_table_bed01_blue_2007-3_gray.png,foreground,same as foreground,n04379243_8,n02933112_4,Stimuli/canonical view 2/img_n04379243_8_gray.jpg,Stimuli/canonical view 2/img_n02933112_4_gray.jpg,random,left,Experiments/experiment_45/72.jpg,Experiments/experiment_45/73.jpg,Experiments/experiment_45/74.jpg,Experiments/experiment_45/75.jpg,610,1,2023-06-28_15h25.59.773,Occlusion_Psychophysics,2022.1.4,MacIntel,60.09615385,,,left,"[""left""]",[0.8440000000000509],False,,0.0,0.0,18.0,18.0,18.0,1.0,,,,,,
,,,,,,,,,,,,,,,,,,,,,0.025,,,,,,,,,,Stimuli/psy_flexible_rotation_30_objects_occ0.7_0.9s/images/train/n02883344_-1/n04379243_0/img_woven_box_17th_c._monastery_dining_table_2010_2010_gray.jpg,n02883344_-1,n04379243_0,flexible,0.78391,n04379243_0,Stimuli/psy_flexible_rotation_30_objects_occ0.7_0.9s/images/train/n02883344_-1/n04379243_0/img_woven_box_17th_c._monastery_dining_table_2010_2010-3_gray.png,foreground,same as foreground,n02883344_-1,n04379243_0,Stimuli/canonical view 2/img_n02883344_-1_gray.jpg,Stimuli/canonical view 2/img_n04379243_0_gray.jpg,foreground,left,Experiments/experiment_45/76.jpg,Experiments/experiment_45/77.jpg,Experiments/experiment_45/78.jpg,Experiments/experiment_45/79.jpg,610,1,2023-06-28_15h25.59.773,Occlusion_Psychophysics,2022.1.4,MacIntel,60.09615385,,,right,"[""right""]",[0.9070000000000391],False,,0.0,0.0,19.0,19.0,19.0,1.0,,,,,,
,,,,,,,,,,,,,,,,,,,,,0.05,,,,,,,,,,Stimuli/psy_flexible_rotation_30_objects_occ0.7_0.9s/images/train/n03928116_0/n04379243_-7/img_b02_piano_quatre_dining_table_2008_gray.jpg,n03928116_0,n04379243_-7,flexible,0.751391,n02883344_-1,Stimuli/psy_flexible_rotation_30_objects_occ0.7_0.9s/images/train/n03001627_9/n02883344_-1/img_chair_eames_plastic_armchair_woven_box_2013-3_gray.png,random,flexible,n03928116_0,n02828884_4,Stimuli/canonical view 2/img_n03928116_0_gray.jpg,Stimuli/canonical view 2/img_n02828884_4_gray.jpg,random,right,Experiments/experiment_45/80.jpg,Experiments/experiment_45/81.jpg,Experiments/experiment_45/82.jpg,Experiments/experiment_45/83.jpg,610,1,2023-06-28_15h25.59.773,Occlusion_Psychophysics,2022.1.4,MacIntel,60.09615385,,,left,"[""left""]",[1.127999999999929],False,,0.0,0.0,20.0,20.0,20.0,1.0,,,,,,
,,,,,,,,,,,,,,,,,,,,,0.025,,,,,,,,,,Stimuli/psy_fixed_rotation_30_objects_occ0.7_0.9s/images/train/n04379243_-7/n02933112_4/img_quatre_dining_table_buffet_2014_gray.jpg,n04379243_-7,n02933112_4,fixed,0.89162,n02933112_4,Stimuli/psy_fixed_rotation_30_objects_occ0.7_0.9s/images/train/n04379243_-7/n02933112_4/img_quatre_dining_table_buffet_2014-3_gray.png,foreground,same as foreground,n04379243_-7,n03001627_8,Stimuli/canonical view 2/img_n04379243_-7_gray.jpg,Stimuli/canonical view 2/img_n03001627_8_gray.jpg,random,left,Experiments/experiment_45/84.jpg,Experiments/experiment_45/85.jpg,Experiments/experiment_45/86.jpg,Experiments/experiment_45/87.jpg,610,1,2023-06-28_15h25.59.773,Occlusion_Psychophysics,2022.1.4,MacIntel,60.09615385,,,left,"[""right""]",[0.9639999999999418],False,,0.0,0.0,21.0,21.0,21.0,1.0,,,,,,
,,,,,,,,,,,,,,,,,,,,,0.025,,,,,,,,,,Stimuli/psy_fixed_rotation_30_objects_occ0.7_0.9s/images/train/n03001627_-2/n03928116_0/img_wood_chair_b02_piano_2013_gray.jpg,n03001627_-2,n03928116_0,fixed,0.746473,n03928116_0,Stimuli/psy_fixed_rotation_30_objects_occ0.7_0.9s/images/train/n03001627_-2/n03928116_0/img_wood_chair_b02_piano_2013-3_gray.png,foreground,same as foreground,n03001627_-2,n04405907_9,Stimuli/canonical view 2/img_n03001627_-2_gray.jpg,Stimuli/canonical view 2/img_n04405907_9_gray.jpg,random,left,Experiments/experiment_45/88.jpg,Experiments/experiment_45/89.jpg,Experiments/experiment_45/90.jpg,Experiments/experiment_45/91.jpg,610,1,2023-06-28_15h25.59.773,Occlusion_Psychophysics,2022.1.4,MacIntel,60.09615385,,,right,"[""right""]",[1.0119999999999436],True,left,1.0,0.0,22.0,22.0,22.0,1.0,1.401,,,,,
,,,,,,,,,,,,,,,,,,,,,0.05,,,,,,,,,,Stimuli/psy_fixed_rotation_30_objects_occ0.7_0.9s/images/train/n02818832_9/n02933112_-18/img_bed01_blue_cgaxis_models_48_26_vray_composite_2012_gray.jpg,n02818832_9,n02933112_-18,fixed,0.755165,n04256520_5,Stimuli/psy_flexible_rotation_30_objects_occ0.7_0.9s/images/train/n04379243_0/n04256520_5/img_17th_c._monastery_dining_table_2010_meridiani_belmondo_bench_sofa_2013-3_gray.png,random,flexible,n02818832_9,n02933112_-18,Stimuli/canonical view 2/img_n02818832_9_gray.jpg,Stimuli/canonical view 2/img_n02933112_-18_gray.jpg,foreground,right,Experiments/experiment_45/92.jpg,Experiments/experiment_45/93.jpg,Experiments/experiment_45/94.jpg,Experiments/experiment_45/95.jpg,610,1,2023-06-28_15h25.59.773,Occlusion_Psychophysics,2022.1.4,MacIntel,60.09615385,,,left,"[""left""]",[0.8519999999999754],False,,0.0,0.0,23.0,23.0,23.0,1.0,,,,,,
,,,,,,,,,,,,,,,,,,,,,0.025,,,,,,,,,,Stimuli/psy_fixed_rotation_30_objects_occ0.7_0.9s/images/train/n02883344_0/n02828884_9/img_b03_box_cr-96_bench_2001_gray.jpg,n02883344_0,n02828884_9,fixed,0.70049,n02818832_3,Stimuli/psy_flexible_rotation_30_objects_occ0.7_0.9s/images/train/n03928116_0/n02818832_3/img_b02_piano_b05_ccm_contemporary_bed_max2013_2001-3_gray.png,random,flexible,n02883344_0,n02828884_9,Stimuli/canonical view 2/img_n02883344_0_gray.jpg,Stimuli/canonical view 2/img_n02828884_9_gray.jpg,foreground,left,Experiments/experiment_45/96.jpg,Experiments/experiment_45/97.jpg,Experiments/experiment_45/98.jpg,Experiments/experiment_45/99.jpg,610,1,2023-06-28_15h25.59.773,Occlusion_Psychophysics,2022.1.4,MacIntel,60.09615385,,,left,"[""left""]",[0.8110000000000355],False,,0.0,0.0,24.0,24.0,24.0,1.0,,,,,,
,,,,,,,,,,,,,,,,,,,,,0.025,,,,,,,,,,Stimuli/psy_fixed_rotation_30_objects_occ0.7_0.9s/images/train/n04379243_8/n02883344_-1/img_glass_table_woven_box_2009_gray.jpg,n04379243_8,n02883344_-1,fixed,0.734829,n02883344_-1,Stimuli/psy_fixed_rotation_30_objects_occ0.7_0.9s/images/train/n04379243_8/n02883344_-1/img_glass_table_woven_box_2009-3_gray.png,foreground,same as foreground,n04379243_8,n02883344_-1,Stimuli/canonical view 2/img_n04379243_8_gray.jpg,Stimuli/canonical view 2/img_n02883344_-1_gray.jpg,foreground,right,Experiments/experiment_45/100.jpg,Experiments/experiment_45/101.jpg,Experiments/experiment_45/102.jpg,Experiments/experiment_45/103.jpg,610,1,2023-06-28_15h25.59.773,Occlusion_Psychophysics,2022.1.4,MacIntel,60.09615385,,,left,"[""left""]",[0.6040000000000418],False,,0.0,0.0,25.0,25.0,25.0,1.0,,,,,,
,,,,,,,,,,,,,,,,,,,,,0.025,,,,,,,,,,Stimuli/psy_fixed_rotation_30_objects_occ0.7_0.9s/images/train/n02828884_4/n03928116_0/img_b05_c-5_classic_series_bench-2012_b02_piano_2010_gray.jpg,n02828884_4,n03928116_0,fixed,0.74194,n03928116_0,Stimuli/psy_fixed_rotation_30_objects_occ0.7_0.9s/images/train/n02828884_4/n03928116_0/img_b05_c-5_classic_series_bench-2012_b02_piano_2010-3_gray.png,foreground,same as foreground,n02828884_4,n04379243_0,Stimuli/canonical view 2/img_n02828884_4_gray.jpg,Stimuli/canonical view 2/img_n04379243_0_gray.jpg,random,left,Experiments/experiment_45/104.jpg,Experiments/experiment_45/105.jpg,Experiments/experiment_45/106.jpg,Experiments/experiment_45/107.jpg,610,1,2023-06-28_15h25.59.773,Occlusion_Psychophysics,2022.1.4,MacIntel,60.09615385,,,left,"[""right""]",[1.4649999999999181],False,,0.0,0.0,26.0,26.0,26.0,1.0,,,,,,
,,,,,,,,,,,,,,,,,,,,,0.025,,,,,,,,,,Stimuli/psy_flexible_rotation_30_objects_occ0.7_0.9s/images/train/n03928116_0/n03001627_8/img_b02_piano_chair_billiani_doll_2001_gray.jpg,n03928116_0,n03001627_8,flexible,0.720458,n04405907_5,Stimuli/psy_fixed_rotation_30_objects_occ0.7_0.9s/images/train/n03928116_0/n04405907_5/img_b02_piano_samsung_40_uhd_smart_tv_2011_2013-3_gray.png,random,fixed,n03928116_0,n03001627_8,Stimuli/canonical view 2/img_n03928116_0_gray.jpg,Stimuli/canonical view 2/img_n03001627_8_gray.jpg,foreground,right,Experiments/experiment_45/108.jpg,Experiments/experiment_45/109.jpg,Experiments/experiment_45/110.jpg,Experiments/experiment_45/111.jpg,610,1,2023-06-28_15h25.59.773,Occlusion_Psychophysics,2022.1.4,MacIntel,60.09615385,,,left,"[""right""]",[0.9460000000000264],False,,0.0,0.0,27.0,27.0,27.0,1.0,,,,,,
,,,,,,,,,,,,,,,,,,,,,0.05,,,,,,,,,,Stimuli/psy_flexible_rotation_30_objects_occ0.7_0.9s/images/train/n04405907_5/n04379243_-7/img_samsung_40_uhd_smart_tv_2011_quatre_dining_table_2002_gray.jpg,n04405907_5,n04379243_-7,flexible,0.764925,n02933112_-18,Stimuli/psy_fixed_rotation_30_objects_occ0.7_0.9s/images/train/n04405907_9/n02933112_-18/img_vray_004_cgaxis_models_48_26_vray_composite_2008-3_gray.png,random,fixed,n04405907_5,n04379243_-7,Stimuli/canonical view 2/img_n04405907_5_gray.jpg,Stimuli/canonical view 2/img_n04379243_-7_gray.jpg,foreground,left,Experiments/experiment_45/112.jpg,Experiments/experiment_45/113.jpg,Experiments/experiment_45/114.jpg,Experiments/experiment_45/115.jpg,610,1,2023-06-28_15h25.59.773,Occlusion_Psychophysics,2022.1.4,MacIntel,60.09615385,,,left,"[""right""]",[0.8940000000000055],False,,0.0,0.0,28.0,28.0,28.0,1.0,,,,,,
,,,,,,,,,,,,,,,,,,,,,0.025,,,,,,,,,,Stimuli/psy_flexible_rotation_30_objects_occ0.7_0.9s/images/train/n02818832_0/n04379243_0/img_b03_the_sofa_and_chair_company_-_stanley_bed_2014_17th_c._monastery_dining_table_2010_2007_gray.jpg,n02818832_0,n04379243_0,flexible,0.836015,n04379243_0,Stimuli/psy_flexible_rotation_30_objects_occ0.7_0.9s/images/train/n02818832_0/n04379243_0/img_b03_the_sofa_and_chair_company_-_stanley_bed_2014_17th_c._monastery_dining_table_2010_2007-3_gray.png,foreground,same as foreground,n02818832_0,n03928116_10,Stimuli/canonical view 2/img_n02818832_0_gray.jpg,Stimuli/canonical view 2/img_n03928116_10_gray.jpg,random,right,Experiments/experiment_45/116.jpg,Experiments/experiment_45/117.jpg,Experiments/experiment_45/118.jpg,Experiments/experiment_45/119.jpg,610,1,2023-06-28_15h25.59.773,Occlusion_Psychophysics,2022.1.4,MacIntel,60.09615385,,,right,"[""right""]",[0.94399999999996],False,,0.0,0.0,29.0,29.0,29.0,1.0,,,,,,
,,,,,,,,,,,,,,,,,,,,,0.025,,,,,,,,,,Stimuli/psy_flexible_rotation_30_objects_occ0.7_0.9s/images/train/n03001627_8/n02883344_0/img_chair_billiani_doll_b03_box_2000_gray.jpg,n03001627_8,n02883344_0,flexible,0.757674,n04405907_9,Stimuli/psy_fixed_rotation_30_objects_occ0.7_0.9s/images/train/n02883344_-1/n04405907_9/img_woven_box_vray_004_2014-3_gray.png,random,fixed,n03001627_8,n02828884_3,Stimuli/canonical view 2/img_n03001627_8_gray.jpg,Stimuli/canonical view 2/img_n02828884_3_gray.jpg,random,left,Experiments/experiment_45/120.jpg,Experiments/experiment_45/121.jpg,Experiments/experiment_45/122.jpg,Experiments/experiment_45/123.jpg,610,1,2023-06-28_15h25.59.773,Occlusion_Psychophysics,2022.1.4,MacIntel,60.09615385,,,right,"[""left""]",[1.2609999999999673],False,,0.0,0.0,30.0,30.0,30.0,1.0,,,,,,
,,,,,,,,,,,,,,,,,,,,,0.025,,,,,,,,,,Stimuli/psy_flexible_rotation_30_objects_occ0.7_0.9s/images/train/n04405907_9/n02883344_-1/img_vray_004_woven_box_2003_gray.jpg,n04405907_9,n02883344_-1,flexible,0.860358,n02818832_3,Stimuli/psy_flexible_rotation_30_objects_occ0.7_0.9s/images/train/n02883344_0/n02818832_3/img_b03_box_b05_ccm_contemporary_bed_max2013_2012-3_gray.png,random,flexible,n04405907_9,n02883344_-1,Stimuli/canonical view 2/img_n04405907_9_gray.jpg,Stimuli/canonical view 2/img_n02883344_-1_gray.jpg,foreground,right,Experiments/experiment_45/124.jpg,Experiments/experiment_45/125.jpg,Experiments/experiment_45/126.jpg,Experiments/experiment_45/127.jpg,610,1,2023-06-28_15h25.59.773,Occlusion_Psychophysics,2022.1.4,MacIntel,60.09615385,,,left,"[""left""]",[0.9429999999999836],True,left,1.0,0.0,31.0,31.0,31.0,1.0,0.967,,,,,
,,,,,,,,,,,,,,,,,,,,,0.025,,,,,,,,,,Stimuli/psy_flexible_rotation_30_objects_occ0.7_0.9s/images/train/n04379243_-7/n04405907_8/img_quatre_dining_table_stylized_tv_2015_gray.jpg,n04379243_-7,n04405907_8,flexible,0.711875,n04405907_8,Stimuli/psy_flexible_rotation_30_objects_occ0.7_0.9s/images/train/n04379243_-7/n04405907_8/img_quatre_dining_table_stylized_tv_2015-3_gray.png,foreground,same as foreground,n04379243_-7,n04405907_8,Stimuli/canonical view 2/img_n04379243_-7_gray.jpg,Stimuli/canonical view 2/img_n04405907_8_gray.jpg,foreground,left,Experiments/experiment_45/128.jpg,Experiments/experiment_45/129.jpg,Experiments/experiment_45/130.jpg,Experiments/experiment_45/131.jpg,610,1,2023-06-28_15h25.59.773,Occlusion_Psychophysics,2022.1.4,MacIntel,60.09615385,,,right,"[""right""]",[0.9939999999999145],False,,0.0,0.0,32.0,32.0,32.0,1.0,,,,,,
,,,,,,,,,,,,,,,,,,,,,0.025,,,,,,,,,,Stimuli/psy_fixed_rotation_30_objects_occ0.7_0.9s/images/train/n03001627_9/n02828884_4/img_chair_eames_plastic_armchair_b05_c-5_classic_series_bench-2012_2007_gray.jpg,n03001627_9,n02828884_4,fixed,0.750894,n02828884_4,Stimuli/psy_fixed_rotation_30_objects_occ0.7_0.9s/images/train/n03001627_9/n02828884_4/img_chair_eames_plastic_armchair_b05_c-5_classic_series_bench-2012_2007-3_gray.png,foreground,same as foreground,n03001627_9,n02933112_-18,Stimuli/canonical view 2/img_n03001627_9_gray.jpg,Stimuli/canonical view 2/img_n02933112_-18_gray.jpg,random,left,Experiments/experiment_45/132.jpg,Experiments/experiment_45/133.jpg,Experiments/experiment_45/134.jpg,Experiments/experiment_45/135.jpg,610,1,2023-06-28_15h25.59.773,Occlusion_Psychophysics,2022.1.4,MacIntel,60.09615385,,,right,"[""right""]",[1.0779999999999745],False,,0.0,0.0,33.0,33.0,33.0,1.0,,,,,,
,,,,,,,,,,,,,,,,,,,,,0.05,,,,,,,,,,Stimuli/psy_fixed_rotation_30_objects_occ0.7_0.9s/images/train/n02818832_3/n03928116_4/img_b05_ccm_contemporary_bed_max2013_dp_33_b_2013__vray_2004_gray.jpg,n02818832_3,n03928116_4,fixed,0.711101,n02933112_-18,Stimuli/psy_flexible_rotation_30_objects_occ0.7_0.9s/images/train/n02828884_3/n02933112_-18/img_b04_wood_metal_park_bench_cgaxis_models_48_26_vray_composite_2010-3_gray.png,random,flexible,n02818832_3,n03928116_4,Stimuli/canonical view 2/img_n02818832_3_gray.jpg,Stimuli/canonical view 2/img_n03928116_4_gray.jpg,foreground,right,Experiments/experiment_45/136.jpg,Experiments/experiment_45/137.jpg,Experiments/experiment_45/138.jpg,Experiments/experiment_45/139.jpg,610,1,2023-06-28_15h25.59.773,Occlusion_Psychophysics,2022.1.4,MacIntel,60.09615385,,,left,"[""left""]",[1.4290000000000873],False,,0.0,0.0,34.0,34.0,34.0,1.0,,,,,,
,,,,,,,,,,,,,,,,,,,,,0.05,,,,,,,,,,Stimuli/psy_flexible_rotation_30_objects_occ0.7_0.9s/images/train/n04379243_-7/n04256520_5/img_quatre_dining_table_meridiani_belmondo_bench_sofa_2014_gray.jpg,n04379243_-7,n04256520_5,flexible,0.774063,n02828884_3,Stimuli/psy_fixed_rotation_30_objects_occ0.7_0.9s/images/train/n02883344_0/n02828884_3/img_b03_box_b04_wood_metal_park_bench_2011-3_gray.png,random,fixed,n04379243_-7,n03928116_4,Stimuli/canonical view 2/img_n04379243_-7_gray.jpg,Stimuli/canonical view 2/img_n03928116_4_gray.jpg,random,left,Experiments/experiment_45/140.jpg,Experiments/experiment_45/141.jpg,Experiments/experiment_45/142.jpg,Experiments/experiment_45/143.jpg,610,1,2023-06-28_15h25.59.773,Occlusion_Psychophysics,2022.1.4,MacIntel,60.09615385,,,left,"[""right""]",[1.4780000000000655],False,,0.0,0.0,35.0,35.0,35.0,1.0,,,,,,
,,,,,,,,,,,,,,,,,,,,,0.05,,,,,,,,,,Stimuli/psy_fixed_rotation_30_objects_occ0.7_0.9s/images/train/n02818832_9/n04405907_5/img_bed01_blue_samsung_40_uhd_smart_tv_2011_2007_gray.jpg,n02818832_9,n04405907_5,fixed,0.876271,n04405907_5,Stimuli/psy_fixed_rotation_30_objects_occ0.7_0.9s/images/train/n02818832_9/n04405907_5/img_bed01_blue_samsung_40_uhd_smart_tv_2011_2007-3_gray.png,foreground,same as foreground,n02818832_9,n04405907_5,Stimuli/canonical view 2/img_n02818832_9_gray.jpg,Stimuli/canonical view 2/img_n04405907_5_gray.jpg,foreground,left,Experiments/experiment_45/144.jpg,Experiments/experiment_45/145.jpg,Experiments/experiment_45/146.jpg,Experiments/experiment_45/147.jpg,610,1,2023-06-28_15h25.59.773,Occlusion_Psychophysics,2022.1.4,MacIntel,60.09615385,,,left,"[""left""]",[1.2619999999999436],False,,0.0,0.0,36.0,36.0,36.0,1.0,,,,,,
,,,,,,,,,,,,,,,,,,,,,0.05,,,,,,,,,,Stimuli/psy_flexible_rotation_30_objects_occ0.7_0.9s/images/train/n04405907_9/n02818832_3/img_vray_004_b05_ccm_contemporary_bed_max2013_2010_gray.jpg,n04405907_9,n02818832_3,flexible,0.712364,n02818832_3,Stimuli/psy_flexible_rotation_30_objects_occ0.7_0.9s/images/train/n04405907_9/n02818832_3/img_vray_004_b05_ccm_contemporary_bed_max2013_2010-3_gray.png,foreground,same as foreground,n04405907_9,n02818832_3,Stimuli/canonical view 2/img_n04405907_9_gray.jpg,Stimuli/canonical view 2/img_n02818832_3_gray.jpg,foreground,left,Experiments/experiment_45/148.jpg,Experiments/experiment_45/149.jpg,Experiments/experiment_45/150.jpg,Experiments/experiment_45/151.jpg,610,1,2023-06-28_15h25.59.773,Occlusion_Psychophysics,2022.1.4,MacIntel,60.09615385,,,right,"[""right""]",[1.127999999999929],False,,0.0,0.0,37.0,37.0,37.0,1.0,,,,,,
,,,,,,,,,,,,,,,,,,,,,0.05,,,,,,,,,,Stimuli/psy_fixed_rotation_30_objects_occ0.7_0.9s/images/train/n02933112_4/n04405907_8/img_buffet_stylized_tv_2004_gray.jpg,n02933112_4,n04405907_8,fixed,0.771376,n02818832_3,Stimuli/psy_fixed_rotation_30_objects_occ0.7_0.9s/images/train/n02933112_-18/n02818832_3/img_cgaxis_models_48_26_vray_composite_b05_ccm_contemporary_bed_max2013_2012-3_gray.png,random,fixed,n02933112_4,n04405907_8,Stimuli/canonical view 2/img_n02933112_4_gray.jpg,Stimuli/canonical view 2/img_n04405907_8_gray.jpg,foreground,right,Experiments/experiment_45/152.jpg,Experiments/experiment_45/153.jpg,Experiments/experiment_45/154.jpg,Experiments/experiment_45/155.jpg,610,1,2023-06-28_15h25.59.773,Occlusion_Psychophysics,2022.1.4,MacIntel,60.09615385,,,right,"[""right""]",[0.9610000000000127],False,,0.0,0.0,38.0,38.0,38.0,1.0,,,,,,
,,,,,,,,,,,,,,,,,,,,,0.025,,,,,,,,,,Stimuli/psy_fixed_rotation_30_objects_occ0.7_0.9s/images/train/n03928116_4/n04405907_5/img_dp_33_b_2013__vray_samsung_40_uhd_smart_tv_2011_2000_gray.jpg,n03928116_4,n04405907_5,fixed,0.705194,n02828884_3,Stimuli/psy_fixed_rotation_30_objects_occ0.7_0.9s/images/train/n04405907_5/n02828884_3/img_samsung_40_uhd_smart_tv_2011_b04_wood_metal_park_bench_2004-3_gray.png,random,fixed,n03928116_4,n04256520_4,Stimuli/canonical view 2/img_n03928116_4_gray.jpg,Stimuli/canonical view 2/img_n04256520_4_gray.jpg,random,left,Experiments/experiment_45/156.jpg,Experiments/experiment_45/157.jpg,Experiments/experiment_45/158.jpg,Experiments/experiment_45/159.jpg,610,1,2023-06-28_15h25.59.773,Occlusion_Psychophysics,2022.1.4,MacIntel,60.09615385,,,left,"[""right""]",[1.4919999999999618],False,,0.0,0.0,39.0,39.0,39.0,1.0,,,,,,
,,,,,,,,,,,,,,,,,,,,,0.05,,,,,,,,,,Stimuli/psy_fixed_rotation_30_objects_occ0.7_0.9s/images/train/n03001627_9/n02883344_15/img_chair_eames_plastic_armchair_microwave_box_2000_gray.jpg,n03001627_9,n02883344_15,fixed,0.744857,n02818832_3,Stimuli/psy_fixed_rotation_30_objects_occ0.7_0.9s/images/train/n02933112_-2/n02818832_3/img_sink_base_white_wood_b05_ccm_contemporary_bed_max2013_2007-3_gray.png,random,fixed,n03001627_9,n03928116_0,Stimuli/canonical view 2/img_n03001627_9_gray.jpg,Stimuli/canonical view 2/img_n03928116_0_gray.jpg,random,left,Experiments/experiment_45/160.jpg,Experiments/experiment_45/161.jpg,Experiments/experiment_45/162.jpg,Experiments/experiment_45/163.jpg,610,1,2023-06-28_15h25.59.773,Occlusion_Psychophysics,2022.1.4,MacIntel,60.09615385,,,left,"[""left""]",[0.7069999999999936],False,,0.0,0.0,40.0,40.0,40.0,1.0,,,,,,
,,,,,,,,,,,,,,,,,,,,,0.05,,,,,,,,,,Stimuli/psy_fixed_rotation_30_objects_occ0.7_0.9s/images/train/n03001627_8/n02883344_15/img_chair_billiani_doll_microwave_box_2010_gray.jpg,n03001627_8,n02883344_15,fixed,0.735855,n04405907_8,Stimuli/psy_flexible_rotation_30_objects_occ0.7_0.9s/images/train/n02828884_4/n04405907_8/img_b05_c-5_classic_series_bench-2012_stylized_tv_2008-3_gray.png,random,flexible,n03001627_8,n02933112_4,Stimuli/canonical view 2/img_n03001627_8_gray.jpg,Stimuli/canonical view 2/img_n02933112_4_gray.jpg,random,right,Experiments/experiment_45/164.jpg,Experiments/experiment_45/165.jpg,Experiments/experiment_45/166.jpg,Experiments/experiment_45/167.jpg,610,1,2023-06-28_15h25.59.773,Occlusion_Psychophysics,2022.1.4,MacIntel,60.09615385,,,right,"[""right""]",[0.6650000000000773],False,,0.0,0.0,41.0,41.0,41.0,1.0,,,,,,
,,,,,,,,,,,,,,,,,,,,,0.025,,,,,,,,,,Stimuli/psy_fixed_rotation_30_objects_occ0.7_0.9s/images/train/n04379243_0/n02883344_15/img_17th_c._monastery_dining_table_2010_microwave_box_2010_gray.jpg,n04379243_0,n02883344_15,fixed,0.700641,n02883344_-1,Stimuli/psy_fixed_rotation_30_objects_occ0.7_0.9s/images/train/n02828884_4/n02883344_-1/img_b05_c-5_classic_series_bench-2012_woven_box_2002-3_gray.png,random,fixed,n04379243_0,n02818832_3,Stimuli/canonical view 2/img_n04379243_0_gray.jpg,Stimuli/canonical view 2/img_n02818832_3_gray.jpg,random,right,Experiments/experiment_45/168.jpg,Experiments/experiment_45/169.jpg,Experiments/experiment_45/170.jpg,Experiments/experiment_45/171.jpg,610,1,2023-06-28_15h25.59.773,Occlusion_Psychophysics,2022.1.4,MacIntel,60.09615385,,,right,"[""right""]",[0.6430000000000291],False,,0.0,0.0,42.0,42.0,42.0,1.0,,,,,,
,,,,,,,,,,,,,,,,,,,,,0.025,,,,,,,,,,Stimuli/psy_flexible_rotation_30_objects_occ0.7_0.9s/images/train/n02933112_-2/n04405907_9/img_sink_base_white_wood_vray_004_2008_gray.jpg,n02933112_-2,n04405907_9,flexible,0.834731,n04405907_9,Stimuli/psy_flexible_rotation_30_objects_occ0.7_0.9s/images/train/n02933112_-2/n04405907_9/img_sink_base_white_wood_vray_004_2008-3_gray.png,foreground,same as foreground,n02933112_-2,n02883344_-1,Stimuli/canonical view 2/img_n02933112_-2_gray.jpg,Stimuli/canonical view 2/img_n02883344_-1_gray.jpg,random,left,Experiments/experiment_45/172.jpg,Experiments/experiment_45/173.jpg,Experiments/experiment_45/174.jpg,Experiments/experiment_45/175.jpg,610,1,2023-06-28_15h25.59.773,Occlusion_Psychophysics,2022.1.4,MacIntel,60.09615385,,,left,"[""left""]",[0.8460000000000036],False,,0.0,0.0,43.0,43.0,43.0,1.0,,,,,,
,,,,,,,,,,,,,,,,,,,,,0.025,,,,,,,,,,Stimuli/psy_fixed_rotation_30_objects_occ0.7_0.9s/images/train/n02883344_0/n04256520_5/img_b03_box_meridiani_belmondo_bench_sofa_2008_gray.jpg,n02883344_0,n04256520_5,fixed,0.705719,n04256520_5,Stimuli/psy_fixed_rotation_30_objects_occ0.7_0.9s/images/train/n02883344_0/n04256520_5/img_b03_box_meridiani_belmondo_bench_sofa_2008-3_gray.png,foreground,same as foreground,n02883344_0,n04256520_5,Stimuli/canonical view 2/img_n02883344_0_gray.jpg,Stimuli/canonical view 2/img_n04256520_5_gray.jpg,foreground,right,Experiments/experiment_45/176.jpg,Experiments/experiment_45/177.jpg,Experiments/experiment_45/178.jpg,Experiments/experiment_45/179.jpg,610,1,2023-06-28_15h25.59.773,Occlusion_Psychophysics,2022.1.4,MacIntel,60.09615385,,,right,"[""right""]",[0.6649999999999636],True,left,1.0,0.0,44.0,44.0,44.0,1.0,0.835,,,,,
,,,,,,,,,,,,,,,,,,,,,0.05,,,,,,,,,,Stimuli/psy_fixed_rotation_30_objects_occ0.7_0.9s/images/train/n04256520_4/n02818832_0/img_club_house_italia_nautilus_sofa_b03_the_sofa_and_chair_company_-_stanley_bed_2014_2011_gray.jpg,n04256520_4,n02818832_0,fixed,0.783073,n02933112_-2,Stimuli/psy_fixed_rotation_30_objects_occ0.7_0.9s/images/train/n03928116_10/n02933112_-2/img_ydp_103_r_2012__vray_sink_base_white_wood_2015-3_gray.png,random,fixed,n04256520_4,n02818832_0,Stimuli/canonical view 2/img_n04256520_4_gray.jpg,Stimuli/canonical view 2/img_n02818832_0_gray.jpg,foreground,right,Experiments/experiment_45/180.jpg,Experiments/experiment_45/181.jpg,Experiments/experiment_45/182.jpg,Experiments/experiment_45/183.jpg,610,1,2023-06-28_15h25.59.773,Occlusion_Psychophysics,2022.1.4,MacIntel,60.09615385,,,right,"[""right""]",[0.9400000000000546],False,,0.0,0.0,45.0,45.0,45.0,1.0,,,,,,
,,,,,,,,,,,,,,,,,,,,,0.025,,,,,,,,,,Stimuli/psy_fixed_rotation_30_objects_occ0.7_0.9s/images/train/n04379243_-7/n02933112_4/img_quatre_dining_table_buffet_2009_gray.jpg,n04379243_-7,n02933112_4,fixed,0.779002,n04256520_5,Stimuli/psy_flexible_rotation_30_objects_occ0.7_0.9s/images/train/n02883344_0/n04256520_5/img_b03_box_meridiani_belmondo_bench_sofa_2002-3_gray.png,random,flexible,n04379243_-7,n02933112_4,Stimuli/canonical view 2/img_n04379243_-7_gray.jpg,Stimuli/canonical view 2/img_n02933112_4_gray.jpg,foreground,left,Experiments/experiment_45/184.jpg,Experiments/experiment_45/185.jpg,Experiments/experiment_45/186.jpg,Experiments/experiment_45/187.jpg,610,1,2023-06-28_15h25.59.773,Occlusion_Psychophysics,2022.1.4,MacIntel,60.09615385,,,right,"[""right""]",[0.9800000000000182],False,,0.0,0.0,46.0,46.0,46.0,1.0,,,,,,
,,,,,,,,,,,,,,,,,,,,,0.05,,,,,,,,,,Stimuli/psy_fixed_rotation_30_objects_occ0.7_0.9s/images/train/n02818832_9/n02933112_-2/img_bed01_blue_sink_base_white_wood_2003_gray.jpg,n02818832_9,n02933112_-2,fixed,0.757637,n02933112_-2,Stimuli/psy_fixed_rotation_30_objects_occ0.7_0.9s/images/train/n02818832_9/n02933112_-2/img_bed01_blue_sink_base_white_wood_2003-3_gray.png,foreground,same as foreground,n02818832_9,n04256520_5,Stimuli/canonical view 2/img_n02818832_9_gray.jpg,Stimuli/canonical view 2/img_n04256520_5_gray.jpg,random,right,Experiments/experiment_45/188.jpg,Experiments/experiment_45/189.jpg,Experiments/experiment_45/190.jpg,Experiments/experiment_45/191.jpg,610,1,2023-06-28_15h25.59.773,Occlusion_Psychophysics,2022.1.4,MacIntel,60.09615385,,,left,"[""left""]",[0.6599999999999682],False,,0.0,0.0,47.0,47.0,47.0,1.0,,,,,,
,,,,,,,,,,,,,,,,,,,,,0.05,,,,,,,,,,Stimuli/psy_fixed_rotation_30_objects_occ0.7_0.9s/images/train/n02818832_9/n04256520_4/img_bed01_blue_club_house_italia_nautilus_sofa_2014_gray.jpg,n02818832_9,n04256520_4,fixed,0.791661,n02883344_0,Stimuli/psy_fixed_rotation_30_objects_occ0.7_0.9s/images/train/n04256520_9/n02883344_0/img_napoleon_iii_sofa_b03_box_2012-3_gray.png,random,fixed,n02818832_9,n04256520_4,Stimuli/canonical view 2/img_n02818832_9_gray.jpg,Stimuli/canonical view 2/img_n04256520_4_gray.jpg,foreground,right,Experiments/experiment_45/192.jpg,Experiments/experiment_45/193.jpg,Experiments/experiment_45/194.jpg,Experiments/experiment_45/195.jpg,610,1,2023-06-28_15h25.59.773,Occlusion_Psychophysics,2022.1.4,MacIntel,60.09615385,,,left,"[""left""]",[0.8940000000000055],True,left,1.0,0.0,48.0,48.0,48.0,1.0,0.717,,,,,
,,,,,,,,,,,,,,,,,,,,,0.05,,,,,,,,,,Stimuli/psy_flexible_rotation_30_objects_occ0.7_0.9s/images/train/n04379243_0/n04405907_5/img_17th_c._monastery_dining_table_2010_samsung_40_uhd_smart_tv_2011_2014_gray.jpg,n04379243_0,n04405907_5,flexible,0.707997,n04405907_5,Stimuli/psy_flexible_rotation_30_objects_occ0.7_0.9s/images/train/n04379243_0/n04405907_5/img_17th_c._monastery_dining_table_2010_samsung_40_uhd_smart_tv_2011_2014-3_gray.png,foreground,same as foreground,n04379243_0,n02818832_3,Stimuli/canonical view 2/img_n04379243_0_gray.jpg,Stimuli/canonical view 2/img_n02818832_3_gray.jpg,random,left,Experiments/experiment_45/196.jpg,Experiments/experiment_45/197.jpg,Experiments/experiment_45/198.jpg,Experiments/experiment_45/199.jpg,610,1,2023-06-28_15h25.59.773,Occlusion_Psychophysics,2022.1.4,MacIntel,60.09615385,,,right,"[""right""]",[0.5789999999999509],False,,0.0,0.0,49.0,49.0,49.0,1.0,,,,,,
,,,,,,,,,,,,,,,,,,,,,0.025,,,,,,,,,,Stimuli/psy_fixed_rotation_30_objects_occ0.7_0.9s/images/train/n02883344_0/n02828884_9/img_b03_box_cr-96_bench_2004_gray.jpg,n02883344_0,n02828884_9,fixed,0.732688,n02818832_0,Stimuli/psy_fixed_rotation_30_objects_occ0.7_0.9s/images/train/n02933112_-2/n02818832_0/img_sink_base_white_wood_b03_the_sofa_and_chair_company_-_stanley_bed_2014_2004-3_gray.png,random,fixed,n02883344_0,n02828884_9,Stimuli/canonical view 2/img_n02883344_0_gray.jpg,Stimuli/canonical view 2/img_n02828884_9_gray.jpg,foreground,left,Experiments/experiment_45/200.jpg,Experiments/experiment_45/201.jpg,Experiments/experiment_45/202.jpg,Experiments/experiment_45/203.jpg,610,1,2023-06-28_15h25.59.773,Occlusion_Psychophysics,2022.1.4,MacIntel,60.09615385,,,right,"[""right""]",[0.6280000000000427],False,,0.0,0.0,50.0,50.0,50.0,1.0,,,,,,
,,,,,,,,,,,,,,,,,,,,,0.025,,,,,,,,,,Stimuli/psy_flexible_rotation_30_objects_occ0.7_0.9s/images/train/n02933112_-18/n04379243_-7/img_cgaxis_models_48_26_vray_composite_quatre_dining_table_2008_gray.jpg,n02933112_-18,n04379243_-7,flexible,0.728052,n04379243_0,Stimuli/psy_flexible_rotation_30_objects_occ0.7_0.9s/images/train/n02933112_-2/n04379243_0/img_sink_base_white_wood_17th_c._monastery_dining_table_2010_2004-3_gray.png,random,flexible,n02933112_-18,n04379243_-7,Stimuli/canonical view 2/img_n02933112_-18_gray.jpg,Stimuli/canonical view 2/img_n04379243_-7_gray.jpg,foreground,left,Experiments/experiment_45/204.jpg,Experiments/experiment_45/205.jpg,Experiments/experiment_45/206.jpg,Experiments/experiment_45/207.jpg,610,1,2023-06-28_15h25.59.773,Occlusion_Psychophysics,2022.1.4,MacIntel,60.09615385,,,left,"[""left""]",[0.8949999999999818],False,,0.0,0.0,51.0,51.0,51.0,1.0,,,,,,
,,,,,,,,,,,,,,,,,,,,,0.05,,,,,,,,,,Stimuli/psy_fixed_rotation_30_objects_occ0.7_0.9s/images/train/n04405907_9/n02818832_3/img_vray_004_b05_ccm_contemporary_bed_max2013_2015_gray.jpg,n04405907_9,n02818832_3,fixed,0.819007,n04256520_5,Stimuli/psy_fixed_rotation_30_objects_occ0.7_0.9s/images/train/n02933112_4/n04256520_5/img_buffet_meridiani_belmondo_bench_sofa_2005-3_gray.png,random,fixed,n04405907_9,n02818832_3,Stimuli/canonical view 2/img_n04405907_9_gray.jpg,Stimuli/canonical view 2/img_n02818832_3_gray.jpg,foreground,right,Experiments/experiment_45/208.jpg,Experiments/experiment_45/209.jpg,Experiments/experiment_45/210.jpg,Experiments/experiment_45/211.jpg,610,1,2023-06-28_15h25.59.773,Occlusion_Psychophysics,2022.1.4,MacIntel,60.09615385,,,left,"[""left""]",[1.0949999999999136],False,,0.0,0.0,52.0,52.0,52.0,1.0,,,,,,
,,,,,,,,,,,,,,,,,,,,,0.05,,,,,,,,,,Stimuli/psy_flexible_rotation_30_objects_occ0.7_0.9s/images/train/n03928116_10/n04405907_9/img_ydp_103_r_2012__vray_vray_004_2012_gray.jpg,n03928116_10,n04405907_9,flexible,0.775795,n04405907_9,Stimuli/psy_flexible_rotation_30_objects_occ0.7_0.9s/images/train/n03928116_10/n04405907_9/img_ydp_103_r_2012__vray_vray_004_2012-3_gray.png,foreground,same as foreground,n03928116_10,n02933112_4,Stimuli/canonical view 2/img_n03928116_10_gray.jpg,Stimuli/canonical view 2/img_n02933112_4_gray.jpg,random,right,Experiments/experiment_45/212.jpg,Experiments/experiment_45/213.jpg,Experiments/experiment_45/214.jpg,Experiments/experiment_45/215.jpg,610,1,2023-06-28_15h25.59.773,Occlusion_Psychophysics,2022.1.4,MacIntel,60.09615385,,,right,"[""left""]",[1.2789999999999964],False,,0.0,0.0,53.0,53.0,53.0,1.0,,,,,,
,,,,,,,,,,,,,,,,,,,,,0.05,,,,,,,,,,Stimuli/psy_flexible_rotation_30_objects_occ0.7_0.9s/images/train/n02933112_4/n02828884_3/img_buffet_b04_wood_metal_park_bench_2002_gray.jpg,n02933112_4,n02828884_3,flexible,0.836642,n02828884_3,Stimuli/psy_flexible_rotation_30_objects_occ0.7_0.9s/images/train/n02933112_4/n02828884_3/img_buffet_b04_wood_metal_park_bench_2002-3_gray.png,foreground,same as foreground,n02933112_4,n04256520_5,Stimuli/canonical view 2/img_n02933112_4_gray.jpg,Stimuli/canonical view 2/img_n04256520_5_gray.jpg,random,right,Experiments/experiment_45/216.jpg,Experiments/experiment_45/217.jpg,Experiments/experiment_45/218.jpg,Experiments/experiment_45/219.jpg,610,1,2023-06-28_15h25.59.773,Occlusion_Psychophysics,2022.1.4,MacIntel,60.09615385,,,left,"[""left""]",[1.2930000000000064],False,,0.0,0.0,54.0,54.0,54.0,1.0,,,,,,
,,,,,,,,,,,,,,,,,,,,,0.05,,,,,,,,,,Stimuli/psy_fixed_rotation_30_objects_occ0.7_0.9s/images/train/n02883344_0/n02818832_3/img_b03_box_b05_ccm_contemporary_bed_max2013_2004_gray.jpg,n02883344_0,n02818832_3,fixed,0.706111,n02818832_3,Stimuli/psy_fixed_rotation_30_objects_occ0.7_0.9s/images/train/n02883344_0/n02818832_3/img_b03_box_b05_ccm_contemporary_bed_max2013_2004-3_gray.png,foreground,same as foreground,n02883344_0,n02818832_3,Stimuli/canonical view 2/img_n02883344_0_gray.jpg,Stimuli/canonical view 2/img_n02818832_3_gray.jpg,foreground,right,Experiments/experiment_45/220.jpg,Experiments/experiment_45/221.jpg,Experiments/experiment_45/222.jpg,Experiments/experiment_45/223.jpg,610,1,2023-06-28_15h25.59.773,Occlusion_Psychophysics,2022.1.4,MacIntel,60.09615385,,,left,"[""right""]",[0.8599999999999],False,,0.0,0.0,55.0,55.0,55.0,1.0,,,,,,
,,,,,,,,,,,,,,,,,,,,,0.05,,,,,,,,,,Stimuli/psy_fixed_rotation_30_objects_occ0.7_0.9s/images/train/n04379243_-7/n04256520_4/img_quatre_dining_table_club_house_italia_nautilus_sofa_2011_gray.jpg,n04379243_-7,n04256520_4,fixed,0.854167,n02883344_15,Stimuli/psy_flexible_rotation_30_objects_occ0.7_0.9s/images/train/n03001627_8/n02883344_15/img_chair_billiani_doll_microwave_box_2001-3_gray.png,random,flexible,n04379243_-7,n02828884_9,Stimuli/canonical view 2/img_n04379243_-7_gray.jpg,Stimuli/canonical view 2/img_n02828884_9_gray.jpg,random,right,Experiments/experiment_45/224.jpg,Experiments/experiment_45/225.jpg,Experiments/experiment_45/226.jpg,Experiments/experiment_45/227.jpg,610,1,2023-06-28_15h25.59.773,Occlusion_Psychophysics,2022.1.4,MacIntel,60.09615385,,,left,"[""left""]",[0.7950000000000728],False,,0.0,0.0,56.0,56.0,56.0,1.0,,,,,,
,,,,,,,,,,,,,,,,,,,,,0.05,,,,,,,,,,Stimuli/psy_flexible_rotation_30_objects_occ0.7_0.9s/images/train/n03001627_8/n03001627_-2/img_chair_billiani_doll_wood_chair_2008_gray.jpg,n03001627_8,n03001627_-2,flexible,0.70336,n03001627_-2,Stimuli/psy_flexible_rotation_30_objects_occ0.7_0.9s/images/train/n03001627_8/n03001627_-2/img_chair_billiani_doll_wood_chair_2008-3_gray.png,foreground,same as foreground,n03001627_8,n03001627_-2,Stimuli/canonical view 2/img_n03001627_8_gray.jpg,Stimuli/canonical view 2/img_n03001627_-2_gray.jpg,foreground,right,Experiments/experiment_45/228.jpg,Experiments/experiment_45/229.jpg,Experiments/experiment_45/230.jpg,Experiments/experiment_45/231.jpg,610,1,2023-06-28_15h25.59.773,Occlusion_Psychophysics,2022.1.4,MacIntel,60.09615385,,,right,"[""right""]",[1.4260000000000446],False,,0.0,0.0,57.0,57.0,57.0,1.0,,,,,,
,,,,,,,,,,,,,,,,,,,,,0.05,,,,,,,,,,Stimuli/psy_flexible_rotation_30_objects_occ0.7_0.9s/images/train/n04379243_8/n04405907_9/img_glass_table_vray_004_2008_gray.jpg,n04379243_8,n04405907_9,flexible,0.785476,n04256520_5,Stimuli/psy_fixed_rotation_30_objects_occ0.7_0.9s/images/train/n02933112_4/n04256520_5/img_buffet_meridiani_belmondo_bench_sofa_2004-3_gray.png,random,fixed,n04379243_8,n04405907_9,Stimuli/canonical view 2/img_n04379243_8_gray.jpg,Stimuli/canonical view 2/img_n04405907_9_gray.jpg,foreground,right,Experiments/experiment_45/232.jpg,Experiments/experiment_45/233.jpg,Experiments/experiment_45/234.jpg,Experiments/experiment_45/235.jpg,610,1,2023-06-28_15h25.59.773,Occlusion_Psychophysics,2022.1.4,MacIntel,60.09615385,,,left,"[""left""]",[0.5480000000000018],True,left,1.0,0.0,58.0,58.0,58.0,1.0,0.934,,,,,
,,,,,,,,,,,,,,,,,,,,,0.05,,,,,,,,,,Stimuli/psy_flexible_rotation_30_objects_occ0.7_0.9s/images/train/n02933112_-18/n02883344_-1/img_cgaxis_models_48_26_vray_composite_woven_box_2002_gray.jpg,n02933112_-18,n02883344_-1,flexible,0.815873,n02883344_-1,Stimuli/psy_flexible_rotation_30_objects_occ0.7_0.9s/images/train/n02933112_-18/n02883344_-1/img_cgaxis_models_48_26_vray_composite_woven_box_2002-3_gray.png,foreground,same as foreground,n02933112_-18,n03001627_-2,Stimuli/canonical view 2/img_n02933112_-18_gray.jpg,Stimuli/canonical view 2/img_n03001627_-2_gray.jpg,random,left,Experiments/experiment_45/236.jpg,Experiments/experiment_45/237.jpg,Experiments/experiment_45/238.jpg,Experiments/experiment_45/239.jpg,610,1,2023-06-28_15h25.59.773,Occlusion_Psychophysics,2022.1.4,MacIntel,60.09615385,,,right,"[""right""]",[0.7989999999999782],False,,0.0,0.0,59.0,59.0,59.0,1.0,,,,,,
,,,,,,,,,,,,,,,,,,,,,0.05,,,,,,,,,,Stimuli/psy_flexible_rotation_30_objects_occ0.7_0.9s/images/train/n04405907_9/n02933112_-18/img_vray_004_cgaxis_models_48_26_vray_composite_2009_gray.jpg,n04405907_9,n02933112_-18,flexible,0.758337,n02933112_-18,Stimuli/psy_flexible_rotation_30_objects_occ0.7_0.9s/images/train/n04405907_9/n02933112_-18/img_vray_004_cgaxis_models_48_26_vray_composite_2009-3_gray.png,foreground,same as foreground,n04405907_9,n02818832_9,Stimuli/canonical view 2/img_n04405907_9_gray.jpg,Stimuli/canonical view 2/img_n02818832_9_gray.jpg,random,left,Experiments/experiment_45/240.jpg,Experiments/experiment_45/241.jpg,Experiments/experiment_45/242.jpg,Experiments/experiment_45/243.jpg,610,1,2023-06-28_15h25.59.773,Occlusion_Psychophysics,2022.1.4,MacIntel,60.09615385,,,left,"[""left""]",[1.02699999999993],False,,0.0,0.0,60.0,60.0,60.0,1.0,,,,,,
,,,,,,,,,,,,,,,,,,,,,0.025,,,,,,,,,,Stimuli/psy_fixed_rotation_30_objects_occ0.7_0.9s/images/train/n03001627_8/n02818832_0/img_chair_billiani_doll_b03_the_sofa_and_chair_company_-_stanley_bed_2014_2012_gray.jpg,n03001627_8,n02818832_0,fixed,0.749659,n02818832_0,Stimuli/psy_fixed_rotation_30_objects_occ0.7_0.9s/images/train/n03001627_8/n02818832_0/img_chair_billiani_doll_b03_the_sofa_and_chair_company_-_stanley_bed_2014_2012-3_gray.png,foreground,same as foreground,n03001627_8,n02818832_0,Stimuli/canonical view 2/img_n03001627_8_gray.jpg,Stimuli/canonical view 2/img_n02818832_0_gray.jpg,foreground,left,Experiments/experiment_45/244.jpg,Experiments/experiment_45/245.jpg,Experiments/experiment_45/246.jpg,Experiments/experiment_45/247.jpg,610,1,2023-06-28_15h25.59.773,Occlusion_Psychophysics,2022.1.4,MacIntel,60.09615385,,,left,"[""left""]",[0.6800000000000637],False,,0.0,0.0,61.0,61.0,61.0,1.0,,,,,,
,,,,,,,,,,,,,,,,,,,,,0.025,,,,,,,,,,Stimuli/psy_flexible_rotation_30_objects_occ0.7_0.9s/images/train/n04379243_-7/n02818832_0/img_quatre_dining_table_b03_the_sofa_and_chair_company_-_stanley_bed_2014_2001_gray.jpg,n04379243_-7,n02818832_0,flexible,0.707818,n02883344_0,Stimuli/psy_fixed_rotation_30_objects_occ0.7_0.9s/images/train/n02818832_9/n02883344_0/img_bed01_blue_b03_box_2010-3_gray.png,random,fixed,n04379243_-7,n02818832_0,Stimuli/canonical view 2/img_n04379243_-7_gray.jpg,Stimuli/canonical view 2/img_n02818832_0_gray.jpg,foreground,left,Experiments/experiment_45/248.jpg,Experiments/experiment_45/249.jpg,Experiments/experiment_45/250.jpg,Experiments/experiment_45/251.jpg,610,1,2023-06-28_15h25.59.773,Occlusion_Psychophysics,2022.1.4,MacIntel,60.09615385,,,left,"[""left""]",[0.5979999999999563],False,,0.0,0.0,62.0,62.0,62.0,1.0,,,,,,
,,,,,,,,,,,,,,,,,,,,,0.05,,,,,,,,,,Stimuli/psy_fixed_rotation_30_objects_occ0.7_0.9s/images/train/n04256520_5/n04256520_4/img_meridiani_belmondo_bench_sofa_club_house_italia_nautilus_sofa_2003_gray.jpg,n04256520_5,n04256520_4,fixed,0.740407,n04256520_4,Stimuli/psy_fixed_rotation_30_objects_occ0.7_0.9s/images/train/n04256520_5/n04256520_4/img_meridiani_belmondo_bench_sofa_club_house_italia_nautilus_sofa_2003-3_gray.png,foreground,same as foreground,n04256520_5,n02883344_15,Stimuli/canonical view 2/img_n04256520_5_gray.jpg,Stimuli/canonical view 2/img_n02883344_15_gray.jpg,random,right,Experiments/experiment_45/252.jpg,Experiments/experiment_45/253.jpg,Experiments/experiment_45/254.jpg,Experiments/experiment_45/255.jpg,610,1,2023-06-28_15h25.59.773,Occlusion_Psychophysics,2022.1.4,MacIntel,60.09615385,,,right,"[""right""]",[0.8119999999998981],False,,0.0,0.0,63.0,63.0,63.0,1.0,,,,,,
,,,,,,,,,,,,,,,,,,,,,0.025,,,,,,,,,,Stimuli/psy_flexible_rotation_30_objects_occ0.7_0.9s/images/train/n04379243_-7/n02883344_-1/img_quatre_dining_table_woven_box_2012_gray.jpg,n04379243_-7,n02883344_-1,flexible,0.75655,n02883344_-1,Stimuli/psy_flexible_rotation_30_objects_occ0.7_0.9s/images/train/n04379243_-7/n02883344_-1/img_quatre_dining_table_woven_box_2012-3_gray.png,foreground,same as foreground,n04379243_-7,n02933112_-2,Stimuli/canonical view 2/img_n04379243_-7_gray.jpg,Stimuli/canonical view 2/img_n02933112_-2_gray.jpg,random,left,Experiments/experiment_45/256.jpg,Experiments/experiment_45/257.jpg,Experiments/experiment_45/258.jpg,Experiments/experiment_45/259.jpg,610,1,2023-06-28_15h25.59.773,Occlusion_Psychophysics,2022.1.4,MacIntel,60.09615385,,,right,"[""right""]",[0.7949999999999591],False,,0.0,0.0,64.0,64.0,64.0,1.0,,,,,,
,,,,,,,,,,,,,,,,,,,,,0.05,,,,,,,,,,Stimuli/psy_flexible_rotation_30_objects_occ0.7_0.9s/images/train/n04256520_4/n04405907_5/img_club_house_italia_nautilus_sofa_samsung_40_uhd_smart_tv_2011_2006_gray.jpg,n04256520_4,n04405907_5,flexible,0.773352,n04405907_5,Stimuli/psy_flexible_rotation_30_objects_occ0.7_0.9s/images/train/n04256520_4/n04405907_5/img_club_house_italia_nautilus_sofa_samsung_40_uhd_smart_tv_2011_2006-3_gray.png,foreground,same as foreground,n04256520_4,n02828884_4,Stimuli/canonical view 2/img_n04256520_4_gray.jpg,Stimuli/canonical view 2/img_n02828884_4_gray.jpg,random,left,Experiments/experiment_45/260.jpg,Experiments/experiment_45/261.jpg,Experiments/experiment_45/262.jpg,Experiments/experiment_45/263.jpg,610,1,2023-06-28_15h25.59.773,Occlusion_Psychophysics,2022.1.4,MacIntel,60.09615385,,,left,"[""left""]",[1.1269999999999527],False,,0.0,0.0,65.0,65.0,65.0,1.0,,,,,,
,,,,,,,,,,,,,,,,,,,,,0.05,,,,,,,,,,Stimuli/psy_fixed_rotation_30_objects_occ0.7_0.9s/images/train/n02883344_0/n02828884_3/img_b03_box_b04_wood_metal_park_bench_2012_gray.jpg,n02883344_0,n02828884_3,fixed,0.750352,n02828884_3,Stimuli/psy_fixed_rotation_30_objects_occ0.7_0.9s/images/train/n02883344_0/n02828884_3/img_b03_box_b04_wood_metal_park_bench_2012-3_gray.png,foreground,same as foreground,n02883344_0,n02933112_4,Stimuli/canonical view 2/img_n02883344_0_gray.jpg,Stimuli/canonical view 2/img_n02933112_4_gray.jpg,random,left,Experiments/experiment_45/264.jpg,Experiments/experiment_45/265.jpg,Experiments/experiment_45/266.jpg,Experiments/experiment_45/267.jpg,610,1,2023-06-28_15h25.59.773,Occlusion_Psychophysics,2022.1.4,MacIntel,60.09615385,,,left,"[""left""]",[0.5919999999999845],False,,0.0,0.0,66.0,66.0,66.0,1.0,,,,,,
,,,,,,,,,,,,,,,,,,,,,0.025,,,,,,,,,,Stimuli/psy_flexible_rotation_30_objects_occ0.7_0.9s/images/train/n04256520_9/n02828884_3/img_napoleon_iii_sofa_b04_wood_metal_park_bench_2002_gray.jpg,n04256520_9,n02828884_3,flexible,0.703268,n03928116_10,Stimuli/psy_flexible_rotation_30_objects_occ0.7_0.9s/images/train/n04379243_8/n03928116_10/img_glass_table_ydp_103_r_2012__vray_2013-3_gray.png,random,flexible,n04256520_9,n02933112_4,Stimuli/canonical view 2/img_n04256520_9_gray.jpg,Stimuli/canonical view 2/img_n02933112_4_gray.jpg,random,left,Experiments/experiment_45/268.jpg,Experiments/experiment_45/269.jpg,Experiments/experiment_45/270.jpg,Experiments/experiment_45/271.jpg,610,1,2023-06-28_15h25.59.773,Occlusion_Psychophysics,2022.1.4,MacIntel,60.09615385,,,right,"[""right""]",[0.8079999999999927],False,,0.0,0.0,67.0,67.0,67.0,1.0,,,,,,
,,,,,,,,,,,,,,,,,,,,,0.025,,,,,,,,,,Stimuli/psy_fixed_rotation_30_objects_occ0.7_0.9s/images/train/n02818832_3/n04405907_9/img_b05_ccm_contemporary_bed_max2013_vray_004_2014_gray.jpg,n02818832_3,n04405907_9,fixed,0.716776,n02818832_3,Stimuli/psy_flexible_rotation_30_objects_occ0.7_0.9s/images/train/n02933112_-18/n02818832_3/img_cgaxis_models_48_26_vray_composite_b05_ccm_contemporary_bed_max2013_2006-3_gray.png,random,flexible,n02818832_3,n04405907_9,Stimuli/canonical view 2/img_n02818832_3_gray.jpg,Stimuli/canonical view 2/img_n04405907_9_gray.jpg,foreground,left,Experiments/experiment_45/272.jpg,Experiments/experiment_45/273.jpg,Experiments/experiment_45/274.jpg,Experiments/experiment_45/275.jpg,610,1,2023-06-28_15h25.59.773,Occlusion_Psychophysics,2022.1.4,MacIntel,60.09615385,,,right,"[""left""]",[1.5739999999999554],False,,0.0,0.0,68.0,68.0,68.0,1.0,,,,,,
,,,,,,,,,,,,,,,,,,,,,0.025,,,,,,,,,,Stimuli/psy_fixed_rotation_30_objects_occ0.7_0.9s/images/train/n02828884_4/n04379243_8/img_b05_c-5_classic_series_bench-2012_glass_table_2013_gray.jpg,n02828884_4,n04379243_8,fixed,0.861683,n04379243_8,Stimuli/psy_fixed_rotation_30_objects_occ0.7_0.9s/images/train/n02828884_4/n04379243_8/img_b05_c-5_classic_series_bench-2012_glass_table_2013-3_gray.png,foreground,same as foreground,n02828884_4,n03001627_8,Stimuli/canonical view 2/img_n02828884_4_gray.jpg,Stimuli/canonical view 2/img_n03001627_8_gray.jpg,random,left,Experiments/experiment_45/276.jpg,Experiments/experiment_45/277.jpg,Experiments/experiment_45/278.jpg,Experiments/experiment_45/279.jpg,610,1,2023-06-28_15h25.59.773,Occlusion_Psychophysics,2022.1.4,MacIntel,60.09615385,,,left,"[""left""]",[1.0439999999999827],False,,0.0,0.0,69.0,69.0,69.0,1.0,,,,,,
,,,,,,,,,,,,,,,,,,,,,0.05,,,,,,,,,,Stimuli/psy_flexible_rotation_30_objects_occ0.7_0.9s/images/train/n02883344_15/n02883344_-1/img_microwave_box_woven_box_2000_gray.jpg,n02883344_15,n02883344_-1,flexible,0.707906,n02883344_0,Stimuli/psy_fixed_rotation_30_objects_occ0.7_0.9s/images/train/n02883344_-1/n02883344_0/img_woven_box_b03_box_2001-3_gray.png,random,fixed,n02883344_15,n02828884_9,Stimuli/canonical view 2/img_n02883344_15_gray.jpg,Stimuli/canonical view 2/img_n02828884_9_gray.jpg,random,right,Experiments/experiment_45/280.jpg,Experiments/experiment_45/281.jpg,Experiments/experiment_45/282.jpg,Experiments/experiment_45/283.jpg,610,1,2023-06-28_15h25.59.773,Occlusion_Psychophysics,2022.1.4,MacIntel,60.09615385,,,right,"[""right""]",[1.009999999999991],False,,0.0,0.0,70.0,70.0,70.0,1.0,,,,,,
,,,,,,,,,,,,,,,,,,,,,0.025,,,,,,,,,,Stimuli/psy_flexible_rotation_30_objects_occ0.7_0.9s/images/train/n03928116_10/n02883344_0/img_ydp_103_r_2012__vray_b03_box_2008_gray.jpg,n03928116_10,n02883344_0,flexible,0.768039,n04405907_5,Stimuli/psy_fixed_rotation_30_objects_occ0.7_0.9s/images/train/n02883344_-1/n04405907_5/img_woven_box_samsung_40_uhd_smart_tv_2011_2003-3_gray.png,random,fixed,n03928116_10,n02828884_4,Stimuli/canonical view 2/img_n03928116_10_gray.jpg,Stimuli/canonical view 2/img_n02828884_4_gray.jpg,random,left,Experiments/experiment_45/284.jpg,Experiments/experiment_45/285.jpg,Experiments/experiment_45/286.jpg,Experiments/experiment_45/287.jpg,610,1,2023-06-28_15h25.59.773,Occlusion_Psychophysics,2022.1.4,MacIntel,60.09615385,,,left,"[""left""]",[0.8460000000000036],False,,0.0,0.0,71.0,71.0,71.0,1.0,,,,,,
,,,,,,,,,,,,,,,,,,,,,0.025,,,,,,,,,,Stimuli/psy_flexible_rotation_30_objects_occ0.7_0.9s/images/train/n04405907_9/n04256520_9/img_vray_004_napoleon_iii_sofa_2013_gray.jpg,n04405907_9,n04256520_9,flexible,0.766784,n02828884_4,Stimuli/psy_fixed_rotation_30_objects_occ0.7_0.9s/images/train/n04256520_4/n02828884_4/img_club_house_italia_nautilus_sofa_b05_c-5_classic_series_bench-2012_2012-3_gray.png,random,fixed,n04405907_9,n04256520_9,Stimuli/canonical view 2/img_n04405907_9_gray.jpg,Stimuli/canonical view 2/img_n04256520_9_gray.jpg,foreground,right,Experiments/experiment_45/288.jpg,Experiments/experiment_45/289.jpg,Experiments/experiment_45/290.jpg,Experiments/experiment_45/291.jpg,610,1,2023-06-28_15h25.59.773,Occlusion_Psychophysics,2022.1.4,MacIntel,60.09615385,,,left,"[""right""]",[1.3099999999999454],False,,0.0,0.0,72.0,72.0,72.0,1.0,,,,,,
,,,,,,,,,,,,,,,,,,,,,0.025,,,,,,,,,,Stimuli/psy_fixed_rotation_30_objects_occ0.7_0.9s/images/train/n02828884_4/n02818832_3/img_b05_c-5_classic_series_bench-2012_b05_ccm_contemporary_bed_max2013_2008_gray.jpg,n02828884_4,n02818832_3,fixed,0.724384,n02818832_3,Stimuli/psy_fixed_rotation_30_objects_occ0.7_0.9s/images/train/n02828884_4/n02818832_3/img_b05_c-5_classic_series_bench-2012_b05_ccm_contemporary_bed_max2013_2008-3_gray.png,foreground,same as foreground,n02828884_4,n02818832_3,Stimuli/canonical view 2/img_n02828884_4_gray.jpg,Stimuli/canonical view 2/img_n02818832_3_gray.jpg,foreground,right,Experiments/experiment_45/292.jpg,Experiments/experiment_45/293.jpg,Experiments/experiment_45/294.jpg,Experiments/experiment_45/295.jpg,610,1,2023-06-28_15h25.59.773,Occlusion_Psychophysics,2022.1.4,MacIntel,60.09615385,,,right,"[""left""]",[1.5610000000000355],False,,0.0,0.0,73.0,73.0,73.0,1.0,,,,,,
,,,,,,,,,,,,,,,,,,,,,0.025,,,,,,,,,,Stimuli/psy_flexible_rotation_30_objects_occ0.7_0.9s/images/train/n02828884_9/n04256520_4/img_cr-96_bench_club_house_italia_nautilus_sofa_2009_gray.jpg,n02828884_9,n04256520_4,flexible,0.747806,n04256520_4,Stimuli/psy_flexible_rotation_30_objects_occ0.7_0.9s/images/train/n02828884_9/n04256520_4/img_cr-96_bench_club_house_italia_nautilus_sofa_2009-3_gray.png,foreground,same as foreground,n02828884_9,n04256520_4,Stimuli/canonical view 2/img_n02828884_9_gray.jpg,Stimuli/canonical view 2/img_n04256520_4_gray.jpg,foreground,left,Experiments/experiment_45/296.jpg,Experiments/experiment_45/297.jpg,Experiments/experiment_45/298.jpg,Experiments/experiment_45/299.jpg,610,1,2023-06-28_15h25.59.773,Occlusion_Psychophysics,2022.1.4,MacIntel,60.09615385,,,left,"[""left""]",[0.8269999999999982],False,,0.0,0.0,74.0,74.0,74.0,1.0,,,,,,
,,,,,,,,,,,,,,,,,,,,,0.025,,,,,,,,,,Stimuli/psy_fixed_rotation_30_objects_occ0.7_0.9s/images/train/n04379243_0/n04405907_5/img_17th_c._monastery_dining_table_2010_samsung_40_uhd_smart_tv_2011_2006_gray.jpg,n04379243_0,n04405907_5,fixed,0.797786,n04379243_8,Stimuli/psy_flexible_rotation_30_objects_occ0.7_0.9s/images/train/n02818832_0/n04379243_8/img_b03_the_sofa_and_chair_company_-_stanley_bed_2014_glass_table_2002-3_gray.png,random,flexible,n04379243_0,n02883344_15,Stimuli/canonical view 2/img_n04379243_0_gray.jpg,Stimuli/canonical view 2/img_n02883344_15_gray.jpg,random,left,Experiments/experiment_45/300.jpg,Experiments/experiment_45/301.jpg,Experiments/experiment_45/302.jpg,Experiments/experiment_45/303.jpg,610,1,2023-06-28_15h25.59.773,Occlusion_Psychophysics,2022.1.4,MacIntel,60.09615385,,,right,"[""right""]",[0.7579999999999245],False,,0.0,0.0,75.0,75.0,75.0,1.0,,,,,,
,,,,,,,,,,,,,,,,,,,,,0.05,,,,,,,,,,Stimuli/psy_flexible_rotation_30_objects_occ0.7_0.9s/images/train/n02818832_0/n04405907_9/img_b03_the_sofa_and_chair_company_-_stanley_bed_2014_vray_004_2012_gray.jpg,n02818832_0,n04405907_9,flexible,0.717371,n03001627_8,Stimuli/psy_fixed_rotation_30_objects_occ0.7_0.9s/images/train/n02933112_-18/n03001627_8/img_cgaxis_models_48_26_vray_composite_chair_billiani_doll_2003-3_gray.png,random,fixed,n02818832_0,n02818832_9,Stimuli/canonical view 2/img_n02818832_0_gray.jpg,Stimuli/canonical view 2/img_n02818832_9_gray.jpg,random,right,Experiments/experiment_45/304.jpg,Experiments/experiment_45/305.jpg,Experiments/experiment_45/306.jpg,Experiments/experiment_45/307.jpg,610,1,2023-06-28_15h25.59.773,Occlusion_Psychophysics,2022.1.4,MacIntel,60.09615385,,,left,"[""left""]",[1.3590000000000373],False,,0.0,0.0,76.0,76.0,76.0,1.0,,,,,,
,,,,,,,,,,,,,,,,,,,,,0.025,,,,,,,,,,Stimuli/psy_fixed_rotation_30_objects_occ0.7_0.9s/images/train/n02818832_0/n02818832_3/img_b03_the_sofa_and_chair_company_-_stanley_bed_2014_b05_ccm_contemporary_bed_max2013_2000_gray.jpg,n02818832_0,n02818832_3,fixed,0.769566,n03928116_0,Stimuli/psy_flexible_rotation_30_objects_occ0.7_0.9s/images/train/n03001627_-2/n03928116_0/img_wood_chair_b02_piano_2013-3_gray.png,random,flexible,n02818832_0,n04256520_9,Stimuli/canonical view 2/img_n02818832_0_gray.jpg,Stimuli/canonical view 2/img_n04256520_9_gray.jpg,random,right,Experiments/experiment_45/308.jpg,Experiments/experiment_45/309.jpg,Experiments/experiment_45/310.jpg,Experiments/experiment_45/311.jpg,610,1,2023-06-28_15h25.59.773,Occlusion_Psychophysics,2022.1.4,MacIntel,60.09615385,,,left,"[""left""]",[1.1760000000000446],False,,0.0,0.0,77.0,77.0,77.0,1.0,,,,,,
,,,,,,,,,,,,,,,,,,,,,0.05,,,,,,,,,,Stimuli/psy_flexible_rotation_30_objects_occ0.7_0.9s/images/train/n02933112_4/n02883344_15/img_buffet_microwave_box_2008_gray.jpg,n02933112_4,n02883344_15,flexible,0.719864,n03928116_0,Stimuli/psy_fixed_rotation_30_objects_occ0.7_0.9s/images/train/n03001627_-2/n03928116_0/img_wood_chair_b02_piano_2009-3_gray.png,random,fixed,n02933112_4,n02883344_15,Stimuli/canonical view 2/img_n02933112_4_gray.jpg,Stimuli/canonical view 2/img_n02883344_15_gray.jpg,foreground,right,Experiments/experiment_45/312.jpg,Experiments/experiment_45/313.jpg,Experiments/experiment_45/314.jpg,Experiments/experiment_45/315.jpg,610,1,2023-06-28_15h25.59.773,Occlusion_Psychophysics,2022.1.4,MacIntel,60.09615385,,,left,"[""left""]",[0.8199999999999363],True,left,1.0,0.0,78.0,78.0,78.0,1.0,1.152,,,,,
,,,,,,,,,,,,,,,,,,,,,0.05,,,,,,,,,,Stimuli/psy_flexible_rotation_30_objects_occ0.7_0.9s/images/train/n02828884_4/n04379243_8/img_b05_c-5_classic_series_bench-2012_glass_table_2001_gray.jpg,n02828884_4,n04379243_8,flexible,0.710413,n04379243_8,Stimuli/psy_flexible_rotation_30_objects_occ0.7_0.9s/images/train/n02828884_4/n04379243_8/img_b05_c-5_classic_series_bench-2012_glass_table_2001-3_gray.png,foreground,same as foreground,n02828884_4,n04379243_8,Stimuli/canonical view 2/img_n02828884_4_gray.jpg,Stimuli/canonical view 2/img_n04379243_8_gray.jpg,foreground,right,Experiments/experiment_45/316.jpg,Experiments/experiment_45/317.jpg,Experiments/experiment_45/318.jpg,Experiments/experiment_45/319.jpg,610,1,2023-06-28_15h25.59.773,Occlusion_Psychophysics,2022.1.4,MacIntel,60.09615385,,,right,"[""left""]",[1.7380000000000564],False,,0.0,0.0,79.0,79.0,79.0,1.0,,,,,,
,,,,,,,,,,,,,,,,,,,,,0.05,,,,,,,,,,Stimuli/psy_flexible_rotation_30_objects_occ0.7_0.9s/images/train/n02828884_3/n04256520_9/img_b04_wood_metal_park_bench_napoleon_iii_sofa_2004_gray.jpg,n02828884_3,n04256520_9,flexible,0.700497,n04256520_9,Stimuli/psy_flexible_rotation_30_objects_occ0.7_0.9s/images/train/n02828884_3/n04256520_9/img_b04_wood_metal_park_bench_napoleon_iii_sofa_2004-3_gray.png,foreground,same as foreground,n02828884_3,n04256520_5,Stimuli/canonical view 2/img_n02828884_3_gray.jpg,Stimuli/canonical view 2/img_n04256520_5_gray.jpg,random,left,Experiments/experiment_45/320.jpg,Experiments/experiment_45/321.jpg,Experiments/experiment_45/322.jpg,Experiments/experiment_45/323.jpg,610,1,2023-06-28_15h25.59.773,Occlusion_Psychophysics,2022.1.4,MacIntel,60.09615385,,,left,"[""left""]",[1.3780000000000427],False,,0.0,0.0,80.0,80.0,80.0,1.0,,,,,,
,,,,,,,,,,,,,,,,,,,,,0.025,,,,,,,,,,Stimuli/psy_flexible_rotation_30_objects_occ0.7_0.9s/images/train/n02933112_4/n04405907_8/img_buffet_stylized_tv_2006_gray.jpg,n02933112_4,n04405907_8,flexible,0.706643,n02933112_-2,Stimuli/psy_flexible_rotation_30_objects_occ0.7_0.9s/images/train/n02828884_3/n02933112_-2/img_b04_wood_metal_park_bench_sink_base_white_wood_2003-3_gray.png,random,flexible,n02933112_4,n02883344_15,Stimuli/canonical view 2/img_n02933112_4_gray.jpg,Stimuli/canonical view 2/img_n02883344_15_gray.jpg,random,right,Experiments/experiment_45/324.jpg,Experiments/experiment_45/325.jpg,Experiments/experiment_45/326.jpg,Experiments/experiment_45/327.jpg,610,1,2023-06-28_15h25.59.773,Occlusion_Psychophysics,2022.1.4,MacIntel,60.09615385,,,right,"[""right""]",[0.6929999999999836],False,,0.0,0.0,81.0,81.0,81.0,1.0,,,,,,
,,,,,,,,,,,,,,,,,,,,,0.05,,,,,,,,,,Stimuli/psy_fixed_rotation_30_objects_occ0.7_0.9s/images/train/n04379243_-7/n04405907_9/img_quatre_dining_table_vray_004_2000_gray.jpg,n04379243_-7,n04405907_9,fixed,0.781544,n04405907_9,Stimuli/psy_fixed_rotation_30_objects_occ0.7_0.9s/images/train/n04379243_-7/n04405907_9/img_quatre_dining_table_vray_004_2000-3_gray.png,foreground,same as foreground,n04379243_-7,n04256520_5,Stimuli/canonical view 2/img_n04379243_-7_gray.jpg,Stimuli/canonical view 2/img_n04256520_5_gray.jpg,random,left,Experiments/experiment_45/328.jpg,Experiments/experiment_45/329.jpg,Experiments/experiment_45/330.jpg,Experiments/experiment_45/331.jpg,610,1,2023-06-28_15h25.59.773,Occlusion_Psychophysics,2022.1.4,MacIntel,60.09615385,,,left,"[""left""]",[1.009999999999991],False,,0.0,0.0,82.0,82.0,82.0,1.0,,,,,,
,,,,,,,,,,,,,,,,,,,,,0.025,,,,,,,,,,Stimuli/psy_fixed_rotation_30_objects_occ0.7_0.9s/images/train/n03001627_-2/n03001627_8/img_wood_chair_chair_billiani_doll_2011_gray.jpg,n03001627_-2,n03001627_8,fixed,0.778502,n03001627_8,Stimuli/psy_fixed_rotation_30_objects_occ0.7_0.9s/images/train/n03001627_-2/n03001627_8/img_wood_chair_chair_billiani_doll_2011-3_gray.png,foreground,same as foreground,n03001627_-2,n04256520_4,Stimuli/canonical view 2/img_n03001627_-2_gray.jpg,Stimuli/canonical view 2/img_n04256520_4_gray.jpg,random,left,Experiments/experiment_45/332.jpg,Experiments/experiment_45/333.jpg,Experiments/experiment_45/334.jpg,Experiments/experiment_45/335.jpg,610,1,2023-06-28_15h25.59.773,Occlusion_Psychophysics,2022.1.4,MacIntel,60.09615385,,,right,"[""right""]",[0.5749999999999318],False,,0.0,0.0,83.0,83.0,83.0,1.0,,,,,,
,,,,,,,,,,,,,,,,,,,,,0.05,,,,,,,,,,Stimuli/psy_flexible_rotation_30_objects_occ0.7_0.9s/images/train/n03001627_9/n02933112_-18/img_chair_eames_plastic_armchair_cgaxis_models_48_26_vray_composite_2009_gray.jpg,n03001627_9,n02933112_-18,flexible,0.751941,n02828884_3,Stimuli/psy_flexible_rotation_30_objects_occ0.7_0.9s/images/train/n02883344_-1/n02828884_3/img_woven_box_b04_wood_metal_park_bench_2000-3_gray.png,random,flexible,n03001627_9,n02933112_-18,Stimuli/canonical view 2/img_n03001627_9_gray.jpg,Stimuli/canonical view 2/img_n02933112_-18_gray.jpg,foreground,left,Experiments/experiment_45/336.jpg,Experiments/experiment_45/337.jpg,Experiments/experiment_45/338.jpg,Experiments/experiment_45/339.jpg,610,1,2023-06-28_15h25.59.773,Occlusion_Psychophysics,2022.1.4,MacIntel,60.09615385,,,right,"[""right""]",[0.8139999999999645],False,,0.0,0.0,84.0,84.0,84.0,1.0,,,,,,
,,,,,,,,,,,,,,,,,,,,,0.05,,,,,,,,,,Stimuli/psy_fixed_rotation_30_objects_occ0.7_0.9s/images/train/n02818832_3/n03928116_0/img_b05_ccm_contemporary_bed_max2013_b02_piano_2004_gray.jpg,n02818832_3,n03928116_0,fixed,0.746021,n03928116_0,Stimuli/psy_fixed_rotation_30_objects_occ0.7_0.9s/images/train/n02818832_3/n03928116_0/img_b05_ccm_contemporary_bed_max2013_b02_piano_2004-3_gray.png,foreground,same as foreground,n02818832_3,n04405907_9,Stimuli/canonical view 2/img_n02818832_3_gray.jpg,Stimuli/canonical view 2/img_n04405907_9_gray.jpg,random,left,Experiments/experiment_45/340.jpg,Experiments/experiment_45/341.jpg,Experiments/experiment_45/342.jpg,Experiments/experiment_45/343.jpg,610,1,2023-06-28_15h25.59.773,Occlusion_Psychophysics,2022.1.4,MacIntel,60.09615385,,,left,"[""left""]",[1.1259999999999764],False,,0.0,0.0,85.0,85.0,85.0,1.0,,,,,,
,,,,,,,,,,,,,,,,,,,,,0.025,,,,,,,,,,Stimuli/psy_flexible_rotation_30_objects_occ0.7_0.9s/images/train/n04405907_8/n04405907_5/img_stylized_tv_samsung_40_uhd_smart_tv_2011_2014_gray.jpg,n04405907_8,n04405907_5,flexible,0.778008,n04405907_5,Stimuli/psy_flexible_rotation_30_objects_occ0.7_0.9s/images/train/n04405907_8/n04405907_5/img_stylized_tv_samsung_40_uhd_smart_tv_2011_2014-3_gray.png,foreground,same as foreground,n04405907_8,n04405907_5,Stimuli/canonical view 2/img_n04405907_8_gray.jpg,Stimuli/canonical view 2/img_n04405907_5_gray.jpg,foreground,right,Experiments/experiment_45/344.jpg,Experiments/experiment_45/345.jpg,Experiments/experiment_45/346.jpg,Experiments/experiment_45/347.jpg,610,1,2023-06-28_15h25.59.773,Occlusion_Psychophysics,2022.1.4,MacIntel,60.09615385,,,left,"[""left""]",[1.080000000000041],False,,0.0,0.0,86.0,86.0,86.0,1.0,,,,,,
,,,,,,,,,,,,,,,,,,,,,0.05,,,,,,,,,,Stimuli/psy_fixed_rotation_30_objects_occ0.7_0.9s/images/train/n04405907_5/n04379243_0/img_samsung_40_uhd_smart_tv_2011_17th_c._monastery_dining_table_2010_2001_gray.jpg,n04405907_5,n04379243_0,fixed,0.840208,n02933112_-18,Stimuli/psy_fixed_rotation_30_objects_occ0.7_0.9s/images/train/n02883344_0/n02933112_-18/img_b03_box_cgaxis_models_48_26_vray_composite_2005-3_gray.png,random,fixed,n04405907_5,n04379243_0,Stimuli/canonical view 2/img_n04405907_5_gray.jpg,Stimuli/canonical view 2/img_n04379243_0_gray.jpg,foreground,left,Experiments/experiment_45/348.jpg,Experiments/experiment_45/349.jpg,Experiments/experiment_45/350.jpg,Experiments/experiment_45/351.jpg,610,1,2023-06-28_15h25.59.773,Occlusion_Psychophysics,2022.1.4,MacIntel,60.09615385,,,right,"[""right""]",[0.9470000000000027],False,,0.0,0.0,87.0,87.0,87.0,1.0,,,,,,
,,,,,,,,,,,,,,,,,,,,,0.05,,,,,,,,,,Stimuli/psy_flexible_rotation_30_objects_occ0.7_0.9s/images/train/n02828884_3/n02818832_0/img_b04_wood_metal_park_bench_b03_the_sofa_and_chair_company_-_stanley_bed_2014_2007_gray.jpg,n02828884_3,n02818832_0,flexible,0.777514,n02933112_4,Stimuli/psy_fixed_rotation_30_objects_occ0.7_0.9s/images/train/n03928116_10/n02933112_4/img_ydp_103_r_2012__vray_buffet_2005-3_gray.png,random,fixed,n02828884_3,n02818832_0,Stimuli/canonical view 2/img_n02828884_3_gray.jpg,Stimuli/canonical view 2/img_n02818832_0_gray.jpg,foreground,right,Experiments/experiment_45/352.jpg,Experiments/experiment_45/353.jpg,Experiments/experiment_45/354.jpg,Experiments/experiment_45/355.jpg,610,1,2023-06-28_15h25.59.773,Occlusion_Psychophysics,2022.1.4,MacIntel,60.09615385,,,right,"[""right""]",[0.9620000000001028],False,,0.0,0.0,88.0,88.0,88.0,1.0,,,,,,
,,,,,,,,,,,,,,,,,,,,,0.025,,,,,,,,,,Stimuli/psy_fixed_rotation_30_objects_occ0.7_0.9s/images/train/n03928116_10/n04405907_9/img_ydp_103_r_2012__vray_vray_004_2008_gray.jpg,n03928116_10,n04405907_9,fixed,0.733137,n04405907_9,Stimuli/psy_fixed_rotation_30_objects_occ0.7_0.9s/images/train/n03928116_10/n04405907_9/img_ydp_103_r_2012__vray_vray_004_2008-3_gray.png,foreground,same as foreground,n03928116_10,n04405907_9,Stimuli/canonical view 2/img_n03928116_10_gray.jpg,Stimuli/canonical view 2/img_n04405907_9_gray.jpg,foreground,left,Experiments/experiment_45/356.jpg,Experiments/experiment_45/357.jpg,Experiments/experiment_45/358.jpg,Experiments/experiment_45/359.jpg,610,1,2023-06-28_15h25.59.773,Occlusion_Psychophysics,2022.1.4,MacIntel,60.09615385,,,left,"[""left""]",[0.9290000000000873],False,,0.0,0.0,89.0,89.0,89.0,1.0,,,,,,
,,,,,,,,,,,,,,,,,,,,,0.05,,,,,,,,,,Stimuli/psy_flexible_rotation_30_objects_occ0.7_0.9s/images/train/n03928116_0/n03001627_9/img_b02_piano_chair_eames_plastic_armchair_2002_gray.jpg,n03928116_0,n03001627_9,flexible,0.743432,n02828884_3,Stimuli/psy_fixed_rotation_30_objects_occ0.7_0.9s/images/train/n02933112_4/n02828884_3/img_buffet_b04_wood_metal_park_bench_2001-3_gray.png,random,fixed,n03928116_0,n04405907_5,Stimuli/canonical view 2/img_n03928116_0_gray.jpg,Stimuli/canonical view 2/img_n04405907_5_gray.jpg,random,right,Experiments/experiment_45/360.jpg,Experiments/experiment_45/361.jpg,Experiments/experiment_45/362.jpg,Experiments/experiment_45/363.jpg,610,1,2023-06-28_15h25.59.773,Occlusion_Psychophysics,2022.1.4,MacIntel,60.09615385,,,left,"[""left""]",[0.678000000000111],False,,0.0,0.0,90.0,90.0,90.0,1.0,,,,,,
,,,,,,,,,,,,,,,,,,,,,0.05,,,,,,,,,,Stimuli/psy_flexible_rotation_30_objects_occ0.7_0.9s/images/train/n03928116_4/n04379243_-7/img_dp_33_b_2013__vray_quatre_dining_table_2001_gray.jpg,n03928116_4,n04379243_-7,flexible,0.706101,n04379243_-7,Stimuli/psy_flexible_rotation_30_objects_occ0.7_0.9s/images/train/n03928116_4/n04379243_-7/img_dp_33_b_2013__vray_quatre_dining_table_2001-3_gray.png,foreground,same as foreground,n03928116_4,n04379243_-7,Stimuli/canonical view 2/img_n03928116_4_gray.jpg,Stimuli/canonical view 2/img_n04379243_-7_gray.jpg,foreground,left,Experiments/experiment_45/364.jpg,Experiments/experiment_45/365.jpg,Experiments/experiment_45/366.jpg,Experiments/experiment_45/367.jpg,610,1,2023-06-28_15h25.59.773,Occlusion_Psychophysics,2022.1.4,MacIntel,60.09615385,,,right,"[""right""]",[0.7270000000000891],False,,0.0,0.0,91.0,91.0,91.0,1.0,,,,,,
,,,,,,,,,,,,,,,,,,,,,0.05,,,,,,,,,,Stimuli/psy_flexible_rotation_30_objects_occ0.7_0.9s/images/train/n02883344_-1/n02883344_0/img_woven_box_b03_box_2014_gray.jpg,n02883344_-1,n02883344_0,flexible,0.700555,n04379243_-7,Stimuli/psy_flexible_rotation_30_objects_occ0.7_0.9s/images/train/n02828884_3/n04379243_-7/img_b04_wood_metal_park_bench_quatre_dining_table_2008-3_gray.png,random,flexible,n02883344_-1,n02883344_0,Stimuli/canonical view 2/img_n02883344_-1_gray.jpg,Stimuli/canonical view 2/img_n02883344_0_gray.jpg,foreground,left,Experiments/experiment_45/368.jpg,Experiments/experiment_45/369.jpg,Experiments/experiment_45/370.jpg,Experiments/experiment_45/371.jpg,610,1,2023-06-28_15h25.59.773,Occlusion_Psychophysics,2022.1.4,MacIntel,60.09615385,,,left,"[""left""]",[0.6150000000000091],False,,0.0,0.0,92.0,92.0,92.0,1.0,,,,,,
,,,,,,,,,,,,,,,,,,,,,0.025,,,,,,,,,,Stimuli/psy_flexible_rotation_30_objects_occ0.7_0.9s/images/train/n02933112_-18/n04379243_-7/img_cgaxis_models_48_26_vray_composite_quatre_dining_table_2004_gray.jpg,n02933112_-18,n04379243_-7,flexible,0.741126,n04379243_-7,Stimuli/psy_flexible_rotation_30_objects_occ0.7_0.9s/images/train/n02933112_-18/n04379243_-7/img_cgaxis_models_48_26_vray_composite_quatre_dining_table_2004-3_gray.png,foreground,same as foreground,n02933112_-18,n03928116_10,Stimuli/canonical view 2/img_n02933112_-18_gray.jpg,Stimuli/canonical view 2/img_n03928116_10_gray.jpg,random,right,Experiments/experiment_45/372.jpg,Experiments/experiment_45/373.jpg,Experiments/experiment_45/374.jpg,Experiments/experiment_45/375.jpg,610,1,2023-06-28_15h25.59.773,Occlusion_Psychophysics,2022.1.4,MacIntel,60.09615385,,,left,"[""left""]",[1.0739999999999554],False,,0.0,0.0,93.0,93.0,93.0,1.0,,,,,,
,,,,,,,,,,,,,,,,,,,,,0.05,,,,,,,,,,Stimuli/psy_flexible_rotation_30_objects_occ0.7_0.9s/images/train/n04256520_9/n04379243_-7/img_napoleon_iii_sofa_quatre_dining_table_2012_gray.jpg,n04256520_9,n04379243_-7,flexible,0.720383,n04379243_-7,Stimuli/psy_flexible_rotation_30_objects_occ0.7_0.9s/images/train/n04256520_9/n04379243_-7/img_napoleon_iii_sofa_quatre_dining_table_2012-3_gray.png,foreground,same as foreground,n04256520_9,n04379243_-7,Stimuli/canonical view 2/img_n04256520_9_gray.jpg,Stimuli/canonical view 2/img_n04379243_-7_gray.jpg,foreground,left,Experiments/experiment_45/376.jpg,Experiments/experiment_45/377.jpg,Experiments/experiment_45/378.jpg,Experiments/experiment_45/379.jpg,610,1,2023-06-28_15h25.59.773,Occlusion_Psychophysics,2022.1.4,MacIntel,60.09615385,,,left,"[""left""]",[1.0120000000000573],False,,0.0,0.0,94.0,94.0,94.0,1.0,,,,,,
,,,,,,,,,,,,,,,,,,,,,0.025,,,,,,,,,,Stimuli/psy_fixed_rotation_30_objects_occ0.7_0.9s/images/train/n04256520_4/n04379243_0/img_club_house_italia_nautilus_sofa_17th_c._monastery_dining_table_2010_2005_gray.jpg,n04256520_4,n04379243_0,fixed,0.894464,n04379243_0,Stimuli/psy_fixed_rotation_30_objects_occ0.7_0.9s/images/train/n04256520_4/n04379243_0/img_club_house_italia_nautilus_sofa_17th_c._monastery_dining_table_2010_2005-3_gray.png,foreground,same as foreground,n04256520_4,n04379243_0,Stimuli/canonical view 2/img_n04256520_4_gray.jpg,Stimuli/canonical view 2/img_n04379243_0_gray.jpg,foreground,left,Experiments/experiment_45/380.jpg,Experiments/experiment_45/381.jpg,Experiments/experiment_45/382.jpg,Experiments/experiment_45/383.jpg,610,1,2023-06-28_15h25.59.773,Occlusion_Psychophysics,2022.1.4,MacIntel,60.09615385,,,left,"[""right""]",[1.1769999999999072],False,,0.0,0.0,95.0,95.0,95.0,1.0,,,,,,
,,,,,,,,,,,,,,,,,,,,,0.025,,,,,,,,,,Stimuli/psy_fixed_rotation_30_objects_occ0.7_0.9s/images/train/n04379243_-7/n04405907_5/img_quatre_dining_table_samsung_40_uhd_smart_tv_2011_2005_gray.jpg,n04379243_-7,n04405907_5,fixed,0.706343,n02933112_-18,Stimuli/psy_fixed_rotation_30_objects_occ0.7_0.9s/images/train/n03001627_9/n02933112_-18/img_chair_eames_plastic_armchair_cgaxis_models_48_26_vray_composite_2011-3_gray.png,random,fixed,n04379243_-7,n04379243_8,Stimuli/canonical view 2/img_n04379243_-7_gray.jpg,Stimuli/canonical view 2/img_n04379243_8_gray.jpg,random,right,Experiments/experiment_45/384.jpg,Experiments/experiment_45/385.jpg,Experiments/experiment_45/386.jpg,Experiments/experiment_45/387.jpg,610,1,2023-06-28_15h25.59.773,Occlusion_Psychophysics,2022.1.4,MacIntel,60.09615385,,,right,"[""left""]",[0.7390000000000327],False,,0.0,0.0,96.0,96.0,96.0,1.0,,,,,,
,,,,,,,,,,,,,,,,,,,,,0.025,,,,,,,,,,Stimuli/psy_fixed_rotation_30_objects_occ0.7_0.9s/images/train/n03928116_10/n02828884_3/img_ydp_103_r_2012__vray_b04_wood_metal_park_bench_2001_gray.jpg,n03928116_10,n02828884_3,fixed,0.784956,n03928116_10,Stimuli/psy_fixed_rotation_30_objects_occ0.7_0.9s/images/train/n02828884_3/n03928116_10/img_b04_wood_metal_park_bench_ydp_103_r_2012__vray_2001-3_gray.png,random,fixed,n03928116_10,n04256520_4,Stimuli/canonical view 2/img_n03928116_10_gray.jpg,Stimuli/canonical view 2/img_n04256520_4_gray.jpg,random,right,Experiments/experiment_45/388.jpg,Experiments/experiment_45/389.jpg,Experiments/experiment_45/390.jpg,Experiments/experiment_45/391.jpg,610,1,2023-06-28_15h25.59.773,Occlusion_Psychophysics,2022.1.4,MacIntel,60.09615385,,,left,"[""right""]",[1.5059999999999718],False,,0.0,0.0,97.0,97.0,97.0,1.0,,,,,,
,,,,,,,,,,,,,,,,,,,,,0.05,,,,,,,,,,Stimuli/psy_flexible_rotation_30_objects_occ0.7_0.9s/images/train/n04379243_8/n02883344_15/img_glass_table_microwave_box_2003_gray.jpg,n04379243_8,n02883344_15,flexible,0.763937,n02883344_15,Stimuli/psy_flexible_rotation_30_objects_occ0.7_0.9s/images/train/n04379243_8/n02883344_15/img_glass_table_microwave_box_2003-3_gray.png,foreground,same as foreground,n04379243_8,n02933112_-18,Stimuli/canonical view 2/img_n04379243_8_gray.jpg,Stimuli/canonical view 2/img_n02933112_-18_gray.jpg,random,right,Experiments/experiment_45/392.jpg,Experiments/experiment_45/393.jpg,Experiments/experiment_45/394.jpg,Experiments/experiment_45/395.jpg,610,1,2023-06-28_15h25.59.773,Occlusion_Psychophysics,2022.1.4,MacIntel,60.09615385,,,left,"[""left""]",[0.7450000000000045],False,,0.0,0.0,98.0,98.0,98.0,1.0,,,,,,
,,,,,,,,,,,,,,,,,,,,,0.025,,,,,,,,,,Stimuli/psy_fixed_rotation_30_objects_occ0.7_0.9s/images/train/n02828884_4/n04379243_8/img_b05_c-5_classic_series_bench-2012_glass_table_2010_gray.jpg,n02828884_4,n04379243_8,fixed,0.829902,n02818832_3,Stimuli/psy_flexible_rotation_30_objects_occ0.7_0.9s/images/train/n04405907_8/n02818832_3/img_stylized_tv_b05_ccm_contemporary_bed_max2013_2001-3_gray.png,random,flexible,n02828884_4,n04379243_8,Stimuli/canonical view 2/img_n02828884_4_gray.jpg,Stimuli/canonical view 2/img_n04379243_8_gray.jpg,foreground,left,Experiments/experiment_45/396.jpg,Experiments/experiment_45/397.jpg,Experiments/experiment_45/398.jpg,Experiments/experiment_45/399.jpg,610,1,2023-06-28_15h25.59.773,Occlusion_Psychophysics,2022.1.4,MacIntel,60.09615385,,,left,"[""right""]",[0.9950000000000045],False,,0.0,0.0,99.0,99.0,99.0,1.0,,,,,,
,,,,,,,,,,,,,,,,,,,,,,,,,,,,,,,,,,,,,,,,,,,,,,,,,,610,1,2023-06-28_15h25.59.773,Occlusion_Psychophysics,2022.1.4,MacIntel,60.09615385,,,,,,,,,,,,,,,0.0,0.0,0.0,0.0,1.0
,,,,,,,,,,,,,,,,,,,,,0.025,,,,,,,,,,Stimuli/psy_fixed_rotation_30_objects_occ0.7_0.9s/images/train/n03001627_-2/n02818832_9/img_wood_chair_bed01_blue_2000_gray.jpg,n03001627_-2,n02818832_9,fixed,0.743867,n02818832_9,Stimuli/psy_fixed_rotation_30_objects_occ0.7_0.9s/images/train/n03001627_-2/n02818832_9/img_wood_chair_bed01_blue_2000-3_gray.png,foreground,same as foreground,n03001627_-2,n02828884_3,Stimuli/canonical view 2/img_n03001627_-2_gray.jpg,Stimuli/canonical view 2/img_n02828884_3_gray.jpg,random,right,Experiments/experiment_45/400.jpg,Experiments/experiment_45/401.jpg,Experiments/experiment_45/402.jpg,Experiments/experiment_45/403.jpg,610,1,2023-06-28_15h25.59.773,Occlusion_Psychophysics,2022.1.4,MacIntel,60.09615385,,,left,"[""right""]",[0.7939999999999827],False,,0.0,0.0,0.0,0.0,0.0,1.0,,,,,,
,,,,,,,,,,,,,,,,,,,,,0.025,,,,,,,,,,Stimuli/psy_fixed_rotation_30_objects_occ0.7_0.9s/images/train/n04256520_5/n04379243_-7/img_meridiani_belmondo_bench_sofa_quatre_dining_table_2006_gray.jpg,n04256520_5,n04379243_-7,fixed,0.736679,n04379243_-7,Stimuli/psy_fixed_rotation_30_objects_occ0.7_0.9s/images/train/n04256520_5/n04379243_-7/img_meridiani_belmondo_bench_sofa_quatre_dining_table_2006-3_gray.png,foreground,same as foreground,n04256520_5,n03001627_8,Stimuli/canonical view 2/img_n04256520_5_gray.jpg,Stimuli/canonical view 2/img_n03001627_8_gray.jpg,random,left,Experiments/experiment_45/404.jpg,Experiments/experiment_45/405.jpg,Experiments/experiment_45/406.jpg,Experiments/experiment_45/407.jpg,610,1,2023-06-28_15h25.59.773,Occlusion_Psychophysics,2022.1.4,MacIntel,60.09615385,,,left,"[""left""]",[0.9270000000000209],False,,0.0,0.0,1.0,1.0,1.0,1.0,,,,,,
,,,,,,,,,,,,,,,,,,,,,0.025,,,,,,,,,,Stimuli/psy_fixed_rotation_30_objects_occ0.7_0.9s/images/train/n02818832_0/n04379243_-7/img_b03_the_sofa_and_chair_company_-_stanley_bed_2014_quatre_dining_table_2009_gray.jpg,n02818832_0,n04379243_-7,fixed,0.747705,n02818832_3,Stimuli/psy_flexible_rotation_30_objects_occ0.7_0.9s/images/train/n02828884_3/n02818832_3/img_b04_wood_metal_park_bench_b05_ccm_contemporary_bed_max2013_2007-3_gray.png,random,flexible,n02818832_0,n04379243_-7,Stimuli/canonical view 2/img_n02818832_0_gray.jpg,Stimuli/canonical view 2/img_n04379243_-7_gray.jpg,foreground,right,Experiments/experiment_45/408.jpg,Experiments/experiment_45/409.jpg,Experiments/experiment_45/410.jpg,Experiments/experiment_45/411.jpg,610,1,2023-06-28_15h25.59.773,Occlusion_Psychophysics,2022.1.4,MacIntel,60.09615385,,,right,"[""right""]",[1.2229999999999563],False,,0.0,0.0,2.0,2.0,2.0,1.0,,,,,,
,,,,,,,,,,,,,,,,,,,,,0.05,,,,,,,,,,Stimuli/psy_fixed_rotation_30_objects_occ0.7_0.9s/images/train/n02933112_-18/n02933112_-2/img_cgaxis_models_48_26_vray_composite_sink_base_white_wood_2009_gray.jpg,n02933112_-18,n02933112_-2,fixed,0.882361,n02818832_3,Stimuli/psy_flexible_rotation_30_objects_occ0.7_0.9s/images/train/n02818832_0/n02818832_3/img_b03_the_sofa_and_chair_company_-_stanley_bed_2014_b05_ccm_contemporary_bed_max2013_2014-3_gray.png,random,flexible,n02933112_-18,n02933112_-2,Stimuli/canonical view 2/img_n02933112_-18_gray.jpg,Stimuli/canonical view 2/img_n02933112_-2_gray.jpg,foreground,right,Experiments/experiment_45/412.jpg,Experiments/experiment_45/413.jpg,Experiments/experiment_45/414.jpg,Experiments/experiment_45/415.jpg,610,1,2023-06-28_15h25.59.773,Occlusion_Psychophysics,2022.1.4,MacIntel,60.09615385,,,left,"[""left""]",[1.52800000000002],False,,0.0,0.0,3.0,3.0,3.0,1.0,,,,,,
,,,,,,,,,,,,,,,,,,,,,0.025,,,,,,,,,,Stimuli/psy_fixed_rotation_30_objects_occ0.7_0.9s/images/train/n02933112_4/n04379243_0/img_buffet_17th_c._monastery_dining_table_2010_2006_gray.jpg,n02933112_4,n04379243_0,fixed,0.70611,n04379243_0,Stimuli/psy_fixed_rotation_30_objects_occ0.7_0.9s/images/train/n02933112_4/n04379243_0/img_buffet_17th_c._monastery_dining_table_2010_2006-3_gray.png,foreground,same as foreground,n02933112_4,n02818832_0,Stimuli/canonical view 2/img_n02933112_4_gray.jpg,Stimuli/canonical view 2/img_n02818832_0_gray.jpg,random,left,Experiments/experiment_45/416.jpg,Experiments/experiment_45/417.jpg,Experiments/experiment_45/418.jpg,Experiments/experiment_45/419.jpg,610,1,2023-06-28_15h25.59.773,Occlusion_Psychophysics,2022.1.4,MacIntel,60.09615385,,,right,"[""right""]",[0.7599999999999909],False,,0.0,0.0,4.0,4.0,4.0,1.0,,,,,,
,,,,,,,,,,,,,,,,,,,,,0.05,,,,,,,,,,Stimuli/psy_fixed_rotation_30_objects_occ0.7_0.9s/images/train/n04256520_4/n03928116_0/img_club_house_italia_nautilus_sofa_b02_piano_2010_gray.jpg,n04256520_4,n03928116_0,fixed,0.776351,n03928116_4,Stimuli/psy_flexible_rotation_30_objects_occ0.7_0.9s/images/train/n02818832_3/n03928116_4/img_b05_ccm_contemporary_bed_max2013_dp_33_b_2013__vray_2014-3_gray.png,random,flexible,n04256520_4,n03928116_10,Stimuli/canonical view 2/img_n04256520_4_gray.jpg,Stimuli/canonical view 2/img_n03928116_10_gray.jpg,random,left,Experiments/experiment_45/420.jpg,Experiments/experiment_45/421.jpg,Experiments/experiment_45/422.jpg,Experiments/experiment_45/423.jpg,610,1,2023-06-28_15h25.59.773,Occlusion_Psychophysics,2022.1.4,MacIntel,60.09615385,,,left,"[""left""]",[1.044999999999959],False,,0.0,0.0,5.0,5.0,5.0,1.0,,,,,,
,,,,,,,,,,,,,,,,,,,,,0.025,,,,,,,,,,Stimuli/psy_flexible_rotation_30_objects_occ0.7_0.9s/images/train/n02933112_-2/n02883344_0/img_sink_base_white_wood_b03_box_2008_gray.jpg,n02933112_-2,n02883344_0,flexible,0.813302,n04405907_9,Stimuli/psy_flexible_rotation_30_objects_occ0.7_0.9s/images/train/n02828884_3/n04405907_9/img_b04_wood_metal_park_bench_vray_004_2000-3_gray.png,random,flexible,n02933112_-2,n02883344_0,Stimuli/canonical view 2/img_n02933112_-2_gray.jpg,Stimuli/canonical view 2/img_n02883344_0_gray.jpg,foreground,left,Experiments/experiment_45/424.jpg,Experiments/experiment_45/425.jpg,Experiments/experiment_45/426.jpg,Experiments/experiment_45/427.jpg,610,1,2023-06-28_15h25.59.773,Occlusion_Psychophysics,2022.1.4,MacIntel,60.09615385,,,right,"[""right""]",[1.2590000000000146],False,,0.0,0.0,6.0,6.0,6.0,1.0,,,,,,
,,,,,,,,,,,,,,,,,,,,,0.025,,,,,,,,,,Stimuli/psy_flexible_rotation_30_objects_occ0.7_0.9s/images/train/n02828884_4/n03928116_0/img_b05_c-5_classic_series_bench-2012_b02_piano_2004_gray.jpg,n02828884_4,n03928116_0,flexible,0.828361,n03928116_0,Stimuli/psy_flexible_rotation_30_objects_occ0.7_0.9s/images/train/n02828884_4/n03928116_0/img_b05_c-5_classic_series_bench-2012_b02_piano_2004-3_gray.png,foreground,same as foreground,n02828884_4,n02818832_3,Stimuli/canonical view 2/img_n02828884_4_gray.jpg,Stimuli/canonical view 2/img_n02818832_3_gray.jpg,random,right,Experiments/experiment_45/428.jpg,Experiments/experiment_45/429.jpg,Experiments/experiment_45/430.jpg,Experiments/experiment_45/431.jpg,610,1,2023-06-28_15h25.59.773,Occlusion_Psychophysics,2022.1.4,MacIntel,60.09615385,,,right,"[""right""]",[0.9780000000000655],False,,0.0,0.0,7.0,7.0,7.0,1.0,,,,,,
,,,,,,,,,,,,,,,,,,,,,0.025,,,,,,,,,,Stimuli/psy_flexible_rotation_30_objects_occ0.7_0.9s/images/train/n02818832_3/n02933112_4/img_b05_ccm_contemporary_bed_max2013_buffet_2014_gray.jpg,n02818832_3,n02933112_4,flexible,0.722693,n02933112_4,Stimuli/psy_flexible_rotation_30_objects_occ0.7_0.9s/images/train/n02818832_3/n02933112_4/img_b05_ccm_contemporary_bed_max2013_buffet_2014-3_gray.png,foreground,same as foreground,n02818832_3,n02933112_4,Stimuli/canonical view 2/img_n02818832_3_gray.jpg,Stimuli/canonical view 2/img_n02933112_4_gray.jpg,foreground,right,Experiments/experiment_45/432.jpg,Experiments/experiment_45/433.jpg,Experiments/experiment_45/434.jpg,Experiments/experiment_45/435.jpg,610,1,2023-06-28_15h25.59.773,Occlusion_Psychophysics,2022.1.4,MacIntel,60.09615385,,,right,"[""right""]",[0.8109999999999218],False,,0.0,0.0,8.0,8.0,8.0,1.0,,,,,,
,,,,,,,,,,,,,,,,,,,,,0.05,,,,,,,,,,Stimuli/psy_fixed_rotation_30_objects_occ0.7_0.9s/images/train/n03001627_8/n04405907_8/img_chair_billiani_doll_stylized_tv_2001_gray.jpg,n03001627_8,n04405907_8,fixed,0.731586,n04405907_8,Stimuli/psy_fixed_rotation_30_objects_occ0.7_0.9s/images/train/n03001627_8/n04405907_8/img_chair_billiani_doll_stylized_tv_2001-3_gray.png,foreground,same as foreground,n03001627_8,n04405907_8,Stimuli/canonical view 2/img_n03001627_8_gray.jpg,Stimuli/canonical view 2/img_n04405907_8_gray.jpg,foreground,right,Experiments/experiment_45/436.jpg,Experiments/experiment_45/437.jpg,Experiments/experiment_45/438.jpg,Experiments/experiment_45/439.jpg,610,1,2023-06-28_15h25.59.773,Occlusion_Psychophysics,2022.1.4,MacIntel,60.09615385,,,right,"[""right""]",[0.7440000000000282],False,,0.0,0.0,9.0,9.0,9.0,1.0,,,,,,
,,,,,,,,,,,,,,,,,,,,,0.05,,,,,,,,,,Stimuli/psy_fixed_rotation_30_objects_occ0.7_0.9s/images/train/n03001627_8/n04405907_8/img_chair_billiani_doll_stylized_tv_2012_gray.jpg,n03001627_8,n04405907_8,fixed,0.78147,n04405907_8,Stimuli/psy_fixed_rotation_30_objects_occ0.7_0.9s/images/train/n03001627_8/n04405907_8/img_chair_billiani_doll_stylized_tv_2012-3_gray.png,foreground,same as foreground,n03001627_8,n04405907_8,Stimuli/canonical view 2/img_n03001627_8_gray.jpg,Stimuli/canonical view 2/img_n04405907_8_gray.jpg,foreground,right,Experiments/experiment_45/440.jpg,Experiments/experiment_45/441.jpg,Experiments/experiment_45/442.jpg,Experiments/experiment_45/443.jpg,610,1,2023-06-28_15h25.59.773,Occlusion_Psychophysics,2022.1.4,MacIntel,60.09615385,,,right,"[""right""]",[0.7129999999999654],False,,0.0,0.0,10.0,10.0,10.0,1.0,,,,,,
,,,,,,,,,,,,,,,,,,,,,0.025,,,,,,,,,,Stimuli/psy_fixed_rotation_30_objects_occ0.7_0.9s/images/train/n02883344_15/n04379243_0/img_microwave_box_17th_c._monastery_dining_table_2010_2012_gray.jpg,n02883344_15,n04379243_0,fixed,0.710445,n04379243_0,Stimuli/psy_fixed_rotation_30_objects_occ0.7_0.9s/images/train/n02883344_15/n04379243_0/img_microwave_box_17th_c._monastery_dining_table_2010_2012-3_gray.png,foreground,same as foreground,n02883344_15,n04405907_5,Stimuli/canonical view 2/img_n02883344_15_gray.jpg,Stimuli/canonical view 2/img_n04405907_5_gray.jpg,random,right,Experiments/experiment_45/444.jpg,Experiments/experiment_45/445.jpg,Experiments/experiment_45/446.jpg,Experiments/experiment_45/447.jpg,610,1,2023-06-28_15h25.59.773,Occlusion_Psychophysics,2022.1.4,MacIntel,60.09615385,,,left,"[""left""]",[1.4779999999999518],False,,0.0,0.0,11.0,11.0,11.0,1.0,,,,,,
