in_color,Instructions_key.keys,Instructions_key.rt,Tutorial_instruction_key.keys,Tutorial_instruction_key.rt,Tutorial_fixation_ley.keys,Tutorial_fixation_ley.rt,Tutorial_single_img_key.keys,Tutorial_single_img_key.rt,Tutorial_intra_trial_fixation_key.keys,Tutorial_intra_trial_fixation_key.rt,Tutorial_stimulus_key.keys,Tutorial_stimulus_key.rt,Tutorial_response_key.keys,Tutorial_response_key.rt,Tutorial_attention_check_key.keys,Tutorial_attention_check_key.rt,advance_or_repeat.keys,advance_or_repeat.rt,Practice_instructions_key.keys,Practice_instructions_key.rt,intra_trial_duration,Practice_key_response.keys,Practice_key_response.rt,Practice_react_key.keys,Practice_react_key.rt,Practice_loop.thisRepN,Practice_loop.thisTrialN,Practice_loop.thisN,Practice_loop.thisIndex,Practice_loop.ran,multi_object_filepath,background_id,foreground_id,multi_object_rotation,occlusion_level,single_object_id,single_object_filepath,single_is_foreground_or_random,single_object_rotation,background_choice_id,alt_choice_id,background_option_filepath,alternative_option_filepath,alternative_is_foreground_or_random,location_of_correct_answer,multi_object_exp_filename,single_object_exp_filename,background_option_exp_filename,alternative_option_exp_filename,participant,session,date,expName,psychopyVersion,OS,frameRate,Practice_end_key.keys,Practice_end_key.rt,correct_answer,Input_selection.keys,Input_selection.rt,Was_attention_check,Attention_check.keys,Attention_check.corr,Each_session_loop.thisRepN,Each_session_loop.thisTrialN,Each_session_loop.thisN,Each_session_loop.thisIndex,Each_session_loop.ran,Attention_check.rt,Num_sessions.thisRepN,Num_sessions.thisTrialN,Num_sessions.thisN,Num_sessions.thisIndex,Num_sessions.ran
False,h,22.3926,h,3.4543,h,2.391,h,2.9921,h,1.8064,h,8.044,h,9.3548,h,1.7887,a,5.099,n,5.0196,0.05,right,4.7496,r,6.1087,0.0,0.0,0.0,0.0,1.0,Stimuli/psy_flexible_rotation_30_objects_occ0.7_0.9s/images/train/n04256520_5/n02818832_9/img_meridiani_belmondo_bench_sofa_bed01_blue_2009_gray.jpg,n04256520_5,n02818832_9,flexible,0.865923,n02818832_0,Stimuli/psy_fixed_rotation_30_objects_occ0.7_0.9s/images/train/n04070727_5/n02818832_0/img_b05_db_apps_tech_06_13_composite_b03_the_sofa_and_chair_company_-_stanley_bed_2014_2015-3_gray.png,random,fixed,n04256520_5,n02818832_9,Stimuli/canonical view 2/img_n04256520_5_gray.jpg,Stimuli/canonical view 2/img_n02818832_9_gray.jpg,foreground,left,Experiments/experiment_37/1000.jpg,Experiments/experiment_37/1001.jpg,Experiments/experiment_37/1002.jpg,Experiments/experiment_37/1003.jpg,612,1,2023-04-03_17h21.57.068,Occlusion_Psychophysics,2022.1.4,Linux x86_64,60.0348202,,,,,,,,,,,,,,,,,,,
,,,,,,,,,,,,,,,,,,,,,0.05,left,2.7796,r,2.9687,0.0,1.0,1.0,1.0,1.0,Stimuli/psy_fixed_rotation_30_objects_occ0.7_0.9s/images/train/n02828884_3/n04405907_9/img_b04_wood_metal_park_bench_vray_004_2010_gray.jpg,n02828884_3,n04405907_9,fixed,0.70461,n03928116_4,Stimuli/psy_fixed_rotation_30_objects_occ0.7_0.9s/images/train/n03928116_10/n03928116_4/img_ydp_103_r_2012__vray_dp_33_b_2013__vray_2005-3_gray.png,random,fixed,n02828884_3,n04405907_9,Stimuli/canonical view 2/img_n02828884_3_gray.jpg,Stimuli/canonical view 2/img_n04405907_9_gray.jpg,foreground,right,Experiments/experiment_37/1004.jpg,Experiments/experiment_37/1005.jpg,Experiments/experiment_37/1006.jpg,Experiments/experiment_37/1007.jpg,612,1,2023-04-03_17h21.57.068,Occlusion_Psychophysics,2022.1.4,Linux x86_64,60.0348202,,,,,,,,,,,,,,,,,,,
,,,,,,,,,,,,,,,,,,,,,0.05,left,2.2826,r,2.7125,0.0,2.0,2.0,2.0,1.0,Stimuli/psy_fixed_rotation_30_objects_occ0.7_0.9s/images/train/n02933112_-2/n02818832_0/img_sink_base_white_wood_b03_the_sofa_and_chair_company_-_stanley_bed_2014_2011_gray.jpg,n02933112_-2,n02818832_0,fixed,0.805191,n02818832_0,Stimuli/psy_fixed_rotation_30_objects_occ0.7_0.9s/images/train/n02933112_-2/n02818832_0/img_sink_base_white_wood_b03_the_sofa_and_chair_company_-_stanley_bed_2014_2011-3_gray.png,foreground,same as foreground,n02933112_-2,n03001627_9,Stimuli/canonical view 2/img_n02933112_-2_gray.jpg,Stimuli/canonical view 2/img_n03001627_9_gray.jpg,random,left,Experiments/experiment_37/1008.jpg,Experiments/experiment_37/1009.jpg,Experiments/experiment_37/1010.jpg,Experiments/experiment_37/1011.jpg,612,1,2023-04-03_17h21.57.068,Occlusion_Psychophysics,2022.1.4,Linux x86_64,60.0348202,,,,,,,,,,,,,,,,,,,
,,,,,,,,,,,,,,,,,,,,,0.05,left,2.2431,a,3.4343,0.0,3.0,3.0,3.0,1.0,Stimuli/psy_fixed_rotation_30_objects_occ0.7_0.9s/images/train/n04379243_0/n04256520_5/img_17th_c._monastery_dining_table_2010_meridiani_belmondo_bench_sofa_2010_gray.jpg,n04379243_0,n04256520_5,fixed,0.745141,n04256520_5,Stimuli/psy_fixed_rotation_30_objects_occ0.7_0.9s/images/train/n04379243_0/n04256520_5/img_17th_c._monastery_dining_table_2010_meridiani_belmondo_bench_sofa_2010-3_gray.png,foreground,same as foreground,n04379243_0,n02818832_3,Stimuli/canonical view 2/img_n04379243_0_gray.jpg,Stimuli/canonical view 2/img_n02818832_3_gray.jpg,random,right,Experiments/experiment_37/1012.jpg,Experiments/experiment_37/1013.jpg,Experiments/experiment_37/1014.jpg,Experiments/experiment_37/1015.jpg,612,1,2023-04-03_17h21.57.068,Occlusion_Psychophysics,2022.1.4,Linux x86_64,60.0348202,,,,,,,,,,,,,,,,,,,
,,,,,,,,,,,,,,,,,,,,,0.05,,,,,,,,,,Stimuli/psy_flexible_rotation_30_objects_occ0.7_0.9s/images/train/n02828884_4/n04379243_8/img_b05_c-5_classic_series_bench-2012_glass_table_2010_gray.jpg,n02828884_4,n04379243_8,flexible,0.755283,n04379243_8,Stimuli/psy_flexible_rotation_30_objects_occ0.7_0.9s/images/train/n02828884_4/n04379243_8/img_b05_c-5_classic_series_bench-2012_glass_table_2010-3_gray.png,foreground,same as foreground,n02828884_4,n03928116_10,Stimuli/canonical view 2/img_n02828884_4_gray.jpg,Stimuli/canonical view 2/img_n03928116_10_gray.jpg,random,left,Experiments/experiment_37/0.jpg,Experiments/experiment_37/1.jpg,Experiments/experiment_37/2.jpg,Experiments/experiment_37/3.jpg,612,1,2023-04-03_17h21.57.068,Occlusion_Psychophysics,2022.1.4,Linux x86_64,60.0348202,g,5.4302,left,"[""left""]",[2.3134999999999764],False,,0.0,0.0,0.0,0.0,0.0,1.0,,,,,,
,,,,,,,,,,,,,,,,,,,,,0.025,,,,,,,,,,Stimuli/psy_fixed_rotation_30_objects_occ0.7_0.9s/images/train/n03001627_9/n03928116_0/img_chair_eames_plastic_armchair_b02_piano_2004_gray.jpg,n03001627_9,n03928116_0,fixed,0.784478,n04256520_5,Stimuli/psy_flexible_rotation_30_objects_occ0.7_0.9s/images/train/n02933112_4/n04256520_5/img_buffet_meridiani_belmondo_bench_sofa_2003-3_gray.png,random,flexible,n03001627_9,n03928116_0,Stimuli/canonical view 2/img_n03001627_9_gray.jpg,Stimuli/canonical view 2/img_n03928116_0_gray.jpg,foreground,left,Experiments/experiment_37/4.jpg,Experiments/experiment_37/5.jpg,Experiments/experiment_37/6.jpg,Experiments/experiment_37/7.jpg,612,1,2023-04-03_17h21.57.068,Occlusion_Psychophysics,2022.1.4,Linux x86_64,60.0348202,,,right,"[""right""]",[2.1539999999999964],False,,0.0,0.0,1.0,1.0,1.0,1.0,,,,,,
,,,,,,,,,,,,,,,,,,,,,0.025,,,,,,,,,,Stimuli/psy_fixed_rotation_30_objects_occ0.7_0.9s/images/train/n02883344_0/n04256520_4/img_b03_box_club_house_italia_nautilus_sofa_2006_gray.jpg,n02883344_0,n04256520_4,fixed,0.846694,n04405907_8,Stimuli/psy_flexible_rotation_30_objects_occ0.7_0.9s/images/train/n04379243_0/n04405907_8/img_17th_c._monastery_dining_table_2010_stylized_tv_2009-3_gray.png,random,flexible,n02883344_0,n04256520_4,Stimuli/canonical view 2/img_n02883344_0_gray.jpg,Stimuli/canonical view 2/img_n04256520_4_gray.jpg,foreground,right,Experiments/experiment_37/8.jpg,Experiments/experiment_37/9.jpg,Experiments/experiment_37/10.jpg,Experiments/experiment_37/11.jpg,612,1,2023-04-03_17h21.57.068,Occlusion_Psychophysics,2022.1.4,Linux x86_64,60.0348202,,,right,"[""right""]",[2.2060000000000173],False,,0.0,0.0,2.0,2.0,2.0,1.0,,,,,,
,,,,,,,,,,,,,,,,,,,,,0.05,,,,,,,,,,Stimuli/psy_fixed_rotation_30_objects_occ0.7_0.9s/images/train/n02818832_9/n02933112_-2/img_bed01_blue_sink_base_white_wood_2005_gray.jpg,n02818832_9,n02933112_-2,fixed,0.715352,n03928116_0,Stimuli/psy_flexible_rotation_30_objects_occ0.7_0.9s/images/train/n04070727_0/n03928116_0/img_b03_ka90ivi20r_2013__vray_b02_piano_2014-3_gray.png,random,flexible,n02818832_9,n02933112_-2,Stimuli/canonical view 2/img_n02818832_9_gray.jpg,Stimuli/canonical view 2/img_n02933112_-2_gray.jpg,foreground,right,Experiments/experiment_37/12.jpg,Experiments/experiment_37/13.jpg,Experiments/experiment_37/14.jpg,Experiments/experiment_37/15.jpg,612,1,2023-04-03_17h21.57.068,Occlusion_Psychophysics,2022.1.4,Linux x86_64,60.0348202,,,right,"[""right""]",[1.8552999999998292],False,,0.0,0.0,3.0,3.0,3.0,1.0,,,,,,
,,,,,,,,,,,,,,,,,,,,,0.05,,,,,,,,,,Stimuli/psy_flexible_rotation_30_objects_occ0.7_0.9s/images/train/n03001627_8/n02883344_-1/img_chair_billiani_doll_woven_box_2007_gray.jpg,n03001627_8,n02883344_-1,flexible,0.758966,n02883344_-1,Stimuli/psy_flexible_rotation_30_objects_occ0.7_0.9s/images/train/n03001627_8/n02883344_-1/img_chair_billiani_doll_woven_box_2007-3_gray.png,foreground,same as foreground,n03001627_8,n02883344_-1,Stimuli/canonical view 2/img_n03001627_8_gray.jpg,Stimuli/canonical view 2/img_n02883344_-1_gray.jpg,foreground,left,Experiments/experiment_37/16.jpg,Experiments/experiment_37/17.jpg,Experiments/experiment_37/18.jpg,Experiments/experiment_37/19.jpg,612,1,2023-04-03_17h21.57.068,Occlusion_Psychophysics,2022.1.4,Linux x86_64,60.0348202,,,right,"[""right""]",[1.010200000000168],False,,0.0,0.0,4.0,4.0,4.0,1.0,,,,,,
,,,,,,,,,,,,,,,,,,,,,0.05,,,,,,,,,,Stimuli/psy_flexible_rotation_30_objects_occ0.7_0.9s/images/train/n04256520_4/n03928116_10/img_club_house_italia_nautilus_sofa_ydp_103_r_2012__vray_2005_gray.jpg,n04256520_4,n03928116_10,flexible,0.81985,n04256520_4,Stimuli/psy_flexible_rotation_30_objects_occ0.7_0.9s/images/train/n02883344_0/n04256520_4/img_b03_box_club_house_italia_nautilus_sofa_2008-3_gray.png,random,flexible,n04256520_4,n04405907_9,Stimuli/canonical view 2/img_n04256520_4_gray.jpg,Stimuli/canonical view 2/img_n04405907_9_gray.jpg,random,right,Experiments/experiment_37/20.jpg,Experiments/experiment_37/21.jpg,Experiments/experiment_37/22.jpg,Experiments/experiment_37/23.jpg,612,1,2023-04-03_17h21.57.068,Occlusion_Psychophysics,2022.1.4,Linux x86_64,60.0348202,,,right,"[""right""]",[1.2912999999998647],False,,0.0,0.0,5.0,5.0,5.0,1.0,,,,,,
,,,,,,,,,,,,,,,,,,,,,0.05,,,,,,,,,,Stimuli/psy_fixed_rotation_30_objects_occ0.7_0.9s/images/train/n02883344_0/n04405907_9/img_b03_box_vray_004_2006_gray.jpg,n02883344_0,n04405907_9,fixed,0.706874,n03001627_8,Stimuli/psy_flexible_rotation_30_objects_occ0.7_0.9s/images/train/n02933112_-18/n03001627_8/img_cgaxis_models_48_26_vray_composite_chair_billiani_doll_2004-3_gray.png,random,flexible,n02883344_0,n02933112_-18,Stimuli/canonical view 2/img_n02883344_0_gray.jpg,Stimuli/canonical view 2/img_n02933112_-18_gray.jpg,random,right,Experiments/experiment_37/24.jpg,Experiments/experiment_37/25.jpg,Experiments/experiment_37/26.jpg,Experiments/experiment_37/27.jpg,612,1,2023-04-03_17h21.57.068,Occlusion_Psychophysics,2022.1.4,Linux x86_64,60.0348202,,,left,"[""right""]",[2.5539999999999736],False,,0.0,0.0,6.0,6.0,6.0,1.0,,,,,,
,,,,,,,,,,,,,,,,,,,,,0.05,,,,,,,,,,Stimuli/psy_fixed_rotation_30_objects_occ0.7_0.9s/images/train/n03928116_0/n02828884_3/img_b02_piano_b04_wood_metal_park_bench_2004_gray.jpg,n03928116_0,n02828884_3,fixed,0.844977,n02828884_3,Stimuli/psy_fixed_rotation_30_objects_occ0.7_0.9s/images/train/n03928116_0/n02828884_3/img_b02_piano_b04_wood_metal_park_bench_2004-3_gray.png,foreground,same as foreground,n03928116_0,n02828884_3,Stimuli/canonical view 2/img_n03928116_0_gray.jpg,Stimuli/canonical view 2/img_n02828884_3_gray.jpg,foreground,right,Experiments/experiment_37/28.jpg,Experiments/experiment_37/29.jpg,Experiments/experiment_37/30.jpg,Experiments/experiment_37/31.jpg,612,1,2023-04-03_17h21.57.068,Occlusion_Psychophysics,2022.1.4,Linux x86_64,60.0348202,,,left,"[""right""]",[1.3766999999992322],False,,0.0,0.0,7.0,7.0,7.0,1.0,,,,,,
,,,,,,,,,,,,,,,,,,,,,0.025,,,,,,,,,,Stimuli/psy_flexible_rotation_30_objects_occ0.7_0.9s/images/train/n02818832_0/n04379243_8/img_b03_the_sofa_and_chair_company_-_stanley_bed_2014_glass_table_2015_gray.jpg,n02818832_0,n04379243_8,flexible,0.701215,n04379243_-7,Stimuli/psy_flexible_rotation_30_objects_occ0.7_0.9s/images/train/n04070727_3/n04379243_-7/img_b05_db_apps_tech_06_02_2_composite_quatre_dining_table_2006-3_gray.png,random,flexible,n02818832_0,n04405907_5,Stimuli/canonical view 2/img_n02818832_0_gray.jpg,Stimuli/canonical view 2/img_n04405907_5_gray.jpg,random,right,Experiments/experiment_37/32.jpg,Experiments/experiment_37/33.jpg,Experiments/experiment_37/34.jpg,Experiments/experiment_37/35.jpg,612,1,2023-04-03_17h21.57.068,Occlusion_Psychophysics,2022.1.4,Linux x86_64,60.0348202,,,right,"[""right""]",[1.2567999999998847],False,,0.0,0.0,8.0,8.0,8.0,1.0,,,,,,
,,,,,,,,,,,,,,,,,,,,,0.025,,,,,,,,,,Stimuli/psy_flexible_rotation_30_objects_occ0.7_0.9s/images/train/n02883344_-1/n02883344_15/img_woven_box_microwave_box_2008_gray.jpg,n02883344_-1,n02883344_15,flexible,0.863773,n04405907_8,Stimuli/psy_flexible_rotation_30_objects_occ0.7_0.9s/images/train/n02818832_3/n04405907_8/img_b05_ccm_contemporary_bed_max2013_stylized_tv_2003-3_gray.png,random,flexible,n02883344_-1,n04405907_5,Stimuli/canonical view 2/img_n02883344_-1_gray.jpg,Stimuli/canonical view 2/img_n04405907_5_gray.jpg,random,right,Experiments/experiment_37/36.jpg,Experiments/experiment_37/37.jpg,Experiments/experiment_37/38.jpg,Experiments/experiment_37/39.jpg,612,1,2023-04-03_17h21.57.068,Occlusion_Psychophysics,2022.1.4,Linux x86_64,60.0348202,,,right,"[""right""]",[1.4080000000000155],False,,0.0,0.0,9.0,9.0,9.0,1.0,,,,,,
,,,,,,,,,,,,,,,,,,,,,0.025,,,,,,,,,,Stimuli/psy_fixed_rotation_30_objects_occ0.7_0.9s/images/train/n02818832_3/n02828884_3/img_b05_ccm_contemporary_bed_max2013_b04_wood_metal_park_bench_2001_gray.jpg,n02818832_3,n02828884_3,fixed,0.771128,n02828884_3,Stimuli/psy_fixed_rotation_30_objects_occ0.7_0.9s/images/train/n02818832_3/n02828884_3/img_b05_ccm_contemporary_bed_max2013_b04_wood_metal_park_bench_2001-3_gray.png,foreground,same as foreground,n02818832_3,n02828884_3,Stimuli/canonical view 2/img_n02818832_3_gray.jpg,Stimuli/canonical view 2/img_n02828884_3_gray.jpg,foreground,right,Experiments/experiment_37/40.jpg,Experiments/experiment_37/41.jpg,Experiments/experiment_37/42.jpg,Experiments/experiment_37/43.jpg,612,1,2023-04-03_17h21.57.068,Occlusion_Psychophysics,2022.1.4,Linux x86_64,60.0348202,,,left,"[""left""]",[1.558900000000449],False,,0.0,0.0,10.0,10.0,10.0,1.0,,,,,,
,,,,,,,,,,,,,,,,,,,,,0.05,,,,,,,,,,Stimuli/psy_fixed_rotation_30_objects_occ0.7_0.9s/images/train/n02828884_3/n02818832_3/img_b04_wood_metal_park_bench_b05_ccm_contemporary_bed_max2013_2011_gray.jpg,n02828884_3,n02818832_3,fixed,0.721808,n02818832_3,Stimuli/psy_fixed_rotation_30_objects_occ0.7_0.9s/images/train/n02828884_3/n02818832_3/img_b04_wood_metal_park_bench_b05_ccm_contemporary_bed_max2013_2011-3_gray.png,foreground,same as foreground,n02828884_3,n02818832_3,Stimuli/canonical view 2/img_n02828884_3_gray.jpg,Stimuli/canonical view 2/img_n02818832_3_gray.jpg,foreground,left,Experiments/experiment_37/44.jpg,Experiments/experiment_37/45.jpg,Experiments/experiment_37/46.jpg,Experiments/experiment_37/47.jpg,612,1,2023-04-03_17h21.57.068,Occlusion_Psychophysics,2022.1.4,Linux x86_64,60.0348202,,,right,"[""right""]",[1.1735999999996238],False,,0.0,0.0,11.0,11.0,11.0,1.0,,,,,,
,,,,,,,,,,,,,,,,,,,,,0.025,,,,,,,,,,Stimuli/psy_flexible_rotation_30_objects_occ0.7_0.9s/images/train/n03001627_-2/n02818832_9/img_wood_chair_bed01_blue_2003_gray.jpg,n03001627_-2,n02818832_9,flexible,0.777259,n02883344_15,Stimuli/psy_fixed_rotation_30_objects_occ0.7_0.9s/images/train/n04379243_-7/n02883344_15/img_quatre_dining_table_microwave_box_2008-3_gray.png,random,fixed,n03001627_-2,n02883344_-1,Stimuli/canonical view 2/img_n03001627_-2_gray.jpg,Stimuli/canonical view 2/img_n02883344_-1_gray.jpg,random,right,Experiments/experiment_37/48.jpg,Experiments/experiment_37/49.jpg,Experiments/experiment_37/50.jpg,Experiments/experiment_37/51.jpg,612,1,2023-04-03_17h21.57.068,Occlusion_Psychophysics,2022.1.4,Linux x86_64,60.0348202,,,right,"[""left""]",[2.139799999999809],False,,0.0,0.0,12.0,12.0,12.0,1.0,,,,,,
,,,,,,,,,,,,,,,,,,,,,0.025,,,,,,,,,,Stimuli/psy_flexible_rotation_30_objects_occ0.7_0.9s/images/train/n04379243_0/n02883344_-1/img_17th_c._monastery_dining_table_2010_woven_box_2008_gray.jpg,n04379243_0,n02883344_-1,flexible,0.811389,n04379243_-7,Stimuli/psy_flexible_rotation_30_objects_occ0.7_0.9s/images/train/n03928116_10/n04379243_-7/img_ydp_103_r_2012__vray_quatre_dining_table_2004-3_gray.png,random,flexible,n04379243_0,n04405907_5,Stimuli/canonical view 2/img_n04379243_0_gray.jpg,Stimuli/canonical view 2/img_n04405907_5_gray.jpg,random,left,Experiments/experiment_37/52.jpg,Experiments/experiment_37/53.jpg,Experiments/experiment_37/54.jpg,Experiments/experiment_37/55.jpg,612,1,2023-04-03_17h21.57.068,Occlusion_Psychophysics,2022.1.4,Linux x86_64,60.0348202,,,right,"[""right""]",[0.937200000000189],False,,0.0,0.0,13.0,13.0,13.0,1.0,,,,,,
,,,,,,,,,,,,,,,,,,,,,0.05,,,,,,,,,,Stimuli/psy_flexible_rotation_30_objects_occ0.7_0.9s/images/train/n04379243_0/n02933112_-18/img_17th_c._monastery_dining_table_2010_cgaxis_models_48_26_vray_composite_2005_gray.jpg,n04379243_0,n02933112_-18,flexible,0.70797,n02933112_4,Stimuli/psy_flexible_rotation_30_objects_occ0.7_0.9s/images/train/n02933112_-18/n02933112_4/img_cgaxis_models_48_26_vray_composite_buffet_2009-3_gray.png,random,flexible,n04379243_0,n02933112_-18,Stimuli/canonical view 2/img_n04379243_0_gray.jpg,Stimuli/canonical view 2/img_n02933112_-18_gray.jpg,foreground,left,Experiments/experiment_37/56.jpg,Experiments/experiment_37/57.jpg,Experiments/experiment_37/58.jpg,Experiments/experiment_37/59.jpg,612,1,2023-04-03_17h21.57.068,Occlusion_Psychophysics,2022.1.4,Linux x86_64,60.0348202,,,left,"[""left""]",[0.824099999999703],False,,0.0,0.0,14.0,14.0,14.0,1.0,,,,,,
,,,,,,,,,,,,,,,,,,,,,0.025,,,,,,,,,,Stimuli/psy_fixed_rotation_30_objects_occ0.7_0.9s/images/train/n04256520_9/n02828884_3/img_napoleon_iii_sofa_b04_wood_metal_park_bench_2007_gray.jpg,n04256520_9,n02828884_3,fixed,0.762096,n04379243_0,Stimuli/psy_fixed_rotation_30_objects_occ0.7_0.9s/images/train/n02818832_9/n04379243_0/img_bed01_blue_17th_c._monastery_dining_table_2010_2004-3_gray.png,random,fixed,n04256520_9,n02828884_9,Stimuli/canonical view 2/img_n04256520_9_gray.jpg,Stimuli/canonical view 2/img_n02828884_9_gray.jpg,random,right,Experiments/experiment_37/60.jpg,Experiments/experiment_37/61.jpg,Experiments/experiment_37/62.jpg,Experiments/experiment_37/63.jpg,612,1,2023-04-03_17h21.57.068,Occlusion_Psychophysics,2022.1.4,Linux x86_64,60.0348202,,,right,"[""right""]",[1.4125000000000227],False,,0.0,0.0,15.0,15.0,15.0,1.0,,,,,,
,,,,,,,,,,,,,,,,,,,,,0.05,,,,,,,,,,Stimuli/psy_fixed_rotation_30_objects_occ0.7_0.9s/images/train/n04256520_5/n02818832_0/img_meridiani_belmondo_bench_sofa_b03_the_sofa_and_chair_company_-_stanley_bed_2014_2011_gray.jpg,n04256520_5,n02818832_0,fixed,0.750678,n02818832_0,Stimuli/psy_fixed_rotation_30_objects_occ0.7_0.9s/images/train/n04256520_5/n02818832_0/img_meridiani_belmondo_bench_sofa_b03_the_sofa_and_chair_company_-_stanley_bed_2014_2011-3_gray.png,foreground,same as foreground,n04256520_5,n04405907_9,Stimuli/canonical view 2/img_n04256520_5_gray.jpg,Stimuli/canonical view 2/img_n04405907_9_gray.jpg,random,left,Experiments/experiment_37/64.jpg,Experiments/experiment_37/65.jpg,Experiments/experiment_37/66.jpg,Experiments/experiment_37/67.jpg,612,1,2023-04-03_17h21.57.068,Occlusion_Psychophysics,2022.1.4,Linux x86_64,60.0348202,,,right,"[""right""]",[1.0572999999998274],False,,0.0,0.0,16.0,16.0,16.0,1.0,,,,,,
,,,,,,,,,,,,,,,,,,,,,0.05,,,,,,,,,,Stimuli/psy_fixed_rotation_30_objects_occ0.7_0.9s/images/train/n04405907_9/n02883344_0/img_vray_004_b03_box_2003_gray.jpg,n04405907_9,n02883344_0,fixed,0.845041,n02883344_0,Stimuli/psy_fixed_rotation_30_objects_occ0.7_0.9s/images/train/n04405907_9/n02883344_0/img_vray_004_b03_box_2003-3_gray.png,foreground,same as foreground,n04405907_9,n04256520_4,Stimuli/canonical view 2/img_n04405907_9_gray.jpg,Stimuli/canonical view 2/img_n04256520_4_gray.jpg,random,right,Experiments/experiment_37/68.jpg,Experiments/experiment_37/69.jpg,Experiments/experiment_37/70.jpg,Experiments/experiment_37/71.jpg,612,1,2023-04-03_17h21.57.068,Occlusion_Psychophysics,2022.1.4,Linux x86_64,60.0348202,,,right,"[""left""]",[1.35770000000025],False,,0.0,0.0,17.0,17.0,17.0,1.0,,,,,,
,,,,,,,,,,,,,,,,,,,,,0.05,,,,,,,,,,Stimuli/psy_fixed_rotation_30_objects_occ0.7_0.9s/images/train/n02818832_9/n02883344_-1/img_bed01_blue_woven_box_2013_gray.jpg,n02818832_9,n02883344_-1,fixed,0.764976,n02883344_-1,Stimuli/psy_fixed_rotation_30_objects_occ0.7_0.9s/images/train/n02818832_9/n02883344_-1/img_bed01_blue_woven_box_2013-3_gray.png,foreground,same as foreground,n02818832_9,n02883344_-1,Stimuli/canonical view 2/img_n02818832_9_gray.jpg,Stimuli/canonical view 2/img_n02883344_-1_gray.jpg,foreground,right,Experiments/experiment_37/72.jpg,Experiments/experiment_37/73.jpg,Experiments/experiment_37/74.jpg,Experiments/experiment_37/75.jpg,612,1,2023-04-03_17h21.57.068,Occlusion_Psychophysics,2022.1.4,Linux x86_64,60.0348202,,,left,"[""left""]",[1.2934000000004744],False,,0.0,0.0,18.0,18.0,18.0,1.0,,,,,,
,,,,,,,,,,,,,,,,,,,,,0.025,,,,,,,,,,Stimuli/psy_flexible_rotation_30_objects_occ0.7_0.9s/images/train/n02818832_3/n04405907_9/img_b05_ccm_contemporary_bed_max2013_vray_004_2013_gray.jpg,n02818832_3,n04405907_9,flexible,0.826495,n04405907_9,Stimuli/psy_flexible_rotation_30_objects_occ0.7_0.9s/images/train/n02818832_3/n04405907_9/img_b05_ccm_contemporary_bed_max2013_vray_004_2013-3_gray.png,foreground,same as foreground,n02818832_3,n03928116_0,Stimuli/canonical view 2/img_n02818832_3_gray.jpg,Stimuli/canonical view 2/img_n03928116_0_gray.jpg,random,right,Experiments/experiment_37/76.jpg,Experiments/experiment_37/77.jpg,Experiments/experiment_37/78.jpg,Experiments/experiment_37/79.jpg,612,1,2023-04-03_17h21.57.068,Occlusion_Psychophysics,2022.1.4,Linux x86_64,60.0348202,,,right,"[""right""]",[0.9025000000000318],False,,0.0,0.0,19.0,19.0,19.0,1.0,,,,,,
,,,,,,,,,,,,,,,,,,,,,0.025,,,,,,,,,,Stimuli/psy_fixed_rotation_30_objects_occ0.7_0.9s/images/train/n02828884_3/n02933112_-2/img_b04_wood_metal_park_bench_sink_base_white_wood_2012_gray.jpg,n02828884_3,n02933112_-2,fixed,0.741868,n02933112_-2,Stimuli/psy_fixed_rotation_30_objects_occ0.7_0.9s/images/train/n02828884_3/n02933112_-2/img_b04_wood_metal_park_bench_sink_base_white_wood_2012-3_gray.png,foreground,same as foreground,n02828884_3,n04405907_5,Stimuli/canonical view 2/img_n02828884_3_gray.jpg,Stimuli/canonical view 2/img_n04405907_5_gray.jpg,random,left,Experiments/experiment_37/80.jpg,Experiments/experiment_37/81.jpg,Experiments/experiment_37/82.jpg,Experiments/experiment_37/83.jpg,612,1,2023-04-03_17h21.57.068,Occlusion_Psychophysics,2022.1.4,Linux x86_64,60.0348202,,,right,"[""right""]",[0.9247000000002572],False,,0.0,0.0,20.0,20.0,20.0,1.0,,,,,,
,,,,,,,,,,,,,,,,,,,,,0.05,,,,,,,,,,Stimuli/psy_fixed_rotation_30_objects_occ0.7_0.9s/images/train/n02818832_0/n04405907_8/img_b03_the_sofa_and_chair_company_-_stanley_bed_2014_stylized_tv_2008_gray.jpg,n02818832_0,n04405907_8,fixed,0.822645,n03928116_10,Stimuli/psy_flexible_rotation_30_objects_occ0.7_0.9s/images/train/n04405907_8/n03928116_10/img_stylized_tv_ydp_103_r_2012__vray_2007-3_gray.png,random,flexible,n02818832_0,n04405907_8,Stimuli/canonical view 2/img_n02818832_0_gray.jpg,Stimuli/canonical view 2/img_n04405907_8_gray.jpg,foreground,right,Experiments/experiment_37/84.jpg,Experiments/experiment_37/85.jpg,Experiments/experiment_37/86.jpg,Experiments/experiment_37/87.jpg,612,1,2023-04-03_17h21.57.068,Occlusion_Psychophysics,2022.1.4,Linux x86_64,60.0348202,,,left,"[""right""]",[1.2022000000001754],False,,0.0,0.0,21.0,21.0,21.0,1.0,,,,,,
,,,,,,,,,,,,,,,,,,,,,0.025,,,,,,,,,,Stimuli/psy_flexible_rotation_30_objects_occ0.7_0.9s/images/train/n04379243_8/n04256520_5/img_glass_table_meridiani_belmondo_bench_sofa_2000_gray.jpg,n04379243_8,n04256520_5,flexible,0.751882,n02883344_15,Stimuli/psy_flexible_rotation_30_objects_occ0.7_0.9s/images/train/n03001627_9/n02883344_15/img_chair_eames_plastic_armchair_microwave_box_2005-3_gray.png,random,flexible,n04379243_8,n02828884_9,Stimuli/canonical view 2/img_n04379243_8_gray.jpg,Stimuli/canonical view 2/img_n02828884_9_gray.jpg,random,left,Experiments/experiment_37/88.jpg,Experiments/experiment_37/89.jpg,Experiments/experiment_37/90.jpg,Experiments/experiment_37/91.jpg,612,1,2023-04-03_17h21.57.068,Occlusion_Psychophysics,2022.1.4,Linux x86_64,60.0348202,,,right,"[""right""]",[0.9230000000000018],False,,0.0,0.0,22.0,22.0,22.0,1.0,,,,,,
,,,,,,,,,,,,,,,,,,,,,0.025,,,,,,,,,,Stimuli/psy_fixed_rotation_30_objects_occ0.7_0.9s/images/train/n03928116_0/n04405907_5/img_b02_piano_samsung_40_uhd_smart_tv_2011_2002_gray.jpg,n03928116_0,n04405907_5,fixed,0.702189,n02828884_3,Stimuli/psy_flexible_rotation_30_objects_occ0.7_0.9s/images/train/n02818832_9/n02828884_3/img_bed01_blue_b04_wood_metal_park_bench_2007-3_gray.png,random,flexible,n03928116_0,n02883344_-1,Stimuli/canonical view 2/img_n03928116_0_gray.jpg,Stimuli/canonical view 2/img_n02883344_-1_gray.jpg,random,right,Experiments/experiment_37/92.jpg,Experiments/experiment_37/93.jpg,Experiments/experiment_37/94.jpg,Experiments/experiment_37/95.jpg,612,1,2023-04-03_17h21.57.068,Occlusion_Psychophysics,2022.1.4,Linux x86_64,60.0348202,,,left,"[""right""]",[1.691000000000031],False,,0.0,0.0,23.0,23.0,23.0,1.0,,,,,,
,,,,,,,,,,,,,,,,,,,,,0.025,,,,,,,,,,Stimuli/psy_flexible_rotation_30_objects_occ0.7_0.9s/images/train/n02933112_4/n04379243_-7/img_buffet_quatre_dining_table_2003_gray.jpg,n02933112_4,n04379243_-7,flexible,0.721126,n04379243_-7,Stimuli/psy_flexible_rotation_30_objects_occ0.7_0.9s/images/train/n02933112_4/n04379243_-7/img_buffet_quatre_dining_table_2003-3_gray.png,foreground,same as foreground,n02933112_4,n04379243_0,Stimuli/canonical view 2/img_n02933112_4_gray.jpg,Stimuli/canonical view 2/img_n04379243_0_gray.jpg,random,right,Experiments/experiment_37/96.jpg,Experiments/experiment_37/97.jpg,Experiments/experiment_37/98.jpg,Experiments/experiment_37/99.jpg,612,1,2023-04-03_17h21.57.068,Occlusion_Psychophysics,2022.1.4,Linux x86_64,60.0348202,,,left,"[""right""]",[1.2767999999997528],False,,0.0,0.0,24.0,24.0,24.0,1.0,,,,,,
,,,,,,,,,,,,,,,,,,,,,0.05,,,,,,,,,,Stimuli/psy_flexible_rotation_30_objects_occ0.7_0.9s/images/train/n02828884_4/n04256520_9/img_b05_c-5_classic_series_bench-2012_napoleon_iii_sofa_2015_gray.jpg,n02828884_4,n04256520_9,flexible,0.701324,n04405907_8,Stimuli/psy_fixed_rotation_30_objects_occ0.7_0.9s/images/train/n04256520_5/n04405907_8/img_meridiani_belmondo_bench_sofa_stylized_tv_2007-3_gray.png,random,fixed,n02828884_4,n04256520_4,Stimuli/canonical view 2/img_n02828884_4_gray.jpg,Stimuli/canonical view 2/img_n04256520_4_gray.jpg,random,left,Experiments/experiment_37/100.jpg,Experiments/experiment_37/101.jpg,Experiments/experiment_37/102.jpg,Experiments/experiment_37/103.jpg,612,1,2023-04-03_17h21.57.068,Occlusion_Psychophysics,2022.1.4,Linux x86_64,60.0348202,,,right,"[""left""]",[1.4209999999999354],False,,0.0,0.0,25.0,25.0,25.0,1.0,,,,,,
,,,,,,,,,,,,,,,,,,,,,0.05,,,,,,,,,,Stimuli/psy_fixed_rotation_30_objects_occ0.7_0.9s/images/train/n04256520_9/n02828884_3/img_napoleon_iii_sofa_b04_wood_metal_park_bench_2003_gray.jpg,n04256520_9,n02828884_3,fixed,0.733352,n04405907_5,Stimuli/psy_fixed_rotation_30_objects_occ0.7_0.9s/images/train/n03928116_4/n04405907_5/img_dp_33_b_2013__vray_samsung_40_uhd_smart_tv_2011_2012-3_gray.png,random,fixed,n04256520_9,n02828884_3,Stimuli/canonical view 2/img_n04256520_9_gray.jpg,Stimuli/canonical view 2/img_n02828884_3_gray.jpg,foreground,left,Experiments/experiment_37/104.jpg,Experiments/experiment_37/105.jpg,Experiments/experiment_37/106.jpg,Experiments/experiment_37/107.jpg,612,1,2023-04-03_17h21.57.068,Occlusion_Psychophysics,2022.1.4,Linux x86_64,60.0348202,,,right,"[""right""]",[1.4855999999996357],False,,0.0,0.0,26.0,26.0,26.0,1.0,,,,,,
,,,,,,,,,,,,,,,,,,,,,0.025,,,,,,,,,,Stimuli/psy_fixed_rotation_30_objects_occ0.7_0.9s/images/train/n04379243_-7/n02933112_-2/img_quatre_dining_table_sink_base_white_wood_2003_gray.jpg,n04379243_-7,n02933112_-2,fixed,0.754237,n04405907_5,Stimuli/psy_fixed_rotation_30_objects_occ0.7_0.9s/images/train/n04379243_0/n04405907_5/img_17th_c._monastery_dining_table_2010_samsung_40_uhd_smart_tv_2011_2008-3_gray.png,random,fixed,n04379243_-7,n02933112_-2,Stimuli/canonical view 2/img_n04379243_-7_gray.jpg,Stimuli/canonical view 2/img_n02933112_-2_gray.jpg,foreground,left,Experiments/experiment_37/108.jpg,Experiments/experiment_37/109.jpg,Experiments/experiment_37/110.jpg,Experiments/experiment_37/111.jpg,612,1,2023-04-03_17h21.57.068,Occlusion_Psychophysics,2022.1.4,Linux x86_64,60.0348202,,,right,"[""right""]",[0.7527999999997519],False,,0.0,0.0,27.0,27.0,27.0,1.0,,,,,,
,,,,,,,,,,,,,,,,,,,,,0.05,,,,,,,,,,Stimuli/psy_flexible_rotation_30_objects_occ0.7_0.9s/images/train/n04256520_5/n02883344_-1/img_meridiani_belmondo_bench_sofa_woven_box_2011_gray.jpg,n04256520_5,n02883344_-1,flexible,0.834814,n02883344_-1,Stimuli/psy_flexible_rotation_30_objects_occ0.7_0.9s/images/train/n04256520_5/n02883344_-1/img_meridiani_belmondo_bench_sofa_woven_box_2011-3_gray.png,foreground,same as foreground,n04256520_5,n02883344_-1,Stimuli/canonical view 2/img_n04256520_5_gray.jpg,Stimuli/canonical view 2/img_n02883344_-1_gray.jpg,foreground,left,Experiments/experiment_37/112.jpg,Experiments/experiment_37/113.jpg,Experiments/experiment_37/114.jpg,Experiments/experiment_37/115.jpg,612,1,2023-04-03_17h21.57.068,Occlusion_Psychophysics,2022.1.4,Linux x86_64,60.0348202,,,left,"[""right""]",[1.480699999999274],False,,0.0,0.0,28.0,28.0,28.0,1.0,,,,,,
,,,,,,,,,,,,,,,,,,,,,0.05,,,,,,,,,,Stimuli/psy_flexible_rotation_30_objects_occ0.7_0.9s/images/train/n04256520_9/n02883344_-1/img_napoleon_iii_sofa_woven_box_2012_gray.jpg,n04256520_9,n02883344_-1,flexible,0.878895,n02883344_-1,Stimuli/psy_flexible_rotation_30_objects_occ0.7_0.9s/images/train/n04256520_9/n02883344_-1/img_napoleon_iii_sofa_woven_box_2012-3_gray.png,foreground,same as foreground,n04256520_9,n03928116_10,Stimuli/canonical view 2/img_n04256520_9_gray.jpg,Stimuli/canonical view 2/img_n03928116_10_gray.jpg,random,left,Experiments/experiment_37/116.jpg,Experiments/experiment_37/117.jpg,Experiments/experiment_37/118.jpg,Experiments/experiment_37/119.jpg,612,1,2023-04-03_17h21.57.068,Occlusion_Psychophysics,2022.1.4,Linux x86_64,60.0348202,,,right,"[""right""]",[1.0270999999996775],False,,0.0,0.0,29.0,29.0,29.0,1.0,,,,,,
,,,,,,,,,,,,,,,,,,,,,0.025,,,,,,,,,,Stimuli/psy_fixed_rotation_30_objects_occ0.7_0.9s/images/train/n04405907_9/n02933112_4/img_vray_004_buffet_2006_gray.jpg,n04405907_9,n02933112_4,fixed,0.718336,n04405907_5,Stimuli/psy_flexible_rotation_30_objects_occ0.7_0.9s/images/train/n02933112_-2/n04405907_5/img_sink_base_white_wood_samsung_40_uhd_smart_tv_2011_2002-3_gray.png,random,flexible,n04405907_9,n02933112_4,Stimuli/canonical view 2/img_n04405907_9_gray.jpg,Stimuli/canonical view 2/img_n02933112_4_gray.jpg,foreground,right,Experiments/experiment_37/120.jpg,Experiments/experiment_37/121.jpg,Experiments/experiment_37/122.jpg,Experiments/experiment_37/123.jpg,612,1,2023-04-03_17h21.57.068,Occlusion_Psychophysics,2022.1.4,Linux x86_64,60.0348202,,,right,"[""right""]",[1.2942000000002736],False,,0.0,0.0,30.0,30.0,30.0,1.0,,,,,,
,,,,,,,,,,,,,,,,,,,,,0.05,,,,,,,,,,Stimuli/psy_flexible_rotation_30_objects_occ0.7_0.9s/images/train/n03928116_0/n04379243_-7/img_b02_piano_quatre_dining_table_2011_gray.jpg,n03928116_0,n04379243_-7,flexible,0.757229,n02818832_0,Stimuli/psy_fixed_rotation_30_objects_occ0.7_0.9s/images/train/n02883344_-1/n02818832_0/img_woven_box_b03_the_sofa_and_chair_company_-_stanley_bed_2014_2010-3_gray.png,random,fixed,n03928116_0,n04379243_-7,Stimuli/canonical view 2/img_n03928116_0_gray.jpg,Stimuli/canonical view 2/img_n04379243_-7_gray.jpg,foreground,right,Experiments/experiment_37/124.jpg,Experiments/experiment_37/125.jpg,Experiments/experiment_37/126.jpg,Experiments/experiment_37/127.jpg,612,1,2023-04-03_17h21.57.068,Occlusion_Psychophysics,2022.1.4,Linux x86_64,60.0348202,,,left,"[""right""]",[1.438399999999433],False,,0.0,0.0,31.0,31.0,31.0,1.0,,,,,,
,,,,,,,,,,,,,,,,,,,,,0.025,,,,,,,,,,Stimuli/psy_fixed_rotation_30_objects_occ0.7_0.9s/images/train/n04405907_9/n04256520_4/img_vray_004_club_house_italia_nautilus_sofa_2012_gray.jpg,n04405907_9,n04256520_4,fixed,0.777674,n04256520_5,Stimuli/psy_flexible_rotation_30_objects_occ0.7_0.9s/images/train/n02828884_4/n04256520_5/img_b05_c-5_classic_series_bench-2012_meridiani_belmondo_bench_sofa_2004-3_gray.png,random,flexible,n04405907_9,n02883344_0,Stimuli/canonical view 2/img_n04405907_9_gray.jpg,Stimuli/canonical view 2/img_n02883344_0_gray.jpg,random,right,Experiments/experiment_37/128.jpg,Experiments/experiment_37/129.jpg,Experiments/experiment_37/130.jpg,Experiments/experiment_37/131.jpg,612,1,2023-04-03_17h21.57.068,Occlusion_Psychophysics,2022.1.4,Linux x86_64,60.0348202,,,left,"[""left""]",[1.1750999999995884],False,,0.0,0.0,32.0,32.0,32.0,1.0,,,,,,
,,,,,,,,,,,,,,,,,,,,,0.05,,,,,,,,,,Stimuli/psy_flexible_rotation_30_objects_occ0.7_0.9s/images/train/n02818832_9/n02828884_4/img_bed01_blue_b05_c-5_classic_series_bench-2012_2000_gray.jpg,n02818832_9,n02828884_4,flexible,0.761022,n02828884_4,Stimuli/psy_flexible_rotation_30_objects_occ0.7_0.9s/images/train/n02818832_9/n02828884_4/img_bed01_blue_b05_c-5_classic_series_bench-2012_2000-3_gray.png,foreground,same as foreground,n02818832_9,n04379243_0,Stimuli/canonical view 2/img_n02818832_9_gray.jpg,Stimuli/canonical view 2/img_n04379243_0_gray.jpg,random,right,Experiments/experiment_37/132.jpg,Experiments/experiment_37/133.jpg,Experiments/experiment_37/134.jpg,Experiments/experiment_37/135.jpg,612,1,2023-04-03_17h21.57.068,Occlusion_Psychophysics,2022.1.4,Linux x86_64,60.0348202,,,left,"[""right""]",[2.1070999999996047],False,,0.0,0.0,33.0,33.0,33.0,1.0,,,,,,
,,,,,,,,,,,,,,,,,,,,,0.025,,,,,,,,,,Stimuli/psy_flexible_rotation_30_objects_occ0.7_0.9s/images/train/n04405907_9/n02828884_3/img_vray_004_b04_wood_metal_park_bench_2000_gray.jpg,n04405907_9,n02828884_3,flexible,0.815377,n02828884_3,Stimuli/psy_flexible_rotation_30_objects_occ0.7_0.9s/images/train/n04405907_9/n02828884_3/img_vray_004_b04_wood_metal_park_bench_2000-3_gray.png,foreground,same as foreground,n04405907_9,n02818832_9,Stimuli/canonical view 2/img_n04405907_9_gray.jpg,Stimuli/canonical view 2/img_n02818832_9_gray.jpg,random,left,Experiments/experiment_37/136.jpg,Experiments/experiment_37/137.jpg,Experiments/experiment_37/138.jpg,Experiments/experiment_37/139.jpg,612,1,2023-04-03_17h21.57.068,Occlusion_Psychophysics,2022.1.4,Linux x86_64,60.0348202,,,left,"[""left""]",[1.5072999999997592],False,,0.0,0.0,34.0,34.0,34.0,1.0,,,,,,
,,,,,,,,,,,,,,,,,,,,,0.025,,,,,,,,,,Stimuli/psy_flexible_rotation_30_objects_occ0.7_0.9s/images/train/n02933112_4/n04256520_5/img_buffet_meridiani_belmondo_bench_sofa_2014_gray.jpg,n02933112_4,n04256520_5,flexible,0.702156,n04379243_-7,Stimuli/psy_fixed_rotation_30_objects_occ0.7_0.9s/images/train/n02933112_4/n04379243_-7/img_buffet_quatre_dining_table_2012-3_gray.png,random,fixed,n02933112_4,n04256520_5,Stimuli/canonical view 2/img_n02933112_4_gray.jpg,Stimuli/canonical view 2/img_n04256520_5_gray.jpg,foreground,left,Experiments/experiment_37/140.jpg,Experiments/experiment_37/141.jpg,Experiments/experiment_37/142.jpg,Experiments/experiment_37/143.jpg,612,1,2023-04-03_17h21.57.068,Occlusion_Psychophysics,2022.1.4,Linux x86_64,60.0348202,,,left,"[""right""]",[1.2404000000003634],False,,0.0,0.0,35.0,35.0,35.0,1.0,,,,,,
,,,,,,,,,,,,,,,,,,,,,0.025,,,,,,,,,,Stimuli/psy_fixed_rotation_30_objects_occ0.7_0.9s/images/train/n04256520_9/n04379243_-7/img_napoleon_iii_sofa_quatre_dining_table_2006_gray.jpg,n04256520_9,n04379243_-7,fixed,0.812174,n04379243_-7,Stimuli/psy_fixed_rotation_30_objects_occ0.7_0.9s/images/train/n04256520_9/n04379243_-7/img_napoleon_iii_sofa_quatre_dining_table_2006-3_gray.png,foreground,same as foreground,n04256520_9,n04379243_-7,Stimuli/canonical view 2/img_n04256520_9_gray.jpg,Stimuli/canonical view 2/img_n04379243_-7_gray.jpg,foreground,left,Experiments/experiment_37/144.jpg,Experiments/experiment_37/145.jpg,Experiments/experiment_37/146.jpg,Experiments/experiment_37/147.jpg,612,1,2023-04-03_17h21.57.068,Occlusion_Psychophysics,2022.1.4,Linux x86_64,60.0348202,,,left,"[""left""]",[1.07549999999992],False,,0.0,0.0,36.0,36.0,36.0,1.0,,,,,,
,,,,,,,,,,,,,,,,,,,,,0.05,,,,,,,,,,Stimuli/psy_fixed_rotation_30_objects_occ0.7_0.9s/images/train/n02818832_3/n03928116_0/img_b05_ccm_contemporary_bed_max2013_b02_piano_2015_gray.jpg,n02818832_3,n03928116_0,fixed,0.786404,n02828884_3,Stimuli/psy_flexible_rotation_30_objects_occ0.7_0.9s/images/train/n04405907_5/n02828884_3/img_samsung_40_uhd_smart_tv_2011_b04_wood_metal_park_bench_2004-3_gray.png,random,flexible,n02818832_3,n03928116_0,Stimuli/canonical view 2/img_n02818832_3_gray.jpg,Stimuli/canonical view 2/img_n03928116_0_gray.jpg,foreground,right,Experiments/experiment_37/148.jpg,Experiments/experiment_37/149.jpg,Experiments/experiment_37/150.jpg,Experiments/experiment_37/151.jpg,612,1,2023-04-03_17h21.57.068,Occlusion_Psychophysics,2022.1.4,Linux x86_64,60.0348202,,,left,"[""left""]",[1.106900000000337],False,,0.0,0.0,37.0,37.0,37.0,1.0,,,,,,
,,,,,,,,,,,,,,,,,,,,,0.05,,,,,,,,,,Stimuli/psy_fixed_rotation_30_objects_occ0.7_0.9s/images/train/n03928116_4/n02933112_4/img_dp_33_b_2013__vray_buffet_2014_gray.jpg,n03928116_4,n02933112_4,fixed,0.780197,n02933112_4,Stimuli/psy_fixed_rotation_30_objects_occ0.7_0.9s/images/train/n03928116_4/n02933112_4/img_dp_33_b_2013__vray_buffet_2014-3_gray.png,foreground,same as foreground,n03928116_4,n02883344_0,Stimuli/canonical view 2/img_n03928116_4_gray.jpg,Stimuli/canonical view 2/img_n02883344_0_gray.jpg,random,left,Experiments/experiment_37/152.jpg,Experiments/experiment_37/153.jpg,Experiments/experiment_37/154.jpg,Experiments/experiment_37/155.jpg,612,1,2023-04-03_17h21.57.068,Occlusion_Psychophysics,2022.1.4,Linux x86_64,60.0348202,,,right,"[""left""]",[1.639599999999632],False,,0.0,0.0,38.0,38.0,38.0,1.0,,,,,,
,,,,,,,,,,,,,,,,,,,,,0.05,,,,,,,,,,Stimuli/psy_fixed_rotation_30_objects_occ0.7_0.9s/images/train/n03928116_10/n03928116_4/img_ydp_103_r_2012__vray_dp_33_b_2013__vray_2006_gray.jpg,n03928116_10,n03928116_4,fixed,0.815469,n03928116_4,Stimuli/psy_fixed_rotation_30_objects_occ0.7_0.9s/images/train/n03928116_10/n03928116_4/img_ydp_103_r_2012__vray_dp_33_b_2013__vray_2006-3_gray.png,foreground,same as foreground,n03928116_10,n03928116_4,Stimuli/canonical view 2/img_n03928116_10_gray.jpg,Stimuli/canonical view 2/img_n03928116_4_gray.jpg,foreground,right,Experiments/experiment_37/156.jpg,Experiments/experiment_37/157.jpg,Experiments/experiment_37/158.jpg,Experiments/experiment_37/159.jpg,612,1,2023-04-03_17h21.57.068,Occlusion_Psychophysics,2022.1.4,Linux x86_64,60.0348202,,,right,"[""right""]",[1.4872000000001435],False,,0.0,0.0,39.0,39.0,39.0,1.0,,,,,,
,,,,,,,,,,,,,,,,,,,,,0.05,,,,,,,,,,Stimuli/psy_flexible_rotation_30_objects_occ0.7_0.9s/images/train/n04405907_9/n04405907_5/img_vray_004_samsung_40_uhd_smart_tv_2011_2012_gray.jpg,n04405907_9,n04405907_5,flexible,0.735522,n04405907_5,Stimuli/psy_flexible_rotation_30_objects_occ0.7_0.9s/images/train/n04405907_9/n04405907_5/img_vray_004_samsung_40_uhd_smart_tv_2011_2012-3_gray.png,foreground,same as foreground,n04405907_9,n04405907_5,Stimuli/canonical view 2/img_n04405907_9_gray.jpg,Stimuli/canonical view 2/img_n04405907_5_gray.jpg,foreground,right,Experiments/experiment_37/160.jpg,Experiments/experiment_37/161.jpg,Experiments/experiment_37/162.jpg,Experiments/experiment_37/163.jpg,612,1,2023-04-03_17h21.57.068,Occlusion_Psychophysics,2022.1.4,Linux x86_64,60.0348202,,,left,"[""left""]",[1.068400000000338],False,,0.0,0.0,40.0,40.0,40.0,1.0,,,,,,
,,,,,,,,,,,,,,,,,,,,,0.025,,,,,,,,,,Stimuli/psy_fixed_rotation_30_objects_occ0.7_0.9s/images/train/n03001627_-2/n02883344_15/img_wood_chair_microwave_box_2006_gray.jpg,n03001627_-2,n02883344_15,fixed,0.755245,n02933112_-18,Stimuli/psy_fixed_rotation_30_objects_occ0.7_0.9s/images/train/n02818832_0/n02933112_-18/img_b03_the_sofa_and_chair_company_-_stanley_bed_2014_cgaxis_models_48_26_vray_composite_2009-3_gray.png,random,fixed,n03001627_-2,n02883344_15,Stimuli/canonical view 2/img_n03001627_-2_gray.jpg,Stimuli/canonical view 2/img_n02883344_15_gray.jpg,foreground,right,Experiments/experiment_37/164.jpg,Experiments/experiment_37/165.jpg,Experiments/experiment_37/166.jpg,Experiments/experiment_37/167.jpg,612,1,2023-04-03_17h21.57.068,Occlusion_Psychophysics,2022.1.4,Linux x86_64,60.0348202,,,right,"[""right""]",[0.7372000000001435],False,,0.0,0.0,41.0,41.0,41.0,1.0,,,,,,
,,,,,,,,,,,,,,,,,,,,,0.025,,,,,,,,,,Stimuli/psy_fixed_rotation_30_objects_occ0.7_0.9s/images/train/n04405907_8/n02818832_3/img_stylized_tv_b05_ccm_contemporary_bed_max2013_2012_gray.jpg,n04405907_8,n02818832_3,fixed,0.837429,n02818832_3,Stimuli/psy_fixed_rotation_30_objects_occ0.7_0.9s/images/train/n04405907_8/n02818832_3/img_stylized_tv_b05_ccm_contemporary_bed_max2013_2012-3_gray.png,foreground,same as foreground,n04405907_8,n02818832_9,Stimuli/canonical view 2/img_n04405907_8_gray.jpg,Stimuli/canonical view 2/img_n02818832_9_gray.jpg,random,left,Experiments/experiment_37/168.jpg,Experiments/experiment_37/169.jpg,Experiments/experiment_37/170.jpg,Experiments/experiment_37/171.jpg,612,1,2023-04-03_17h21.57.068,Occlusion_Psychophysics,2022.1.4,Linux x86_64,60.0348202,,,right,"[""right""]",[1.0092999999998256],False,,0.0,0.0,42.0,42.0,42.0,1.0,,,,,,
,,,,,,,,,,,,,,,,,,,,,0.05,,,,,,,,,,Stimuli/psy_flexible_rotation_30_objects_occ0.7_0.9s/images/train/n04405907_8/n02883344_-1/img_stylized_tv_woven_box_2007_gray.jpg,n04405907_8,n02883344_-1,flexible,0.847304,n04256520_9,Stimuli/psy_flexible_rotation_30_objects_occ0.7_0.9s/images/train/n04405907_8/n04256520_9/img_stylized_tv_napoleon_iii_sofa_2010-3_gray.png,random,flexible,n04405907_8,n03001627_-2,Stimuli/canonical view 2/img_n04405907_8_gray.jpg,Stimuli/canonical view 2/img_n03001627_-2_gray.jpg,random,left,Experiments/experiment_37/172.jpg,Experiments/experiment_37/173.jpg,Experiments/experiment_37/174.jpg,Experiments/experiment_37/175.jpg,612,1,2023-04-03_17h21.57.068,Occlusion_Psychophysics,2022.1.4,Linux x86_64,60.0348202,,,left,"[""right""]",[0.9925000000000637],False,,0.0,0.0,43.0,43.0,43.0,1.0,,,,,,
,,,,,,,,,,,,,,,,,,,,,0.05,,,,,,,,,,Stimuli/psy_flexible_rotation_30_objects_occ0.7_0.9s/images/train/n04379243_-7/n04379243_0/img_quatre_dining_table_17th_c._monastery_dining_table_2010_2007_gray.jpg,n04379243_-7,n04379243_0,flexible,0.726366,n04256520_4,Stimuli/psy_flexible_rotation_30_objects_occ0.7_0.9s/images/train/n02818832_9/n04256520_4/img_bed01_blue_club_house_italia_nautilus_sofa_2012-3_gray.png,random,flexible,n04379243_-7,n04379243_8,Stimuli/canonical view 2/img_n04379243_-7_gray.jpg,Stimuli/canonical view 2/img_n04379243_8_gray.jpg,random,right,Experiments/experiment_37/176.jpg,Experiments/experiment_37/177.jpg,Experiments/experiment_37/178.jpg,Experiments/experiment_37/179.jpg,612,1,2023-04-03_17h21.57.068,Occlusion_Psychophysics,2022.1.4,Linux x86_64,60.0348202,,,right,"[""left""]",[1.3424000000003389],False,,0.0,0.0,44.0,44.0,44.0,1.0,,,,,,
,,,,,,,,,,,,,,,,,,,,,0.05,,,,,,,,,,Stimuli/psy_fixed_rotation_30_objects_occ0.7_0.9s/images/train/n04405907_9/n02933112_-18/img_vray_004_cgaxis_models_48_26_vray_composite_2015_gray.jpg,n04405907_9,n02933112_-18,fixed,0.763612,n02933112_-18,Stimuli/psy_fixed_rotation_30_objects_occ0.7_0.9s/images/train/n04405907_9/n02933112_-18/img_vray_004_cgaxis_models_48_26_vray_composite_2015-3_gray.png,foreground,same as foreground,n04405907_9,n03001627_8,Stimuli/canonical view 2/img_n04405907_9_gray.jpg,Stimuli/canonical view 2/img_n03001627_8_gray.jpg,random,left,Experiments/experiment_37/180.jpg,Experiments/experiment_37/181.jpg,Experiments/experiment_37/182.jpg,Experiments/experiment_37/183.jpg,612,1,2023-04-03_17h21.57.068,Occlusion_Psychophysics,2022.1.4,Linux x86_64,60.0348202,,,right,"[""right""]",[1.2237999999997555],False,,0.0,0.0,45.0,45.0,45.0,1.0,,,,,,
,,,,,,,,,,,,,,,,,,,,,0.05,,,,,,,,,,Stimuli/psy_fixed_rotation_30_objects_occ0.7_0.9s/images/train/n04256520_4/n04405907_5/img_club_house_italia_nautilus_sofa_samsung_40_uhd_smart_tv_2011_2005_gray.jpg,n04256520_4,n04405907_5,fixed,0.711398,n04405907_5,Stimuli/psy_fixed_rotation_30_objects_occ0.7_0.9s/images/train/n04256520_4/n04405907_5/img_club_house_italia_nautilus_sofa_samsung_40_uhd_smart_tv_2011_2005-3_gray.png,foreground,same as foreground,n04256520_4,n04405907_5,Stimuli/canonical view 2/img_n04256520_4_gray.jpg,Stimuli/canonical view 2/img_n04405907_5_gray.jpg,foreground,right,Experiments/experiment_37/184.jpg,Experiments/experiment_37/185.jpg,Experiments/experiment_37/186.jpg,Experiments/experiment_37/187.jpg,612,1,2023-04-03_17h21.57.068,Occlusion_Psychophysics,2022.1.4,Linux x86_64,60.0348202,,,left,"[""left""]",[1.0900000000000318],False,,0.0,0.0,46.0,46.0,46.0,1.0,,,,,,
,,,,,,,,,,,,,,,,,,,,,0.025,,,,,,,,,,Stimuli/psy_fixed_rotation_30_objects_occ0.7_0.9s/images/train/n04405907_8/n03001627_9/img_stylized_tv_chair_eames_plastic_armchair_2008_gray.jpg,n04405907_8,n03001627_9,fixed,0.822184,n03001627_9,Stimuli/psy_fixed_rotation_30_objects_occ0.7_0.9s/images/train/n04405907_8/n03001627_9/img_stylized_tv_chair_eames_plastic_armchair_2008-3_gray.png,foreground,same as foreground,n04405907_8,n04405907_5,Stimuli/canonical view 2/img_n04405907_8_gray.jpg,Stimuli/canonical view 2/img_n04405907_5_gray.jpg,random,right,Experiments/experiment_37/188.jpg,Experiments/experiment_37/189.jpg,Experiments/experiment_37/190.jpg,Experiments/experiment_37/191.jpg,612,1,2023-04-03_17h21.57.068,Occlusion_Psychophysics,2022.1.4,Linux x86_64,60.0348202,,,left,"[""right""]",[1.2545999999996411],False,,0.0,0.0,47.0,47.0,47.0,1.0,,,,,,
,,,,,,,,,,,,,,,,,,,,,0.05,,,,,,,,,,Stimuli/psy_flexible_rotation_30_objects_occ0.7_0.9s/images/train/n02828884_3/n02933112_-2/img_b04_wood_metal_park_bench_sink_base_white_wood_2015_gray.jpg,n02828884_3,n02933112_-2,flexible,0.734365,n03928116_0,Stimuli/psy_flexible_rotation_30_objects_occ0.7_0.9s/images/train/n04256520_5/n03928116_0/img_meridiani_belmondo_bench_sofa_b02_piano_2006-3_gray.png,random,flexible,n02828884_3,n04379243_-7,Stimuli/canonical view 2/img_n02828884_3_gray.jpg,Stimuli/canonical view 2/img_n04379243_-7_gray.jpg,random,right,Experiments/experiment_37/192.jpg,Experiments/experiment_37/193.jpg,Experiments/experiment_37/194.jpg,Experiments/experiment_37/195.jpg,612,1,2023-04-03_17h21.57.068,Occlusion_Psychophysics,2022.1.4,Linux x86_64,60.0348202,,,right,"[""right""]",[1.0602999999997564],False,,0.0,0.0,48.0,48.0,48.0,1.0,,,,,,
,,,,,,,,,,,,,,,,,,,,,0.05,,,,,,,,,,Stimuli/psy_fixed_rotation_30_objects_occ0.7_0.9s/images/train/n04379243_8/n04379243_-7/img_glass_table_quatre_dining_table_2001_gray.jpg,n04379243_8,n04379243_-7,fixed,0.727283,n02933112_-2,Stimuli/psy_fixed_rotation_30_objects_occ0.7_0.9s/images/train/n02933112_-18/n02933112_-2/img_cgaxis_models_48_26_vray_composite_sink_base_white_wood_2009-3_gray.png,random,fixed,n04379243_8,n04379243_-7,Stimuli/canonical view 2/img_n04379243_8_gray.jpg,Stimuli/canonical view 2/img_n04379243_-7_gray.jpg,foreground,left,Experiments/experiment_37/196.jpg,Experiments/experiment_37/197.jpg,Experiments/experiment_37/198.jpg,Experiments/experiment_37/199.jpg,612,1,2023-04-03_17h21.57.068,Occlusion_Psychophysics,2022.1.4,Linux x86_64,60.0348202,,,left,"[""left""]",[0.939900000000307],False,,0.0,0.0,49.0,49.0,49.0,1.0,,,,,,
,,,,,,,,,,,,,,,,,,,,,0.025,,,,,,,,,,Stimuli/psy_flexible_rotation_30_objects_occ0.7_0.9s/images/train/n04256520_5/n02883344_15/img_meridiani_belmondo_bench_sofa_microwave_box_2005_gray.jpg,n04256520_5,n02883344_15,flexible,0.728165,n02883344_15,Stimuli/psy_flexible_rotation_30_objects_occ0.7_0.9s/images/train/n04256520_5/n02883344_15/img_meridiani_belmondo_bench_sofa_microwave_box_2005-3_gray.png,foreground,same as foreground,n04256520_5,n04405907_9,Stimuli/canonical view 2/img_n04256520_5_gray.jpg,Stimuli/canonical view 2/img_n04405907_9_gray.jpg,random,left,Experiments/experiment_37/200.jpg,Experiments/experiment_37/201.jpg,Experiments/experiment_37/202.jpg,Experiments/experiment_37/203.jpg,612,1,2023-04-03_17h21.57.068,Occlusion_Psychophysics,2022.1.4,Linux x86_64,60.0348202,,,left,"[""left""]",[1.06899999999996],False,,0.0,0.0,50.0,50.0,50.0,1.0,,,,,,
,,,,,,,,,,,,,,,,,,,,,0.025,,,,,,,,,,Stimuli/psy_flexible_rotation_30_objects_occ0.7_0.9s/images/train/n02818832_9/n02828884_3/img_bed01_blue_b04_wood_metal_park_bench_2012_gray.jpg,n02818832_9,n02828884_3,flexible,0.711728,n02828884_3,Stimuli/psy_flexible_rotation_30_objects_occ0.7_0.9s/images/train/n02818832_9/n02828884_3/img_bed01_blue_b04_wood_metal_park_bench_2012-3_gray.png,foreground,same as foreground,n02818832_9,n04379243_0,Stimuli/canonical view 2/img_n02818832_9_gray.jpg,Stimuli/canonical view 2/img_n04379243_0_gray.jpg,random,left,Experiments/experiment_37/204.jpg,Experiments/experiment_37/205.jpg,Experiments/experiment_37/206.jpg,Experiments/experiment_37/207.jpg,612,1,2023-04-03_17h21.57.068,Occlusion_Psychophysics,2022.1.4,Linux x86_64,60.0348202,,,left,"[""right""]",[1.3555000000000064],False,,0.0,0.0,51.0,51.0,51.0,1.0,,,,,,
,,,,,,,,,,,,,,,,,,,,,0.05,,,,,,,,,,Stimuli/psy_flexible_rotation_30_objects_occ0.7_0.9s/images/train/n02933112_-2/n04379243_0/img_sink_base_white_wood_17th_c._monastery_dining_table_2010_2004_gray.jpg,n02933112_-2,n04379243_0,flexible,0.747805,n02818832_3,Stimuli/psy_flexible_rotation_30_objects_occ0.7_0.9s/images/train/n02818832_9/n02818832_3/img_bed01_blue_b05_ccm_contemporary_bed_max2013_2006-3_gray.png,random,flexible,n02933112_-2,n04379243_0,Stimuli/canonical view 2/img_n02933112_-2_gray.jpg,Stimuli/canonical view 2/img_n04379243_0_gray.jpg,foreground,right,Experiments/experiment_37/208.jpg,Experiments/experiment_37/209.jpg,Experiments/experiment_37/210.jpg,Experiments/experiment_37/211.jpg,612,1,2023-04-03_17h21.57.068,Occlusion_Psychophysics,2022.1.4,Linux x86_64,60.0348202,,,right,"[""left""]",[1.4602999999997337],False,,0.0,0.0,52.0,52.0,52.0,1.0,,,,,,
,,,,,,,,,,,,,,,,,,,,,0.025,,,,,,,,,,Stimuli/psy_fixed_rotation_30_objects_occ0.7_0.9s/images/train/n02818832_3/n04405907_8/img_b05_ccm_contemporary_bed_max2013_stylized_tv_2007_gray.jpg,n02818832_3,n04405907_8,fixed,0.846423,n03928116_4,Stimuli/psy_fixed_rotation_30_objects_occ0.7_0.9s/images/train/n04379243_8/n03928116_4/img_glass_table_dp_33_b_2013__vray_2000-3_gray.png,random,fixed,n02818832_3,n02883344_-1,Stimuli/canonical view 2/img_n02818832_3_gray.jpg,Stimuli/canonical view 2/img_n02883344_-1_gray.jpg,random,left,Experiments/experiment_37/212.jpg,Experiments/experiment_37/213.jpg,Experiments/experiment_37/214.jpg,Experiments/experiment_37/215.jpg,612,1,2023-04-03_17h21.57.068,Occlusion_Psychophysics,2022.1.4,Linux x86_64,60.0348202,,,left,"[""left""]",[1.2097000000002254],False,,0.0,0.0,53.0,53.0,53.0,1.0,,,,,,
,,,,,,,,,,,,,,,,,,,,,0.05,,,,,,,,,,Stimuli/psy_flexible_rotation_30_objects_occ0.7_0.9s/images/train/n02933112_-18/n04405907_5/img_cgaxis_models_48_26_vray_composite_samsung_40_uhd_smart_tv_2011_2004_gray.jpg,n02933112_-18,n04405907_5,flexible,0.75774,n04405907_5,Stimuli/psy_flexible_rotation_30_objects_occ0.7_0.9s/images/train/n02933112_-18/n04405907_5/img_cgaxis_models_48_26_vray_composite_samsung_40_uhd_smart_tv_2011_2004-3_gray.png,foreground,same as foreground,n02933112_-18,n02828884_3,Stimuli/canonical view 2/img_n02933112_-18_gray.jpg,Stimuli/canonical view 2/img_n02828884_3_gray.jpg,random,left,Experiments/experiment_37/216.jpg,Experiments/experiment_37/217.jpg,Experiments/experiment_37/218.jpg,Experiments/experiment_37/219.jpg,612,1,2023-04-03_17h21.57.068,Occlusion_Psychophysics,2022.1.4,Linux x86_64,60.0348202,,,right,"[""left""]",[1.610100000000557],False,,0.0,0.0,54.0,54.0,54.0,1.0,,,,,,
,,,,,,,,,,,,,,,,,,,,,0.025,,,,,,,,,,Stimuli/psy_fixed_rotation_30_objects_occ0.7_0.9s/images/train/n02828884_3/n04379243_-7/img_b04_wood_metal_park_bench_quatre_dining_table_2008_gray.jpg,n02828884_3,n04379243_-7,fixed,0.71061,n04379243_-7,Stimuli/psy_fixed_rotation_30_objects_occ0.7_0.9s/images/train/n02828884_3/n04379243_-7/img_b04_wood_metal_park_bench_quatre_dining_table_2008-3_gray.png,foreground,same as foreground,n02828884_3,n03001627_8,Stimuli/canonical view 2/img_n02828884_3_gray.jpg,Stimuli/canonical view 2/img_n03001627_8_gray.jpg,random,left,Experiments/experiment_37/220.jpg,Experiments/experiment_37/221.jpg,Experiments/experiment_37/222.jpg,Experiments/experiment_37/223.jpg,612,1,2023-04-03_17h21.57.068,Occlusion_Psychophysics,2022.1.4,Linux x86_64,60.0348202,,,left,"[""left""]",[1.0920999999996184],False,,0.0,0.0,55.0,55.0,55.0,1.0,,,,,,
,,,,,,,,,,,,,,,,,,,,,0.05,,,,,,,,,,Stimuli/psy_flexible_rotation_30_objects_occ0.7_0.9s/images/train/n04405907_8/n02818832_3/img_stylized_tv_b05_ccm_contemporary_bed_max2013_2013_gray.jpg,n04405907_8,n02818832_3,flexible,0.820663,n02883344_15,Stimuli/psy_fixed_rotation_30_objects_occ0.7_0.9s/images/train/n04256520_5/n02883344_15/img_meridiani_belmondo_bench_sofa_microwave_box_2009-3_gray.png,random,fixed,n04405907_8,n02818832_3,Stimuli/canonical view 2/img_n04405907_8_gray.jpg,Stimuli/canonical view 2/img_n02818832_3_gray.jpg,foreground,right,Experiments/experiment_37/224.jpg,Experiments/experiment_37/225.jpg,Experiments/experiment_37/226.jpg,Experiments/experiment_37/227.jpg,612,1,2023-04-03_17h21.57.068,Occlusion_Psychophysics,2022.1.4,Linux x86_64,60.0348202,,,left,"[""right""]",[1.3387999999997646],False,,0.0,0.0,56.0,56.0,56.0,1.0,,,,,,
,,,,,,,,,,,,,,,,,,,,,0.025,,,,,,,,,,Stimuli/psy_flexible_rotation_30_objects_occ0.7_0.9s/images/train/n04256520_9/n04256520_4/img_napoleon_iii_sofa_club_house_italia_nautilus_sofa_2010_gray.jpg,n04256520_9,n04256520_4,flexible,0.701392,n04256520_4,Stimuli/psy_flexible_rotation_30_objects_occ0.7_0.9s/images/train/n04256520_9/n04256520_4/img_napoleon_iii_sofa_club_house_italia_nautilus_sofa_2010-3_gray.png,foreground,same as foreground,n04256520_9,n04256520_4,Stimuli/canonical view 2/img_n04256520_9_gray.jpg,Stimuli/canonical view 2/img_n04256520_4_gray.jpg,foreground,left,Experiments/experiment_37/228.jpg,Experiments/experiment_37/229.jpg,Experiments/experiment_37/230.jpg,Experiments/experiment_37/231.jpg,612,1,2023-04-03_17h21.57.068,Occlusion_Psychophysics,2022.1.4,Linux x86_64,60.0348202,,,right,"[""right""]",[0.8117000000002008],False,,0.0,0.0,57.0,57.0,57.0,1.0,,,,,,
,,,,,,,,,,,,,,,,,,,,,0.025,,,,,,,,,,Stimuli/psy_flexible_rotation_30_objects_occ0.7_0.9s/images/train/n02818832_9/n03928116_10/img_bed01_blue_ydp_103_r_2012__vray_2011_gray.jpg,n02818832_9,n03928116_10,flexible,0.767123,n03928116_10,Stimuli/psy_flexible_rotation_30_objects_occ0.7_0.9s/images/train/n02818832_9/n03928116_10/img_bed01_blue_ydp_103_r_2012__vray_2011-3_gray.png,foreground,same as foreground,n02818832_9,n04256520_9,Stimuli/canonical view 2/img_n02818832_9_gray.jpg,Stimuli/canonical view 2/img_n04256520_9_gray.jpg,random,right,Experiments/experiment_37/232.jpg,Experiments/experiment_37/233.jpg,Experiments/experiment_37/234.jpg,Experiments/experiment_37/235.jpg,612,1,2023-04-03_17h21.57.068,Occlusion_Psychophysics,2022.1.4,Linux x86_64,60.0348202,,,left,"[""right""]",[1.5600999999995793],False,,0.0,0.0,58.0,58.0,58.0,1.0,,,,,,
,,,,,,,,,,,,,,,,,,,,,0.05,,,,,,,,,,Stimuli/psy_flexible_rotation_30_objects_occ0.7_0.9s/images/train/n04256520_5/n02818832_9/img_meridiani_belmondo_bench_sofa_bed01_blue_2008_gray.jpg,n04256520_5,n02818832_9,flexible,0.819577,n02818832_9,Stimuli/psy_flexible_rotation_30_objects_occ0.7_0.9s/images/train/n04256520_5/n02818832_9/img_meridiani_belmondo_bench_sofa_bed01_blue_2008-3_gray.png,foreground,same as foreground,n04256520_5,n03928116_4,Stimuli/canonical view 2/img_n04256520_5_gray.jpg,Stimuli/canonical view 2/img_n03928116_4_gray.jpg,random,left,Experiments/experiment_37/236.jpg,Experiments/experiment_37/237.jpg,Experiments/experiment_37/238.jpg,Experiments/experiment_37/239.jpg,612,1,2023-04-03_17h21.57.068,Occlusion_Psychophysics,2022.1.4,Linux x86_64,60.0348202,,,right,"[""right""]",[1.1561999999992167],False,,0.0,0.0,59.0,59.0,59.0,1.0,,,,,,
,,,,,,,,,,,,,,,,,,,,,0.025,,,,,,,,,,Stimuli/psy_flexible_rotation_30_objects_occ0.7_0.9s/images/train/n03001627_8/n02883344_-1/img_chair_billiani_doll_woven_box_2008_gray.jpg,n03001627_8,n02883344_-1,flexible,0.707081,n02933112_-2,Stimuli/psy_flexible_rotation_30_objects_occ0.7_0.9s/images/train/n03928116_10/n02933112_-2/img_ydp_103_r_2012__vray_sink_base_white_wood_2006-3_gray.png,random,flexible,n03001627_8,n02883344_-1,Stimuli/canonical view 2/img_n03001627_8_gray.jpg,Stimuli/canonical view 2/img_n02883344_-1_gray.jpg,foreground,left,Experiments/experiment_37/240.jpg,Experiments/experiment_37/241.jpg,Experiments/experiment_37/242.jpg,Experiments/experiment_37/243.jpg,612,1,2023-04-03_17h21.57.068,Occlusion_Psychophysics,2022.1.4,Linux x86_64,60.0348202,,,right,"[""right""]",[0.7249000000003889],False,,0.0,0.0,60.0,60.0,60.0,1.0,,,,,,
,,,,,,,,,,,,,,,,,,,,,0.05,,,,,,,,,,Stimuli/psy_flexible_rotation_30_objects_occ0.7_0.9s/images/train/n02883344_15/n02883344_-1/img_microwave_box_woven_box_2008_gray.jpg,n02883344_15,n02883344_-1,flexible,0.868366,n02883344_-1,Stimuli/psy_flexible_rotation_30_objects_occ0.7_0.9s/images/train/n02883344_15/n02883344_-1/img_microwave_box_woven_box_2008-3_gray.png,foreground,same as foreground,n02883344_15,n03928116_10,Stimuli/canonical view 2/img_n02883344_15_gray.jpg,Stimuli/canonical view 2/img_n03928116_10_gray.jpg,random,right,Experiments/experiment_37/244.jpg,Experiments/experiment_37/245.jpg,Experiments/experiment_37/246.jpg,Experiments/experiment_37/247.jpg,612,1,2023-04-03_17h21.57.068,Occlusion_Psychophysics,2022.1.4,Linux x86_64,60.0348202,,,left,"[""right""]",[1.1718999999993684],False,,0.0,0.0,61.0,61.0,61.0,1.0,,,,,,
,,,,,,,,,,,,,,,,,,,,,0.025,,,,,,,,,,Stimuli/psy_fixed_rotation_30_objects_occ0.7_0.9s/images/train/n02883344_-1/n03928116_4/img_woven_box_dp_33_b_2013__vray_2000_gray.jpg,n02883344_-1,n03928116_4,fixed,0.700101,n03928116_4,Stimuli/psy_fixed_rotation_30_objects_occ0.7_0.9s/images/train/n02883344_-1/n03928116_4/img_woven_box_dp_33_b_2013__vray_2000-3_gray.png,foreground,same as foreground,n02883344_-1,n02883344_15,Stimuli/canonical view 2/img_n02883344_-1_gray.jpg,Stimuli/canonical view 2/img_n02883344_15_gray.jpg,random,left,Experiments/experiment_37/248.jpg,Experiments/experiment_37/249.jpg,Experiments/experiment_37/250.jpg,Experiments/experiment_37/251.jpg,612,1,2023-04-03_17h21.57.068,Occlusion_Psychophysics,2022.1.4,Linux x86_64,60.0348202,,,right,"[""right""]",[1.22199999999998],False,,0.0,0.0,62.0,62.0,62.0,1.0,,,,,,
,,,,,,,,,,,,,,,,,,,,,0.05,,,,,,,,,,Stimuli/psy_fixed_rotation_30_objects_occ0.7_0.9s/images/train/n03001627_9/n02883344_0/img_chair_eames_plastic_armchair_b03_box_2013_gray.jpg,n03001627_9,n02883344_0,fixed,0.700377,n02883344_0,Stimuli/psy_fixed_rotation_30_objects_occ0.7_0.9s/images/train/n03001627_9/n02883344_0/img_chair_eames_plastic_armchair_b03_box_2013-3_gray.png,foreground,same as foreground,n03001627_9,n02933112_4,Stimuli/canonical view 2/img_n03001627_9_gray.jpg,Stimuli/canonical view 2/img_n02933112_4_gray.jpg,random,left,Experiments/experiment_37/252.jpg,Experiments/experiment_37/253.jpg,Experiments/experiment_37/254.jpg,Experiments/experiment_37/255.jpg,612,1,2023-04-03_17h21.57.068,Occlusion_Psychophysics,2022.1.4,Linux x86_64,60.0348202,,,left,"[""left""]",[0.7900999999995975],False,,0.0,0.0,63.0,63.0,63.0,1.0,,,,,,
,,,,,,,,,,,,,,,,,,,,,0.05,,,,,,,,,,Stimuli/psy_fixed_rotation_30_objects_occ0.7_0.9s/images/train/n04379243_-7/n04379243_0/img_quatre_dining_table_17th_c._monastery_dining_table_2010_2004_gray.jpg,n04379243_-7,n04379243_0,fixed,0.722409,n04379243_0,Stimuli/psy_fixed_rotation_30_objects_occ0.7_0.9s/images/train/n04379243_-7/n04379243_0/img_quatre_dining_table_17th_c._monastery_dining_table_2010_2004-3_gray.png,foreground,same as foreground,n04379243_-7,n03001627_-2,Stimuli/canonical view 2/img_n04379243_-7_gray.jpg,Stimuli/canonical view 2/img_n03001627_-2_gray.jpg,random,left,Experiments/experiment_37/256.jpg,Experiments/experiment_37/257.jpg,Experiments/experiment_37/258.jpg,Experiments/experiment_37/259.jpg,612,1,2023-04-03_17h21.57.068,Occlusion_Psychophysics,2022.1.4,Linux x86_64,60.0348202,,,right,"[""right""]",[1.679100000000517],False,,0.0,0.0,64.0,64.0,64.0,1.0,,,,,,
,,,,,,,,,,,,,,,,,,,,,0.05,,,,,,,,,,Stimuli/psy_fixed_rotation_30_objects_occ0.7_0.9s/images/train/n04379243_-7/n02883344_15/img_quatre_dining_table_microwave_box_2013_gray.jpg,n04379243_-7,n02883344_15,fixed,0.786555,n02883344_15,Stimuli/psy_fixed_rotation_30_objects_occ0.7_0.9s/images/train/n04379243_-7/n02883344_15/img_quatre_dining_table_microwave_box_2013-3_gray.png,foreground,same as foreground,n04379243_-7,n02883344_15,Stimuli/canonical view 2/img_n04379243_-7_gray.jpg,Stimuli/canonical view 2/img_n02883344_15_gray.jpg,foreground,left,Experiments/experiment_37/260.jpg,Experiments/experiment_37/261.jpg,Experiments/experiment_37/262.jpg,Experiments/experiment_37/263.jpg,612,1,2023-04-03_17h21.57.068,Occlusion_Psychophysics,2022.1.4,Linux x86_64,60.0348202,,,left,"[""left""]",[0.9389999999999645],False,,0.0,0.0,65.0,65.0,65.0,1.0,,,,,,
,,,,,,,,,,,,,,,,,,,,,0.05,,,,,,,,,,Stimuli/psy_flexible_rotation_30_objects_occ0.7_0.9s/images/train/n02933112_-2/n04405907_9/img_sink_base_white_wood_vray_004_2014_gray.jpg,n02933112_-2,n04405907_9,flexible,0.701321,n04379243_0,Stimuli/psy_fixed_rotation_30_objects_occ0.7_0.9s/images/train/n02818832_9/n04379243_0/img_bed01_blue_17th_c._monastery_dining_table_2010_2000-3_gray.png,random,fixed,n02933112_-2,n04405907_9,Stimuli/canonical view 2/img_n02933112_-2_gray.jpg,Stimuli/canonical view 2/img_n04405907_9_gray.jpg,foreground,left,Experiments/experiment_37/264.jpg,Experiments/experiment_37/265.jpg,Experiments/experiment_37/266.jpg,Experiments/experiment_37/267.jpg,612,1,2023-04-03_17h21.57.068,Occlusion_Psychophysics,2022.1.4,Linux x86_64,60.0348202,,,right,"[""right""]",[0.9396000000006097],False,,0.0,0.0,66.0,66.0,66.0,1.0,,,,,,
,,,,,,,,,,,,,,,,,,,,,0.025,,,,,,,,,,Stimuli/psy_fixed_rotation_30_objects_occ0.7_0.9s/images/train/n04256520_4/n04256520_5/img_club_house_italia_nautilus_sofa_meridiani_belmondo_bench_sofa_2006_gray.jpg,n04256520_4,n04256520_5,fixed,0.738434,n04256520_5,Stimuli/psy_fixed_rotation_30_objects_occ0.7_0.9s/images/train/n04256520_4/n04256520_5/img_club_house_italia_nautilus_sofa_meridiani_belmondo_bench_sofa_2006-3_gray.png,foreground,same as foreground,n04256520_4,n04256520_5,Stimuli/canonical view 2/img_n04256520_4_gray.jpg,Stimuli/canonical view 2/img_n04256520_5_gray.jpg,foreground,right,Experiments/experiment_37/268.jpg,Experiments/experiment_37/269.jpg,Experiments/experiment_37/270.jpg,Experiments/experiment_37/271.jpg,612,1,2023-04-03_17h21.57.068,Occlusion_Psychophysics,2022.1.4,Linux x86_64,60.0348202,,,left,"[""right""]",[1.2932000000001835],False,,0.0,0.0,67.0,67.0,67.0,1.0,,,,,,
,,,,,,,,,,,,,,,,,,,,,0.05,,,,,,,,,,Stimuli/psy_fixed_rotation_30_objects_occ0.7_0.9s/images/train/n02828884_9/n02883344_-1/img_cr-96_bench_woven_box_2002_gray.jpg,n02828884_9,n02883344_-1,fixed,0.716777,n02883344_-1,Stimuli/psy_fixed_rotation_30_objects_occ0.7_0.9s/images/train/n02828884_9/n02883344_-1/img_cr-96_bench_woven_box_2002-3_gray.png,foreground,same as foreground,n02828884_9,n02883344_-1,Stimuli/canonical view 2/img_n02828884_9_gray.jpg,Stimuli/canonical view 2/img_n02883344_-1_gray.jpg,foreground,right,Experiments/experiment_37/272.jpg,Experiments/experiment_37/273.jpg,Experiments/experiment_37/274.jpg,Experiments/experiment_37/275.jpg,612,1,2023-04-03_17h21.57.068,Occlusion_Psychophysics,2022.1.4,Linux x86_64,60.0348202,,,right,"[""right""]",[0.7614999999999554],False,,0.0,0.0,68.0,68.0,68.0,1.0,,,,,,
,,,,,,,,,,,,,,,,,,,,,0.05,,,,,,,,,,Stimuli/psy_fixed_rotation_30_objects_occ0.7_0.9s/images/train/n03928116_10/n02883344_0/img_ydp_103_r_2012__vray_b03_box_2008_gray.jpg,n03928116_10,n02883344_0,fixed,0.74404,n02883344_0,Stimuli/psy_fixed_rotation_30_objects_occ0.7_0.9s/images/train/n03928116_10/n02883344_0/img_ydp_103_r_2012__vray_b03_box_2008-3_gray.png,foreground,same as foreground,n03928116_10,n02883344_0,Stimuli/canonical view 2/img_n03928116_10_gray.jpg,Stimuli/canonical view 2/img_n02883344_0_gray.jpg,foreground,left,Experiments/experiment_37/276.jpg,Experiments/experiment_37/277.jpg,Experiments/experiment_37/278.jpg,Experiments/experiment_37/279.jpg,612,1,2023-04-03_17h21.57.068,Occlusion_Psychophysics,2022.1.4,Linux x86_64,60.0348202,,,right,"[""left""]",[1.0706999999993059],False,,0.0,0.0,69.0,69.0,69.0,1.0,,,,,,
,,,,,,,,,,,,,,,,,,,,,0.025,,,,,,,,,,Stimuli/psy_fixed_rotation_30_objects_occ0.7_0.9s/images/train/n02818832_3/n02933112_4/img_b05_ccm_contemporary_bed_max2013_buffet_2001_gray.jpg,n02818832_3,n02933112_4,fixed,0.747691,n02933112_-18,Stimuli/psy_fixed_rotation_30_objects_occ0.7_0.9s/images/train/n04070727_3/n02933112_-18/img_b05_db_apps_tech_06_02_2_composite_cgaxis_models_48_26_vray_composite_2009-3_gray.png,random,fixed,n02818832_3,n04405907_5,Stimuli/canonical view 2/img_n02818832_3_gray.jpg,Stimuli/canonical view 2/img_n04405907_5_gray.jpg,random,right,Experiments/experiment_37/280.jpg,Experiments/experiment_37/281.jpg,Experiments/experiment_37/282.jpg,Experiments/experiment_37/283.jpg,612,1,2023-04-03_17h21.57.068,Occlusion_Psychophysics,2022.1.4,Linux x86_64,60.0348202,,,left,"[""left""]",[1.2384999999999309],False,,0.0,0.0,70.0,70.0,70.0,1.0,,,,,,
,,,,,,,,,,,,,,,,,,,,,0.025,,,,,,,,,,Stimuli/psy_flexible_rotation_30_objects_occ0.7_0.9s/images/train/n04379243_8/n02828884_4/img_glass_table_b05_c-5_classic_series_bench-2012_2010_gray.jpg,n04379243_8,n02828884_4,flexible,0.711199,n02828884_4,Stimuli/psy_flexible_rotation_30_objects_occ0.7_0.9s/images/train/n04379243_8/n02828884_4/img_glass_table_b05_c-5_classic_series_bench-2012_2010-3_gray.png,foreground,same as foreground,n04379243_8,n02828884_4,Stimuli/canonical view 2/img_n04379243_8_gray.jpg,Stimuli/canonical view 2/img_n02828884_4_gray.jpg,foreground,right,Experiments/experiment_37/284.jpg,Experiments/experiment_37/285.jpg,Experiments/experiment_37/286.jpg,Experiments/experiment_37/287.jpg,612,1,2023-04-03_17h21.57.068,Occlusion_Psychophysics,2022.1.4,Linux x86_64,60.0348202,,,right,"[""right""]",[0.8742000000002008],False,,0.0,0.0,71.0,71.0,71.0,1.0,,,,,,
,,,,,,,,,,,,,,,,,,,,,0.025,,,,,,,,,,Stimuli/psy_flexible_rotation_30_objects_occ0.7_0.9s/images/train/n04379243_8/n02883344_-1/img_glass_table_woven_box_2010_gray.jpg,n04379243_8,n02883344_-1,flexible,0.805572,n02883344_-1,Stimuli/psy_flexible_rotation_30_objects_occ0.7_0.9s/images/train/n04379243_8/n02883344_-1/img_glass_table_woven_box_2010-3_gray.png,foreground,same as foreground,n04379243_8,n02883344_-1,Stimuli/canonical view 2/img_n04379243_8_gray.jpg,Stimuli/canonical view 2/img_n02883344_-1_gray.jpg,foreground,right,Experiments/experiment_37/288.jpg,Experiments/experiment_37/289.jpg,Experiments/experiment_37/290.jpg,Experiments/experiment_37/291.jpg,612,1,2023-04-03_17h21.57.068,Occlusion_Psychophysics,2022.1.4,Linux x86_64,60.0348202,,,left,"[""left""]",[0.9367000000002008],False,,0.0,0.0,72.0,72.0,72.0,1.0,,,,,,
,,,,,,,,,,,,,,,,,,,,,0.025,,,,,,,,,,Stimuli/psy_fixed_rotation_30_objects_occ0.7_0.9s/images/train/n02933112_-2/n02818832_0/img_sink_base_white_wood_b03_the_sofa_and_chair_company_-_stanley_bed_2014_2014_gray.jpg,n02933112_-2,n02818832_0,fixed,0.798193,n03928116_0,Stimuli/psy_fixed_rotation_30_objects_occ0.7_0.9s/images/train/n02828884_4/n03928116_0/img_b05_c-5_classic_series_bench-2012_b02_piano_2005-3_gray.png,random,fixed,n02933112_-2,n02818832_0,Stimuli/canonical view 2/img_n02933112_-2_gray.jpg,Stimuli/canonical view 2/img_n02818832_0_gray.jpg,foreground,right,Experiments/experiment_37/292.jpg,Experiments/experiment_37/293.jpg,Experiments/experiment_37/294.jpg,Experiments/experiment_37/295.jpg,612,1,2023-04-03_17h21.57.068,Occlusion_Psychophysics,2022.1.4,Linux x86_64,60.0348202,,,left,"[""left""]",[0.8888999999994667],False,,0.0,0.0,73.0,73.0,73.0,1.0,,,,,,
,,,,,,,,,,,,,,,,,,,,,0.05,,,,,,,,,,Stimuli/psy_fixed_rotation_30_objects_occ0.7_0.9s/images/train/n02818832_0/n02828884_3/img_b03_the_sofa_and_chair_company_-_stanley_bed_2014_b04_wood_metal_park_bench_2007_gray.jpg,n02818832_0,n02828884_3,fixed,0.741188,n02828884_3,Stimuli/psy_fixed_rotation_30_objects_occ0.7_0.9s/images/train/n02818832_0/n02828884_3/img_b03_the_sofa_and_chair_company_-_stanley_bed_2014_b04_wood_metal_park_bench_2007-3_gray.png,foreground,same as foreground,n02818832_0,n02828884_3,Stimuli/canonical view 2/img_n02818832_0_gray.jpg,Stimuli/canonical view 2/img_n02828884_3_gray.jpg,foreground,right,Experiments/experiment_37/296.jpg,Experiments/experiment_37/297.jpg,Experiments/experiment_37/298.jpg,Experiments/experiment_37/299.jpg,612,1,2023-04-03_17h21.57.068,Occlusion_Psychophysics,2022.1.4,Linux x86_64,60.0348202,,,left,"[""right""]",[1.3387999999998783],True,left,1.0,0.0,74.0,74.0,74.0,1.0,0.8649,,,,,
,,,,,,,,,,,,,,,,,,,,,0.05,,,,,,,,,,Stimuli/psy_flexible_rotation_30_objects_occ0.7_0.9s/images/train/n02828884_3/n02933112_-2/img_b04_wood_metal_park_bench_sink_base_white_wood_2002_gray.jpg,n02828884_3,n02933112_-2,flexible,0.73452,n02828884_3,Stimuli/psy_fixed_rotation_30_objects_occ0.7_0.9s/images/train/n02818832_9/n02828884_3/img_bed01_blue_b04_wood_metal_park_bench_2003-3_gray.png,random,fixed,n02828884_3,n02933112_-2,Stimuli/canonical view 2/img_n02828884_3_gray.jpg,Stimuli/canonical view 2/img_n02933112_-2_gray.jpg,foreground,right,Experiments/experiment_37/300.jpg,Experiments/experiment_37/301.jpg,Experiments/experiment_37/302.jpg,Experiments/experiment_37/303.jpg,612,1,2023-04-03_17h21.57.068,Occlusion_Psychophysics,2022.1.4,Linux x86_64,60.0348202,,,left,"[""right""]",[1.29200000000003],False,,0.0,0.0,75.0,75.0,75.0,1.0,,,,,,
,,,,,,,,,,,,,,,,,,,,,0.05,,,,,,,,,,Stimuli/psy_fixed_rotation_30_objects_occ0.7_0.9s/images/train/n02818832_9/n04379243_-7/img_bed01_blue_quatre_dining_table_2001_gray.jpg,n02818832_9,n04379243_-7,fixed,0.764016,n04379243_-7,Stimuli/psy_fixed_rotation_30_objects_occ0.7_0.9s/images/train/n02818832_9/n04379243_-7/img_bed01_blue_quatre_dining_table_2001-3_gray.png,foreground,same as foreground,n02818832_9,n04379243_-7,Stimuli/canonical view 2/img_n02818832_9_gray.jpg,Stimuli/canonical view 2/img_n04379243_-7_gray.jpg,foreground,left,Experiments/experiment_37/304.jpg,Experiments/experiment_37/305.jpg,Experiments/experiment_37/306.jpg,Experiments/experiment_37/307.jpg,612,1,2023-04-03_17h21.57.068,Occlusion_Psychophysics,2022.1.4,Linux x86_64,60.0348202,,,left,"[""right""]",[1.190100000000598],False,,0.0,0.0,76.0,76.0,76.0,1.0,,,,,,
,,,,,,,,,,,,,,,,,,,,,0.05,,,,,,,,,,Stimuli/psy_fixed_rotation_30_objects_occ0.7_0.9s/images/train/n02933112_-18/n04405907_8/img_cgaxis_models_48_26_vray_composite_stylized_tv_2010_gray.jpg,n02933112_-18,n04405907_8,fixed,0.772504,n04405907_8,Stimuli/psy_fixed_rotation_30_objects_occ0.7_0.9s/images/train/n02933112_-18/n04405907_8/img_cgaxis_models_48_26_vray_composite_stylized_tv_2010-3_gray.png,foreground,same as foreground,n02933112_-18,n04405907_8,Stimuli/canonical view 2/img_n02933112_-18_gray.jpg,Stimuli/canonical view 2/img_n04405907_8_gray.jpg,foreground,right,Experiments/experiment_37/308.jpg,Experiments/experiment_37/309.jpg,Experiments/experiment_37/310.jpg,Experiments/experiment_37/311.jpg,612,1,2023-04-03_17h21.57.068,Occlusion_Psychophysics,2022.1.4,Linux x86_64,60.0348202,,,left,"[""left""]",[1.4393000000007987],False,,0.0,0.0,77.0,77.0,77.0,1.0,,,,,,
,,,,,,,,,,,,,,,,,,,,,0.025,,,,,,,,,,Stimuli/psy_fixed_rotation_30_objects_occ0.7_0.9s/images/train/n02818832_0/n04405907_8/img_b03_the_sofa_and_chair_company_-_stanley_bed_2014_stylized_tv_2007_gray.jpg,n02818832_0,n04405907_8,fixed,0.892721,n02818832_0,Stimuli/psy_flexible_rotation_30_objects_occ0.7_0.9s/images/train/n02828884_3/n02818832_0/img_b04_wood_metal_park_bench_b03_the_sofa_and_chair_company_-_stanley_bed_2014_2001-3_gray.png,random,flexible,n02818832_0,n02818832_9,Stimuli/canonical view 2/img_n02818832_0_gray.jpg,Stimuli/canonical view 2/img_n02818832_9_gray.jpg,random,right,Experiments/experiment_37/312.jpg,Experiments/experiment_37/313.jpg,Experiments/experiment_37/314.jpg,Experiments/experiment_37/315.jpg,612,1,2023-04-03_17h21.57.068,Occlusion_Psychophysics,2022.1.4,Linux x86_64,60.0348202,,,right,"[""right""]",[1.5731000000005224],False,,0.0,0.0,78.0,78.0,78.0,1.0,,,,,,
,,,,,,,,,,,,,,,,,,,,,0.05,,,,,,,,,,Stimuli/psy_fixed_rotation_30_objects_occ0.7_0.9s/images/train/n02933112_-2/n02818832_3/img_sink_base_white_wood_b05_ccm_contemporary_bed_max2013_2009_gray.jpg,n02933112_-2,n02818832_3,fixed,0.73873,n02883344_-1,Stimuli/psy_flexible_rotation_30_objects_occ0.7_0.9s/images/train/n04379243_0/n02883344_-1/img_17th_c._monastery_dining_table_2010_woven_box_2008-3_gray.png,random,flexible,n02933112_-2,n04405907_9,Stimuli/canonical view 2/img_n02933112_-2_gray.jpg,Stimuli/canonical view 2/img_n04405907_9_gray.jpg,random,right,Experiments/experiment_37/316.jpg,Experiments/experiment_37/317.jpg,Experiments/experiment_37/318.jpg,Experiments/experiment_37/319.jpg,612,1,2023-04-03_17h21.57.068,Occlusion_Psychophysics,2022.1.4,Linux x86_64,60.0348202,,,left,"[""left""]",[1.1061999999992622],False,,0.0,0.0,79.0,79.0,79.0,1.0,,,,,,
,,,,,,,,,,,,,,,,,,,,,0.025,,,,,,,,,,Stimuli/psy_flexible_rotation_30_objects_occ0.7_0.9s/images/train/n04256520_4/n02883344_0/img_club_house_italia_nautilus_sofa_b03_box_2011_gray.jpg,n04256520_4,n02883344_0,flexible,0.74829,n04379243_-7,Stimuli/psy_fixed_rotation_30_objects_occ0.7_0.9s/images/train/n04256520_5/n04379243_-7/img_meridiani_belmondo_bench_sofa_quatre_dining_table_2009-3_gray.png,random,fixed,n04256520_4,n02883344_0,Stimuli/canonical view 2/img_n04256520_4_gray.jpg,Stimuli/canonical view 2/img_n02883344_0_gray.jpg,foreground,right,Experiments/experiment_37/320.jpg,Experiments/experiment_37/321.jpg,Experiments/experiment_37/322.jpg,Experiments/experiment_37/323.jpg,612,1,2023-04-03_17h21.57.068,Occlusion_Psychophysics,2022.1.4,Linux x86_64,60.0348202,,,right,"[""right""]",[1.3064000000003944],False,,0.0,0.0,80.0,80.0,80.0,1.0,,,,,,
,,,,,,,,,,,,,,,,,,,,,0.025,,,,,,,,,,Stimuli/psy_flexible_rotation_30_objects_occ0.7_0.9s/images/train/n02933112_4/n04379243_-7/img_buffet_quatre_dining_table_2015_gray.jpg,n02933112_4,n04379243_-7,flexible,0.774147,n02933112_-18,Stimuli/psy_fixed_rotation_30_objects_occ0.7_0.9s/images/train/n04405907_9/n02933112_-18/img_vray_004_cgaxis_models_48_26_vray_composite_2004-3_gray.png,random,fixed,n02933112_4,n04379243_-7,Stimuli/canonical view 2/img_n02933112_4_gray.jpg,Stimuli/canonical view 2/img_n04379243_-7_gray.jpg,foreground,left,Experiments/experiment_37/324.jpg,Experiments/experiment_37/325.jpg,Experiments/experiment_37/326.jpg,Experiments/experiment_37/327.jpg,612,1,2023-04-03_17h21.57.068,Occlusion_Psychophysics,2022.1.4,Linux x86_64,60.0348202,,,left,"[""right""]",[1.3185999999996056],False,,0.0,0.0,81.0,81.0,81.0,1.0,,,,,,
,,,,,,,,,,,,,,,,,,,,,0.025,,,,,,,,,,Stimuli/psy_fixed_rotation_30_objects_occ0.7_0.9s/images/train/n04379243_-7/n04379243_8/img_quatre_dining_table_glass_table_2010_gray.jpg,n04379243_-7,n04379243_8,fixed,0.85343,n04379243_-7,Stimuli/psy_fixed_rotation_30_objects_occ0.7_0.9s/images/train/n02883344_-1/n04379243_-7/img_woven_box_quatre_dining_table_2008-3_gray.png,random,fixed,n04379243_-7,n04379243_8,Stimuli/canonical view 2/img_n04379243_-7_gray.jpg,Stimuli/canonical view 2/img_n04379243_8_gray.jpg,foreground,right,Experiments/experiment_37/328.jpg,Experiments/experiment_37/329.jpg,Experiments/experiment_37/330.jpg,Experiments/experiment_37/331.jpg,612,1,2023-04-03_17h21.57.068,Occlusion_Psychophysics,2022.1.4,Linux x86_64,60.0348202,,,left,"[""right""]",[1.555299999999761],False,,0.0,0.0,82.0,82.0,82.0,1.0,,,,,,
,,,,,,,,,,,,,,,,,,,,,0.05,,,,,,,,,,Stimuli/psy_fixed_rotation_30_objects_occ0.7_0.9s/images/train/n04379243_8/n03928116_10/img_glass_table_ydp_103_r_2012__vray_2011_gray.jpg,n04379243_8,n03928116_10,fixed,0.717233,n03928116_10,Stimuli/psy_fixed_rotation_30_objects_occ0.7_0.9s/images/train/n04379243_8/n03928116_10/img_glass_table_ydp_103_r_2012__vray_2011-3_gray.png,foreground,same as foreground,n04379243_8,n03928116_10,Stimuli/canonical view 2/img_n04379243_8_gray.jpg,Stimuli/canonical view 2/img_n03928116_10_gray.jpg,foreground,left,Experiments/experiment_37/332.jpg,Experiments/experiment_37/333.jpg,Experiments/experiment_37/334.jpg,Experiments/experiment_37/335.jpg,612,1,2023-04-03_17h21.57.068,Occlusion_Psychophysics,2022.1.4,Linux x86_64,60.0348202,,,right,"[""right""]",[0.6224000000003116],False,,0.0,0.0,83.0,83.0,83.0,1.0,,,,,,
,,,,,,,,,,,,,,,,,,,,,0.05,,,,,,,,,,Stimuli/psy_fixed_rotation_30_objects_occ0.7_0.9s/images/train/n04379243_-7/n02818832_0/img_quatre_dining_table_b03_the_sofa_and_chair_company_-_stanley_bed_2014_2008_gray.jpg,n04379243_-7,n02818832_0,fixed,0.823562,n03928116_0,Stimuli/psy_fixed_rotation_30_objects_occ0.7_0.9s/images/train/n04256520_5/n03928116_0/img_meridiani_belmondo_bench_sofa_b02_piano_2008-3_gray.png,random,fixed,n04379243_-7,n02818832_0,Stimuli/canonical view 2/img_n04379243_-7_gray.jpg,Stimuli/canonical view 2/img_n02818832_0_gray.jpg,foreground,right,Experiments/experiment_37/336.jpg,Experiments/experiment_37/337.jpg,Experiments/experiment_37/338.jpg,Experiments/experiment_37/339.jpg,612,1,2023-04-03_17h21.57.068,Occlusion_Psychophysics,2022.1.4,Linux x86_64,60.0348202,,,left,"[""left""]",[1.606999999999971],False,,0.0,0.0,84.0,84.0,84.0,1.0,,,,,,
,,,,,,,,,,,,,,,,,,,,,0.05,,,,,,,,,,Stimuli/psy_fixed_rotation_30_objects_occ0.7_0.9s/images/train/n02818832_9/n02818832_0/img_bed01_blue_b03_the_sofa_and_chair_company_-_stanley_bed_2014_2013_gray.jpg,n02818832_9,n02818832_0,fixed,0.70727,n02883344_-1,Stimuli/psy_fixed_rotation_30_objects_occ0.7_0.9s/images/train/n04379243_0/n02883344_-1/img_17th_c._monastery_dining_table_2010_woven_box_2002-3_gray.png,random,fixed,n02818832_9,n02933112_-18,Stimuli/canonical view 2/img_n02818832_9_gray.jpg,Stimuli/canonical view 2/img_n02933112_-18_gray.jpg,random,left,Experiments/experiment_37/340.jpg,Experiments/experiment_37/341.jpg,Experiments/experiment_37/342.jpg,Experiments/experiment_37/343.jpg,612,1,2023-04-03_17h21.57.068,Occlusion_Psychophysics,2022.1.4,Linux x86_64,60.0348202,,,left,"[""right""]",[1.766800000000785],False,,0.0,0.0,85.0,85.0,85.0,1.0,,,,,,
,,,,,,,,,,,,,,,,,,,,,0.025,,,,,,,,,,Stimuli/psy_fixed_rotation_30_objects_occ0.7_0.9s/images/train/n04256520_4/n03928116_0/img_club_house_italia_nautilus_sofa_b02_piano_2011_gray.jpg,n04256520_4,n03928116_0,fixed,0.753804,n03928116_0,Stimuli/psy_fixed_rotation_30_objects_occ0.7_0.9s/images/train/n04256520_4/n03928116_0/img_club_house_italia_nautilus_sofa_b02_piano_2011-3_gray.png,foreground,same as foreground,n04256520_4,n02818832_9,Stimuli/canonical view 2/img_n04256520_4_gray.jpg,Stimuli/canonical view 2/img_n02818832_9_gray.jpg,random,left,Experiments/experiment_37/344.jpg,Experiments/experiment_37/345.jpg,Experiments/experiment_37/346.jpg,Experiments/experiment_37/347.jpg,612,1,2023-04-03_17h21.57.068,Occlusion_Psychophysics,2022.1.4,Linux x86_64,60.0348202,,,right,"[""right""]",[1.5214000000003125],False,,0.0,0.0,86.0,86.0,86.0,1.0,,,,,,
,,,,,,,,,,,,,,,,,,,,,0.025,,,,,,,,,,Stimuli/psy_fixed_rotation_30_objects_occ0.7_0.9s/images/train/n02828884_3/n04405907_5/img_b04_wood_metal_park_bench_samsung_40_uhd_smart_tv_2011_2011_gray.jpg,n02828884_3,n04405907_5,fixed,0.856708,n02883344_15,Stimuli/psy_fixed_rotation_30_objects_occ0.7_0.9s/images/train/n04405907_8/n02883344_15/img_stylized_tv_microwave_box_2009-3_gray.png,random,fixed,n02828884_3,n02933112_4,Stimuli/canonical view 2/img_n02828884_3_gray.jpg,Stimuli/canonical view 2/img_n02933112_4_gray.jpg,random,right,Experiments/experiment_37/348.jpg,Experiments/experiment_37/349.jpg,Experiments/experiment_37/350.jpg,Experiments/experiment_37/351.jpg,612,1,2023-04-03_17h21.57.068,Occlusion_Psychophysics,2022.1.4,Linux x86_64,60.0348202,,,right,"[""right""]",[1.455899999999474],False,,0.0,0.0,87.0,87.0,87.0,1.0,,,,,,
,,,,,,,,,,,,,,,,,,,,,0.05,,,,,,,,,,Stimuli/psy_flexible_rotation_30_objects_occ0.7_0.9s/images/train/n03001627_8/n02883344_-1/img_chair_billiani_doll_woven_box_2001_gray.jpg,n03001627_8,n02883344_-1,flexible,0.716926,n02933112_4,Stimuli/psy_fixed_rotation_30_objects_occ0.7_0.9s/images/train/n02933112_-18/n02933112_4/img_cgaxis_models_48_26_vray_composite_buffet_2014-3_gray.png,random,fixed,n03001627_8,n02883344_-1,Stimuli/canonical view 2/img_n03001627_8_gray.jpg,Stimuli/canonical view 2/img_n02883344_-1_gray.jpg,foreground,left,Experiments/experiment_37/352.jpg,Experiments/experiment_37/353.jpg,Experiments/experiment_37/354.jpg,Experiments/experiment_37/355.jpg,612,1,2023-04-03_17h21.57.068,Occlusion_Psychophysics,2022.1.4,Linux x86_64,60.0348202,,,left,"[""left""]",[0.9384999999999764],False,,0.0,0.0,88.0,88.0,88.0,1.0,,,,,,
,,,,,,,,,,,,,,,,,,,,,0.05,,,,,,,,,,Stimuli/psy_flexible_rotation_30_objects_occ0.7_0.9s/images/train/n02818832_0/n02883344_-1/img_b03_the_sofa_and_chair_company_-_stanley_bed_2014_woven_box_2007_gray.jpg,n02818832_0,n02883344_-1,flexible,0.705882,n02933112_-2,Stimuli/psy_flexible_rotation_30_objects_occ0.7_0.9s/images/train/n04256520_5/n02933112_-2/img_meridiani_belmondo_bench_sofa_sink_base_white_wood_2002-3_gray.png,random,flexible,n02818832_0,n02883344_-1,Stimuli/canonical view 2/img_n02818832_0_gray.jpg,Stimuli/canonical view 2/img_n02883344_-1_gray.jpg,foreground,left,Experiments/experiment_37/356.jpg,Experiments/experiment_37/357.jpg,Experiments/experiment_37/358.jpg,Experiments/experiment_37/359.jpg,612,1,2023-04-03_17h21.57.068,Occlusion_Psychophysics,2022.1.4,Linux x86_64,60.0348202,,,right,"[""right""]",[1.5176000000005843],False,,0.0,0.0,89.0,89.0,89.0,1.0,,,,,,
,,,,,,,,,,,,,,,,,,,,,0.05,,,,,,,,,,Stimuli/psy_fixed_rotation_30_objects_occ0.7_0.9s/images/train/n04379243_8/n02883344_15/img_glass_table_microwave_box_2001_gray.jpg,n04379243_8,n02883344_15,fixed,0.754844,n03001627_8,Stimuli/psy_flexible_rotation_30_objects_occ0.7_0.9s/images/train/n04256520_5/n03001627_8/img_meridiani_belmondo_bench_sofa_chair_billiani_doll_2003-3_gray.png,random,flexible,n04379243_8,n02933112_-2,Stimuli/canonical view 2/img_n04379243_8_gray.jpg,Stimuli/canonical view 2/img_n02933112_-2_gray.jpg,random,left,Experiments/experiment_37/360.jpg,Experiments/experiment_37/361.jpg,Experiments/experiment_37/362.jpg,Experiments/experiment_37/363.jpg,612,1,2023-04-03_17h21.57.068,Occlusion_Psychophysics,2022.1.4,Linux x86_64,60.0348202,,,left,"[""left""]",[1.1884000000003425],False,,0.0,0.0,90.0,90.0,90.0,1.0,,,,,,
,,,,,,,,,,,,,,,,,,,,,0.025,,,,,,,,,,Stimuli/psy_flexible_rotation_30_objects_occ0.7_0.9s/images/train/n03928116_4/n03928116_10/img_dp_33_b_2013__vray_ydp_103_r_2012__vray_2014_gray.jpg,n03928116_4,n03928116_10,flexible,0.711046,n03928116_0,Stimuli/psy_flexible_rotation_30_objects_occ0.7_0.9s/images/train/n02818832_9/n03928116_0/img_bed01_blue_b02_piano_2008-3_gray.png,random,flexible,n03928116_4,n03928116_10,Stimuli/canonical view 2/img_n03928116_4_gray.jpg,Stimuli/canonical view 2/img_n03928116_10_gray.jpg,foreground,right,Experiments/experiment_37/364.jpg,Experiments/experiment_37/365.jpg,Experiments/experiment_37/366.jpg,Experiments/experiment_37/367.jpg,612,1,2023-04-03_17h21.57.068,Occlusion_Psychophysics,2022.1.4,Linux x86_64,60.0348202,,,right,"[""right""]",[1.4242999999997892],False,,0.0,0.0,91.0,91.0,91.0,1.0,,,,,,
,,,,,,,,,,,,,,,,,,,,,0.025,,,,,,,,,,Stimuli/psy_flexible_rotation_30_objects_occ0.7_0.9s/images/train/n04256520_9/n03928116_10/img_napoleon_iii_sofa_ydp_103_r_2012__vray_2005_gray.jpg,n04256520_9,n03928116_10,flexible,0.800678,n04256520_5,Stimuli/psy_fixed_rotation_30_objects_occ0.7_0.9s/images/train/n04379243_-7/n04256520_5/img_quatre_dining_table_meridiani_belmondo_bench_sofa_2015-3_gray.png,random,fixed,n04256520_9,n04379243_-7,Stimuli/canonical view 2/img_n04256520_9_gray.jpg,Stimuli/canonical view 2/img_n04379243_-7_gray.jpg,random,right,Experiments/experiment_37/368.jpg,Experiments/experiment_37/369.jpg,Experiments/experiment_37/370.jpg,Experiments/experiment_37/371.jpg,612,1,2023-04-03_17h21.57.068,Occlusion_Psychophysics,2022.1.4,Linux x86_64,60.0348202,,,right,"[""left""]",[1.0907999999997173],False,,0.0,0.0,92.0,92.0,92.0,1.0,,,,,,
,,,,,,,,,,,,,,,,,,,,,0.05,,,,,,,,,,Stimuli/psy_flexible_rotation_30_objects_occ0.7_0.9s/images/train/n04405907_8/n03001627_8/img_stylized_tv_chair_billiani_doll_2008_gray.jpg,n04405907_8,n03001627_8,flexible,0.734301,n04379243_-7,Stimuli/psy_flexible_rotation_30_objects_occ0.7_0.9s/images/train/n04070727_3/n04379243_-7/img_b05_db_apps_tech_06_02_2_composite_quatre_dining_table_2001-3_gray.png,random,flexible,n04405907_8,n03001627_8,Stimuli/canonical view 2/img_n04405907_8_gray.jpg,Stimuli/canonical view 2/img_n03001627_8_gray.jpg,foreground,left,Experiments/experiment_37/372.jpg,Experiments/experiment_37/373.jpg,Experiments/experiment_37/374.jpg,Experiments/experiment_37/375.jpg,612,1,2023-04-03_17h21.57.068,Occlusion_Psychophysics,2022.1.4,Linux x86_64,60.0348202,,,right,"[""left""]",[0.9739999999999327],False,,0.0,0.0,93.0,93.0,93.0,1.0,,,,,,
,,,,,,,,,,,,,,,,,,,,,0.025,,,,,,,,,,Stimuli/psy_fixed_rotation_30_objects_occ0.7_0.9s/images/train/n02828884_9/n02933112_-2/img_cr-96_bench_sink_base_white_wood_2011_gray.jpg,n02828884_9,n02933112_-2,fixed,0.72253,n02818832_0,Stimuli/psy_flexible_rotation_30_objects_occ0.7_0.9s/images/train/n04379243_8/n02818832_0/img_glass_table_b03_the_sofa_and_chair_company_-_stanley_bed_2014_2007-3_gray.png,random,flexible,n02828884_9,n02933112_-2,Stimuli/canonical view 2/img_n02828884_9_gray.jpg,Stimuli/canonical view 2/img_n02933112_-2_gray.jpg,foreground,right,Experiments/experiment_37/376.jpg,Experiments/experiment_37/377.jpg,Experiments/experiment_37/378.jpg,Experiments/experiment_37/379.jpg,612,1,2023-04-03_17h21.57.068,Occlusion_Psychophysics,2022.1.4,Linux x86_64,60.0348202,,,right,"[""right""]",[0.9075999999996611],False,,0.0,0.0,94.0,94.0,94.0,1.0,,,,,,
,,,,,,,,,,,,,,,,,,,,,0.05,,,,,,,,,,Stimuli/psy_fixed_rotation_30_objects_occ0.7_0.9s/images/train/n04379243_8/n02818832_9/img_glass_table_bed01_blue_2002_gray.jpg,n04379243_8,n02818832_9,fixed,0.77989,n02933112_-2,Stimuli/psy_fixed_rotation_30_objects_occ0.7_0.9s/images/train/n04070727_5/n02933112_-2/img_b05_db_apps_tech_06_13_composite_sink_base_white_wood_2002-3_gray.png,random,fixed,n04379243_8,n03928116_10,Stimuli/canonical view 2/img_n04379243_8_gray.jpg,Stimuli/canonical view 2/img_n03928116_10_gray.jpg,random,left,Experiments/experiment_37/380.jpg,Experiments/experiment_37/381.jpg,Experiments/experiment_37/382.jpg,Experiments/experiment_37/383.jpg,612,1,2023-04-03_17h21.57.068,Occlusion_Psychophysics,2022.1.4,Linux x86_64,60.0348202,,,left,"[""left""]",[0.8399999999999181],False,,0.0,0.0,95.0,95.0,95.0,1.0,,,,,,
,,,,,,,,,,,,,,,,,,,,,0.05,,,,,,,,,,Stimuli/psy_flexible_rotation_30_objects_occ0.7_0.9s/images/train/n04379243_-7/n04256520_5/img_quatre_dining_table_meridiani_belmondo_bench_sofa_2002_gray.jpg,n04379243_-7,n04256520_5,flexible,0.817171,n02883344_15,Stimuli/psy_fixed_rotation_30_objects_occ0.7_0.9s/images/train/n02828884_4/n02883344_15/img_b05_c-5_classic_series_bench-2012_microwave_box_2005-3_gray.png,random,fixed,n04379243_-7,n03928116_0,Stimuli/canonical view 2/img_n04379243_-7_gray.jpg,Stimuli/canonical view 2/img_n03928116_0_gray.jpg,random,left,Experiments/experiment_37/384.jpg,Experiments/experiment_37/385.jpg,Experiments/experiment_37/386.jpg,Experiments/experiment_37/387.jpg,612,1,2023-04-03_17h21.57.068,Occlusion_Psychophysics,2022.1.4,Linux x86_64,60.0348202,,,left,"[""left""]",[0.832400000000348],False,,0.0,0.0,96.0,96.0,96.0,1.0,,,,,,
,,,,,,,,,,,,,,,,,,,,,0.05,,,,,,,,,,Stimuli/psy_flexible_rotation_30_objects_occ0.7_0.9s/images/train/n02818832_9/n04379243_-7/img_bed01_blue_quatre_dining_table_2012_gray.jpg,n02818832_9,n04379243_-7,flexible,0.775416,n04379243_-7,Stimuli/psy_flexible_rotation_30_objects_occ0.7_0.9s/images/train/n02818832_9/n04379243_-7/img_bed01_blue_quatre_dining_table_2012-3_gray.png,foreground,same as foreground,n02818832_9,n02828884_4,Stimuli/canonical view 2/img_n02818832_9_gray.jpg,Stimuli/canonical view 2/img_n02828884_4_gray.jpg,random,left,Experiments/experiment_37/388.jpg,Experiments/experiment_37/389.jpg,Experiments/experiment_37/390.jpg,Experiments/experiment_37/391.jpg,612,1,2023-04-03_17h21.57.068,Occlusion_Psychophysics,2022.1.4,Linux x86_64,60.0348202,,,left,"[""right""]",[1.2095000000000482],False,,0.0,0.0,97.0,97.0,97.0,1.0,,,,,,
,,,,,,,,,,,,,,,,,,,,,0.05,,,,,,,,,,Stimuli/psy_fixed_rotation_30_objects_occ0.7_0.9s/images/train/n02818832_9/n02818832_0/img_bed01_blue_b03_the_sofa_and_chair_company_-_stanley_bed_2014_2014_gray.jpg,n02818832_9,n02818832_0,fixed,0.784484,n04405907_9,Stimuli/psy_fixed_rotation_30_objects_occ0.7_0.9s/images/train/n04405907_5/n04405907_9/img_samsung_40_uhd_smart_tv_2011_vray_004_2002-3_gray.png,random,fixed,n02818832_9,n04256520_4,Stimuli/canonical view 2/img_n02818832_9_gray.jpg,Stimuli/canonical view 2/img_n04256520_4_gray.jpg,random,left,Experiments/experiment_37/392.jpg,Experiments/experiment_37/393.jpg,Experiments/experiment_37/394.jpg,Experiments/experiment_37/395.jpg,612,1,2023-04-03_17h21.57.068,Occlusion_Psychophysics,2022.1.4,Linux x86_64,60.0348202,,,left,"[""right""]",[1.2571000000006052],False,,0.0,0.0,98.0,98.0,98.0,1.0,,,,,,
,,,,,,,,,,,,,,,,,,,,,0.025,,,,,,,,,,Stimuli/psy_flexible_rotation_30_objects_occ0.7_0.9s/images/train/n04379243_-7/n02828884_4/img_quatre_dining_table_b05_c-5_classic_series_bench-2012_2002_gray.jpg,n04379243_-7,n02828884_4,flexible,0.790351,n02828884_4,Stimuli/psy_flexible_rotation_30_objects_occ0.7_0.9s/images/train/n04379243_-7/n02828884_4/img_quatre_dining_table_b05_c-5_classic_series_bench-2012_2002-3_gray.png,foreground,same as foreground,n04379243_-7,n02828884_4,Stimuli/canonical view 2/img_n04379243_-7_gray.jpg,Stimuli/canonical view 2/img_n02828884_4_gray.jpg,foreground,right,Experiments/experiment_37/396.jpg,Experiments/experiment_37/397.jpg,Experiments/experiment_37/398.jpg,Experiments/experiment_37/399.jpg,612,1,2023-04-03_17h21.57.068,Occlusion_Psychophysics,2022.1.4,Linux x86_64,60.0348202,,,right,"[""left""]",[1.2638000000007423],True,right,1.0,0.0,99.0,99.0,99.0,1.0,0.7381,,,,,
,,,,,,,,,,,,,,,,,,,,,,,,,,,,,,,,,,,,,,,,,,,,,,,,,,612,1,2023-04-03_17h21.57.068,Occlusion_Psychophysics,2022.1.4,Linux x86_64,60.0348202,,,,,,,,,,,,,,,0.0,0.0,0.0,0.0,1.0
,,,,,,,,,,,,,,,,,,,,,0.05,,,,,,,,,,Stimuli/psy_flexible_rotation_30_objects_occ0.7_0.9s/images/train/n04379243_-7/n04256520_4/img_quatre_dining_table_club_house_italia_nautilus_sofa_2007_gray.jpg,n04379243_-7,n04256520_4,flexible,0.850392,n02883344_-1,Stimuli/psy_fixed_rotation_30_objects_occ0.7_0.9s/images/train/n03928116_10/n02883344_-1/img_ydp_103_r_2012__vray_woven_box_2000-3_gray.png,random,fixed,n04379243_-7,n04405907_8,Stimuli/canonical view 2/img_n04379243_-7_gray.jpg,Stimuli/canonical view 2/img_n04405907_8_gray.jpg,random,left,Experiments/experiment_37/400.jpg,Experiments/experiment_37/401.jpg,Experiments/experiment_37/402.jpg,Experiments/experiment_37/403.jpg,612,1,2023-04-03_17h21.57.068,Occlusion_Psychophysics,2022.1.4,Linux x86_64,60.0348202,,,right,"[""right""]",[1.2897000000001526],False,,0.0,0.0,0.0,0.0,0.0,1.0,,,,,,
,,,,,,,,,,,,,,,,,,,,,0.025,,,,,,,,,,Stimuli/psy_flexible_rotation_30_objects_occ0.7_0.9s/images/train/n03001627_8/n03928116_0/img_chair_billiani_doll_b02_piano_2015_gray.jpg,n03001627_8,n03928116_0,flexible,0.72842,n04379243_-7,Stimuli/psy_flexible_rotation_30_objects_occ0.7_0.9s/images/train/n04070727_3/n04379243_-7/img_b05_db_apps_tech_06_02_2_composite_quatre_dining_table_2008-3_gray.png,random,flexible,n03001627_8,n03928116_0,Stimuli/canonical view 2/img_n03001627_8_gray.jpg,Stimuli/canonical view 2/img_n03928116_0_gray.jpg,foreground,right,Experiments/experiment_37/404.jpg,Experiments/experiment_37/405.jpg,Experiments/experiment_37/406.jpg,Experiments/experiment_37/407.jpg,612,1,2023-04-03_17h21.57.068,Occlusion_Psychophysics,2022.1.4,Linux x86_64,60.0348202,,,right,"[""right""]",[1.3397000000001071],False,,0.0,0.0,1.0,1.0,1.0,1.0,,,,,,
,,,,,,,,,,,,,,,,,,,,,0.05,,,,,,,,,,Stimuli/psy_fixed_rotation_30_objects_occ0.7_0.9s/images/train/n02933112_-2/n04256520_5/img_sink_base_white_wood_meridiani_belmondo_bench_sofa_2009_gray.jpg,n02933112_-2,n04256520_5,fixed,0.705609,n04256520_5,Stimuli/psy_fixed_rotation_30_objects_occ0.7_0.9s/images/train/n02933112_-2/n04256520_5/img_sink_base_white_wood_meridiani_belmondo_bench_sofa_2009-3_gray.png,foreground,same as foreground,n02933112_-2,n04379243_8,Stimuli/canonical view 2/img_n02933112_-2_gray.jpg,Stimuli/canonical view 2/img_n04379243_8_gray.jpg,random,left,Experiments/experiment_37/408.jpg,Experiments/experiment_37/409.jpg,Experiments/experiment_37/410.jpg,Experiments/experiment_37/411.jpg,612,1,2023-04-03_17h21.57.068,Occlusion_Psychophysics,2022.1.4,Linux x86_64,60.0348202,,,right,"[""left""]",[0.8745000000000118],False,,0.0,0.0,2.0,2.0,2.0,1.0,,,,,,
,,,,,,,,,,,,,,,,,,,,,0.05,,,,,,,,,,Stimuli/psy_fixed_rotation_30_objects_occ0.7_0.9s/images/train/n03928116_0/n04405907_8/img_b02_piano_stylized_tv_2003_gray.jpg,n03928116_0,n04405907_8,fixed,0.848101,n02883344_0,Stimuli/psy_fixed_rotation_30_objects_occ0.7_0.9s/images/train/n03001627_8/n02883344_0/img_chair_billiani_doll_b03_box_2001-3_gray.png,random,fixed,n03928116_0,n02933112_-18,Stimuli/canonical view 2/img_n03928116_0_gray.jpg,Stimuli/canonical view 2/img_n02933112_-18_gray.jpg,random,right,Experiments/experiment_37/412.jpg,Experiments/experiment_37/413.jpg,Experiments/experiment_37/414.jpg,Experiments/experiment_37/415.jpg,612,1,2023-04-03_17h21.57.068,Occlusion_Psychophysics,2022.1.4,Linux x86_64,60.0348202,,,right,"[""left""]",[1.5615000000000236],False,,0.0,0.0,3.0,3.0,3.0,1.0,,,,,,
,,,,,,,,,,,,,,,,,,,,,0.05,,,,,,,,,,Stimuli/psy_flexible_rotation_30_objects_occ0.7_0.9s/images/train/n02933112_-2/n03928116_0/img_sink_base_white_wood_b02_piano_2002_gray.jpg,n02933112_-2,n03928116_0,flexible,0.72785,n03928116_10,Stimuli/psy_flexible_rotation_30_objects_occ0.7_0.9s/images/train/n02828884_3/n03928116_10/img_b04_wood_metal_park_bench_ydp_103_r_2012__vray_2014-3_gray.png,random,flexible,n02933112_-2,n03928116_0,Stimuli/canonical view 2/img_n02933112_-2_gray.jpg,Stimuli/canonical view 2/img_n03928116_0_gray.jpg,foreground,left,Experiments/experiment_37/416.jpg,Experiments/experiment_37/417.jpg,Experiments/experiment_37/418.jpg,Experiments/experiment_37/419.jpg,612,1,2023-04-03_17h21.57.068,Occlusion_Psychophysics,2022.1.4,Linux x86_64,60.0348202,,,left,"[""left""]",[1.1901999999993222],False,,0.0,0.0,4.0,4.0,4.0,1.0,,,,,,
,,,,,,,,,,,,,,,,,,,,,0.025,,,,,,,,,,Stimuli/psy_flexible_rotation_30_objects_occ0.7_0.9s/images/train/n04379243_8/n03928116_4/img_glass_table_dp_33_b_2013__vray_2011_gray.jpg,n04379243_8,n03928116_4,flexible,0.700601,n03928116_4,Stimuli/psy_flexible_rotation_30_objects_occ0.7_0.9s/images/train/n04379243_8/n03928116_4/img_glass_table_dp_33_b_2013__vray_2011-3_gray.png,foreground,same as foreground,n04379243_8,n04256520_9,Stimuli/canonical view 2/img_n04379243_8_gray.jpg,Stimuli/canonical view 2/img_n04256520_9_gray.jpg,random,right,Experiments/experiment_37/420.jpg,Experiments/experiment_37/421.jpg,Experiments/experiment_37/422.jpg,Experiments/experiment_37/423.jpg,612,1,2023-04-03_17h21.57.068,Occlusion_Psychophysics,2022.1.4,Linux x86_64,60.0348202,,,left,"[""left""]",[0.9233999999994467],False,,0.0,0.0,5.0,5.0,5.0,1.0,,,,,,
,,,,,,,,,,,,,,,,,,,,,0.05,,,,,,,,,,Stimuli/psy_flexible_rotation_30_objects_occ0.7_0.9s/images/train/n02883344_-1/n02828884_3/img_woven_box_b04_wood_metal_park_bench_2007_gray.jpg,n02883344_-1,n02828884_3,flexible,0.807646,n02818832_3,Stimuli/psy_fixed_rotation_30_objects_occ0.7_0.9s/images/train/n03928116_0/n02818832_3/img_b02_piano_b05_ccm_contemporary_bed_max2013_2011-3_gray.png,random,fixed,n02883344_-1,n02828884_9,Stimuli/canonical view 2/img_n02883344_-1_gray.jpg,Stimuli/canonical view 2/img_n02828884_9_gray.jpg,random,left,Experiments/experiment_37/424.jpg,Experiments/experiment_37/425.jpg,Experiments/experiment_37/426.jpg,Experiments/experiment_37/427.jpg,612,1,2023-04-03_17h21.57.068,Occlusion_Psychophysics,2022.1.4,Linux x86_64,60.0348202,,,left,"[""right""]",[0.9162999999998647],False,,0.0,0.0,6.0,6.0,6.0,1.0,,,,,,
,,,,,,,,,,,,,,,,,,,,,0.025,,,,,,,,,,Stimuli/psy_flexible_rotation_30_objects_occ0.7_0.9s/images/train/n02933112_-2/n04405907_5/img_sink_base_white_wood_samsung_40_uhd_smart_tv_2011_2013_gray.jpg,n02933112_-2,n04405907_5,flexible,0.701718,n04405907_5,Stimuli/psy_flexible_rotation_30_objects_occ0.7_0.9s/images/train/n02933112_-2/n04405907_5/img_sink_base_white_wood_samsung_40_uhd_smart_tv_2011_2013-3_gray.png,foreground,same as foreground,n02933112_-2,n02818832_9,Stimuli/canonical view 2/img_n02933112_-2_gray.jpg,Stimuli/canonical view 2/img_n02818832_9_gray.jpg,random,right,Experiments/experiment_37/428.jpg,Experiments/experiment_37/429.jpg,Experiments/experiment_37/430.jpg,Experiments/experiment_37/431.jpg,612,1,2023-04-03_17h21.57.068,Occlusion_Psychophysics,2022.1.4,Linux x86_64,60.0348202,,,right,"[""right""]",[0.6522999999998547],False,,0.0,0.0,7.0,7.0,7.0,1.0,,,,,,
,,,,,,,,,,,,,,,,,,,,,0.025,,,,,,,,,,Stimuli/psy_flexible_rotation_30_objects_occ0.7_0.9s/images/train/n04405907_8/n02883344_15/img_stylized_tv_microwave_box_2011_gray.jpg,n04405907_8,n02883344_15,flexible,0.887286,n02933112_-18,Stimuli/psy_flexible_rotation_30_objects_occ0.7_0.9s/images/train/n03001627_9/n02933112_-18/img_chair_eames_plastic_armchair_cgaxis_models_48_26_vray_composite_2007-3_gray.png,random,flexible,n04405907_8,n02818832_9,Stimuli/canonical view 2/img_n04405907_8_gray.jpg,Stimuli/canonical view 2/img_n02818832_9_gray.jpg,random,left,Experiments/experiment_37/432.jpg,Experiments/experiment_37/433.jpg,Experiments/experiment_37/434.jpg,Experiments/experiment_37/435.jpg,612,1,2023-04-03_17h21.57.068,Occlusion_Psychophysics,2022.1.4,Linux x86_64,60.0348202,,,left,"[""right""]",[1.0735999999997148],False,,0.0,0.0,8.0,8.0,8.0,1.0,,,,,,
,,,,,,,,,,,,,,,,,,,,,0.025,,,,,,,,,,Stimuli/psy_flexible_rotation_30_objects_occ0.7_0.9s/images/train/n04379243_8/n02818832_9/img_glass_table_bed01_blue_2006_gray.jpg,n04379243_8,n02818832_9,flexible,0.829545,n04405907_9,Stimuli/psy_flexible_rotation_30_objects_occ0.7_0.9s/images/train/n04405907_8/n04405907_9/img_stylized_tv_vray_004_2009-3_gray.png,random,flexible,n04379243_8,n02818832_3,Stimuli/canonical view 2/img_n04379243_8_gray.jpg,Stimuli/canonical view 2/img_n02818832_3_gray.jpg,random,left,Experiments/experiment_37/436.jpg,Experiments/experiment_37/437.jpg,Experiments/experiment_37/438.jpg,Experiments/experiment_37/439.jpg,612,1,2023-04-03_17h21.57.068,Occlusion_Psychophysics,2022.1.4,Linux x86_64,60.0348202,,,left,"[""left""]",[0.8770999999997002],False,,0.0,0.0,9.0,9.0,9.0,1.0,,,,,,
