in_color,Instructions_key.keys,Instructions_key.rt,Tutorial_instruction_key.keys,Tutorial_instruction_key.rt,Tutorial_fixation_ley.keys,Tutorial_fixation_ley.rt,Tutorial_single_img_key.keys,Tutorial_single_img_key.rt,Tutorial_intra_trial_fixation_key.keys,Tutorial_intra_trial_fixation_key.rt,Tutorial_stimulus_key.keys,Tutorial_stimulus_key.rt,Tutorial_response_key.keys,Tutorial_response_key.rt,Tutorial_attention_check_key.keys,Tutorial_attention_check_key.rt,advance_or_repeat.keys,advance_or_repeat.rt,Practice_instructions_key.keys,Practice_instructions_key.rt,intra_trial_duration,Practice_key_response.keys,Practice_key_response.rt,Practice_react_key.keys,Practice_react_key.rt,Practice_loop.thisRepN,Practice_loop.thisTrialN,Practice_loop.thisN,Practice_loop.thisIndex,Practice_loop.ran,multi_object_filepath,background_id,foreground_id,multi_object_rotation,occlusion_level,single_object_id,single_object_filepath,single_is_foreground_or_random,single_object_rotation,background_choice_id,alt_choice_id,background_option_filepath,alternative_option_filepath,alternative_is_foreground_or_random,location_of_correct_answer,multi_object_exp_filename,single_object_exp_filename,background_option_exp_filename,alternative_option_exp_filename,participant,session,date,expName,psychopyVersion,OS,frameRate,Practice_end_key.keys,Practice_end_key.rt,correct_answer,Input_selection.keys,Input_selection.rt,Was_attention_check,Attention_check.keys,Attention_check.corr,Each_session_loop.thisRepN,Each_session_loop.thisTrialN,Each_session_loop.thisN,Each_session_loop.thisIndex,Each_session_loop.ran,Attention_check.rt,Num_sessions.thisRepN,Num_sessions.thisTrialN,Num_sessions.thisN,Num_sessions.thisIndex,Num_sessions.ran
False,space,31.0459,space,3.2487,space,4.7524,space,3.4042,space,1.1509,space,13.6417,right,10.0429,right,7.3846,a,8.1188,right,4.3652,0.05,left,0.8173,a,4.6508,0.0,0.0,0.0,0.0,1.0,Stimuli/psy_fixed_rotation_30_objects_occ0.7_0.9s/images/train/n02828884_4/n04256520_9/img_b05_c-5_classic_series_bench-2012_napoleon_iii_sofa_2013_gray.jpg,n02828884_4,n04256520_9,fixed,0.716748,n04256520_9,Stimuli/psy_fixed_rotation_30_objects_occ0.7_0.9s/images/train/n02828884_4/n04256520_9/img_b05_c-5_classic_series_bench-2012_napoleon_iii_sofa_2013-3_gray.png,foreground,same as foreground,n02828884_4,n02883344_0,Stimuli/canonical view 2/img_n02828884_4_gray.jpg,Stimuli/canonical view 2/img_n02883344_0_gray.jpg,random,left,Experiments/experiment_14/1000.jpg,Experiments/experiment_14/1001.jpg,Experiments/experiment_14/1002.jpg,Experiments/experiment_14/1003.jpg,642,1,2023-04-17_17h02.06.656,Occlusion_Psychophysics,2022.1.4,Win32,60.15761295,,,,,,,,,,,,,,,,,,,
,,,,,,,,,,,,,,,,,,,,,0.05,,,,,,,,,,Stimuli/psy_flexible_rotation_30_objects_occ0.7_0.9s/images/train/n03928116_0/n04256520_4/img_b02_piano_club_house_italia_nautilus_sofa_2006_gray.jpg,n03928116_0,n04256520_4,flexible,0.807012,n03928116_4,Stimuli/psy_flexible_rotation_30_objects_occ0.7_0.9s/images/train/n04379243_8/n03928116_4/img_glass_table_dp_33_b_2013__vray_2005-3_gray.png,random,flexible,n03928116_0,n04256520_4,Stimuli/canonical view 2/img_n03928116_0_gray.jpg,Stimuli/canonical view 2/img_n04256520_4_gray.jpg,foreground,right,Experiments/experiment_14/0.jpg,Experiments/experiment_14/1.jpg,Experiments/experiment_14/2.jpg,Experiments/experiment_14/3.jpg,642,1,2023-04-17_17h02.06.656,Occlusion_Psychophysics,2022.1.4,Win32,60.15761295,space,2.0703,left,"[""left""]",[1.3479000000357928],False,,0.0,0.0,0.0,0.0,0.0,1.0,,,,,,
,,,,,,,,,,,,,,,,,,,,,0.025,,,,,,,,,,Stimuli/psy_flexible_rotation_30_objects_occ0.7_0.9s/images/train/n04256520_4/n02818832_0/img_club_house_italia_nautilus_sofa_b03_the_sofa_and_chair_company_-_stanley_bed_2014_2004_gray.jpg,n04256520_4,n02818832_0,flexible,0.747273,n02818832_0,Stimuli/psy_flexible_rotation_30_objects_occ0.7_0.9s/images/train/n04256520_4/n02818832_0/img_club_house_italia_nautilus_sofa_b03_the_sofa_and_chair_company_-_stanley_bed_2014_2004-3_gray.png,foreground,same as foreground,n04256520_4,n02883344_-1,Stimuli/canonical view 2/img_n04256520_4_gray.jpg,Stimuli/canonical view 2/img_n02883344_-1_gray.jpg,random,left,Experiments/experiment_14/4.jpg,Experiments/experiment_14/5.jpg,Experiments/experiment_14/6.jpg,Experiments/experiment_14/7.jpg,642,1,2023-04-17_17h02.06.656,Occlusion_Psychophysics,2022.1.4,Win32,60.15761295,,,left,"[""right""]",[1.13639999997622],True,right,1.0,0.0,1.0,1.0,1.0,1.0,2.6345,,,,,
,,,,,,,,,,,,,,,,,,,,,0.05,,,,,,,,,,Stimuli/psy_fixed_rotation_30_objects_occ0.7_0.9s/images/train/n02933112_-18/n02883344_-1/img_cgaxis_models_48_26_vray_composite_woven_box_2013_gray.jpg,n02933112_-18,n02883344_-1,fixed,0.747895,n02883344_-1,Stimuli/psy_fixed_rotation_30_objects_occ0.7_0.9s/images/train/n02933112_-18/n02883344_-1/img_cgaxis_models_48_26_vray_composite_woven_box_2013-3_gray.png,foreground,same as foreground,n02933112_-18,n02883344_-1,Stimuli/canonical view 2/img_n02933112_-18_gray.jpg,Stimuli/canonical view 2/img_n02883344_-1_gray.jpg,foreground,left,Experiments/experiment_14/8.jpg,Experiments/experiment_14/9.jpg,Experiments/experiment_14/10.jpg,Experiments/experiment_14/11.jpg,642,1,2023-04-17_17h02.06.656,Occlusion_Psychophysics,2022.1.4,Win32,60.15761295,,,right,"[""right""]",[1.4597000000477465],False,,0.0,0.0,2.0,2.0,2.0,1.0,,,,,,
,,,,,,,,,,,,,,,,,,,,,0.025,,,,,,,,,,Stimuli/psy_flexible_rotation_30_objects_occ0.7_0.9s/images/train/n02818832_9/n02828884_4/img_bed01_blue_b05_c-5_classic_series_bench-2012_2000_gray.jpg,n02818832_9,n02828884_4,flexible,0.761022,n02828884_4,Stimuli/psy_flexible_rotation_30_objects_occ0.7_0.9s/images/train/n02818832_9/n02828884_4/img_bed01_blue_b05_c-5_classic_series_bench-2012_2000-3_gray.png,foreground,same as foreground,n02818832_9,n02828884_4,Stimuli/canonical view 2/img_n02818832_9_gray.jpg,Stimuli/canonical view 2/img_n02828884_4_gray.jpg,foreground,left,Experiments/experiment_14/12.jpg,Experiments/experiment_14/13.jpg,Experiments/experiment_14/14.jpg,Experiments/experiment_14/15.jpg,642,1,2023-04-17_17h02.06.656,Occlusion_Psychophysics,2022.1.4,Win32,60.15761295,,,left,"[""left""]",[0.9078000000118891],False,,0.0,0.0,3.0,3.0,3.0,1.0,,,,,,
,,,,,,,,,,,,,,,,,,,,,0.05,,,,,,,,,,Stimuli/psy_fixed_rotation_30_objects_occ0.7_0.9s/images/train/n04379243_-7/n04256520_4/img_quatre_dining_table_club_house_italia_nautilus_sofa_2011_gray.jpg,n04379243_-7,n04256520_4,fixed,0.854167,n04256520_4,Stimuli/psy_fixed_rotation_30_objects_occ0.7_0.9s/images/train/n04379243_-7/n04256520_4/img_quatre_dining_table_club_house_italia_nautilus_sofa_2011-3_gray.png,foreground,same as foreground,n04379243_-7,n04256520_4,Stimuli/canonical view 2/img_n04379243_-7_gray.jpg,Stimuli/canonical view 2/img_n04256520_4_gray.jpg,foreground,right,Experiments/experiment_14/16.jpg,Experiments/experiment_14/17.jpg,Experiments/experiment_14/18.jpg,Experiments/experiment_14/19.jpg,642,1,2023-04-17_17h02.06.656,Occlusion_Psychophysics,2022.1.4,Win32,60.15761295,,,left,"[""right""]",[0.9363000000118973],False,,0.0,0.0,4.0,4.0,4.0,1.0,,,,,,
,,,,,,,,,,,,,,,,,,,,,0.05,,,,,,,,,,Stimuli/psy_fixed_rotation_30_objects_occ0.7_0.9s/images/train/n04256520_9/n04405907_8/img_napoleon_iii_sofa_stylized_tv_2003_gray.jpg,n04256520_9,n04405907_8,fixed,0.756381,n03928116_0,Stimuli/psy_fixed_rotation_30_objects_occ0.7_0.9s/images/train/n02883344_0/n03928116_0/img_b03_box_b02_piano_2007-3_gray.png,random,fixed,n04256520_9,n04405907_8,Stimuli/canonical view 2/img_n04256520_9_gray.jpg,Stimuli/canonical view 2/img_n04405907_8_gray.jpg,foreground,left,Experiments/experiment_14/20.jpg,Experiments/experiment_14/21.jpg,Experiments/experiment_14/22.jpg,Experiments/experiment_14/23.jpg,642,1,2023-04-17_17h02.06.656,Occlusion_Psychophysics,2022.1.4,Win32,60.15761295,,,left,"[""right""]",[1.8726999999880718],True,right,1.0,0.0,5.0,5.0,5.0,1.0,0.7748,,,,,
,,,,,,,,,,,,,,,,,,,,,0.025,,,,,,,,,,Stimuli/psy_flexible_rotation_30_objects_occ0.7_0.9s/images/train/n02933112_-18/n04405907_9/img_cgaxis_models_48_26_vray_composite_vray_004_2004_gray.jpg,n02933112_-18,n04405907_9,flexible,0.759971,n02933112_-18,Stimuli/psy_flexible_rotation_30_objects_occ0.7_0.9s/images/train/n02828884_3/n02933112_-18/img_b04_wood_metal_park_bench_cgaxis_models_48_26_vray_composite_2011-3_gray.png,random,flexible,n02933112_-18,n04405907_9,Stimuli/canonical view 2/img_n02933112_-18_gray.jpg,Stimuli/canonical view 2/img_n04405907_9_gray.jpg,foreground,right,Experiments/experiment_14/24.jpg,Experiments/experiment_14/25.jpg,Experiments/experiment_14/26.jpg,Experiments/experiment_14/27.jpg,642,1,2023-04-17_17h02.06.656,Occlusion_Psychophysics,2022.1.4,Win32,60.15761295,,,left,"[""left""]",[1.01400000000001],False,,0.0,0.0,6.0,6.0,6.0,1.0,,,,,,
,,,,,,,,,,,,,,,,,,,,,0.025,,,,,,,,,,Stimuli/psy_flexible_rotation_30_objects_occ0.7_0.9s/images/train/n02933112_4/n02883344_0/img_buffet_b03_box_2015_gray.jpg,n02933112_4,n02883344_0,flexible,0.850763,n02883344_0,Stimuli/psy_flexible_rotation_30_objects_occ0.7_0.9s/images/train/n02933112_4/n02883344_0/img_buffet_b03_box_2015-3_gray.png,foreground,same as foreground,n02933112_4,n03001627_9,Stimuli/canonical view 2/img_n02933112_4_gray.jpg,Stimuli/canonical view 2/img_n03001627_9_gray.jpg,random,left,Experiments/experiment_14/28.jpg,Experiments/experiment_14/29.jpg,Experiments/experiment_14/30.jpg,Experiments/experiment_14/31.jpg,642,1,2023-04-17_17h02.06.656,Occlusion_Psychophysics,2022.1.4,Win32,60.15761295,,,right,"[""left""]",[0.898300000012],False,,0.0,0.0,7.0,7.0,7.0,1.0,,,,,,
,,,,,,,,,,,,,,,,,,,,,0.05,,,,,,,,,,Stimuli/psy_fixed_rotation_30_objects_occ0.7_0.9s/images/train/n03928116_0/n02818832_3/img_b02_piano_b05_ccm_contemporary_bed_max2013_2000_gray.jpg,n03928116_0,n02818832_3,fixed,0.864518,n02933112_-2,Stimuli/psy_flexible_rotation_30_objects_occ0.7_0.9s/images/train/n04256520_5/n02933112_-2/img_meridiani_belmondo_bench_sofa_sink_base_white_wood_2000-3_gray.png,random,flexible,n03928116_0,n02933112_-18,Stimuli/canonical view 2/img_n03928116_0_gray.jpg,Stimuli/canonical view 2/img_n02933112_-18_gray.jpg,random,right,Experiments/experiment_14/32.jpg,Experiments/experiment_14/33.jpg,Experiments/experiment_14/34.jpg,Experiments/experiment_14/35.jpg,642,1,2023-04-17_17h02.06.656,Occlusion_Psychophysics,2022.1.4,Win32,60.15761295,,,right,"[""right""]",[1.0560999999642036],False,,0.0,0.0,8.0,8.0,8.0,1.0,,,,,,
,,,,,,,,,,,,,,,,,,,,,0.05,,,,,,,,,,Stimuli/psy_flexible_rotation_30_objects_occ0.7_0.9s/images/train/n04379243_0/n02883344_-1/img_17th_c._monastery_dining_table_2010_woven_box_2007_gray.jpg,n04379243_0,n02883344_-1,flexible,0.769999,n02883344_-1,Stimuli/psy_flexible_rotation_30_objects_occ0.7_0.9s/images/train/n04379243_0/n02883344_-1/img_17th_c._monastery_dining_table_2010_woven_box_2007-3_gray.png,foreground,same as foreground,n04379243_0,n04379243_-7,Stimuli/canonical view 2/img_n04379243_0_gray.jpg,Stimuli/canonical view 2/img_n04379243_-7_gray.jpg,random,left,Experiments/experiment_14/36.jpg,Experiments/experiment_14/37.jpg,Experiments/experiment_14/38.jpg,Experiments/experiment_14/39.jpg,642,1,2023-04-17_17h02.06.656,Occlusion_Psychophysics,2022.1.4,Win32,60.15761295,,,right,"[""right""]",[1.0911999999880209],False,,0.0,0.0,9.0,9.0,9.0,1.0,,,,,,
,,,,,,,,,,,,,,,,,,,,,0.05,,,,,,,,,,Stimuli/psy_fixed_rotation_30_objects_occ0.7_0.9s/images/train/n04405907_9/n02883344_0/img_vray_004_b03_box_2008_gray.jpg,n04405907_9,n02883344_0,fixed,0.705294,n02883344_0,Stimuli/psy_fixed_rotation_30_objects_occ0.7_0.9s/images/train/n04405907_9/n02883344_0/img_vray_004_b03_box_2008-3_gray.png,foreground,same as foreground,n04405907_9,n04379243_-7,Stimuli/canonical view 2/img_n04405907_9_gray.jpg,Stimuli/canonical view 2/img_n04379243_-7_gray.jpg,random,left,Experiments/experiment_14/40.jpg,Experiments/experiment_14/41.jpg,Experiments/experiment_14/42.jpg,Experiments/experiment_14/43.jpg,642,1,2023-04-17_17h02.06.656,Occlusion_Psychophysics,2022.1.4,Win32,60.15761295,,,left,"[""left""]",[1.370199999988131],False,,0.0,0.0,10.0,10.0,10.0,1.0,,,,,,
,,,,,,,,,,,,,,,,,,,,,0.05,,,,,,,,,,Stimuli/psy_flexible_rotation_30_objects_occ0.7_0.9s/images/train/n04256520_4/n02818832_9/img_club_house_italia_nautilus_sofa_bed01_blue_2009_gray.jpg,n04256520_4,n02818832_9,flexible,0.703083,n02818832_9,Stimuli/psy_flexible_rotation_30_objects_occ0.7_0.9s/images/train/n04256520_4/n02818832_9/img_club_house_italia_nautilus_sofa_bed01_blue_2009-3_gray.png,foreground,same as foreground,n04256520_4,n02818832_9,Stimuli/canonical view 2/img_n04256520_4_gray.jpg,Stimuli/canonical view 2/img_n02818832_9_gray.jpg,foreground,right,Experiments/experiment_14/44.jpg,Experiments/experiment_14/45.jpg,Experiments/experiment_14/46.jpg,Experiments/experiment_14/47.jpg,642,1,2023-04-17_17h02.06.656,Occlusion_Psychophysics,2022.1.4,Win32,60.15761295,,,right,"[""right""]",[1.314199999988091],False,,0.0,0.0,11.0,11.0,11.0,1.0,,,,,,
,,,,,,,,,,,,,,,,,,,,,0.05,,,,,,,,,,Stimuli/psy_fixed_rotation_30_objects_occ0.7_0.9s/images/train/n02818832_9/n02883344_0/img_bed01_blue_b03_box_2004_gray.jpg,n02818832_9,n02883344_0,fixed,0.748998,n02883344_0,Stimuli/psy_fixed_rotation_30_objects_occ0.7_0.9s/images/train/n02818832_9/n02883344_0/img_bed01_blue_b03_box_2004-3_gray.png,foreground,same as foreground,n02818832_9,n04256520_9,Stimuli/canonical view 2/img_n02818832_9_gray.jpg,Stimuli/canonical view 2/img_n04256520_9_gray.jpg,random,left,Experiments/experiment_14/48.jpg,Experiments/experiment_14/49.jpg,Experiments/experiment_14/50.jpg,Experiments/experiment_14/51.jpg,642,1,2023-04-17_17h02.06.656,Occlusion_Psychophysics,2022.1.4,Win32,60.15761295,,,right,"[""right""]",[0.9293000000119491],False,,0.0,0.0,12.0,12.0,12.0,1.0,,,,,,
,,,,,,,,,,,,,,,,,,,,,0.025,,,,,,,,,,Stimuli/psy_flexible_rotation_30_objects_occ0.7_0.9s/images/train/n04405907_5/n03928116_4/img_samsung_40_uhd_smart_tv_2011_dp_33_b_2013__vray_2013_gray.jpg,n04405907_5,n03928116_4,flexible,0.764817,n02818832_9,Stimuli/psy_flexible_rotation_30_objects_occ0.7_0.9s/images/train/n04379243_8/n02818832_9/img_glass_table_bed01_blue_2006-3_gray.png,random,flexible,n04405907_5,n03928116_4,Stimuli/canonical view 2/img_n04405907_5_gray.jpg,Stimuli/canonical view 2/img_n03928116_4_gray.jpg,foreground,left,Experiments/experiment_14/52.jpg,Experiments/experiment_14/53.jpg,Experiments/experiment_14/54.jpg,Experiments/experiment_14/55.jpg,642,1,2023-04-17_17h02.06.656,Occlusion_Psychophysics,2022.1.4,Win32,60.15761295,,,left,"[""right""]",[1.2086000000238073],False,,0.0,0.0,13.0,13.0,13.0,1.0,,,,,,
,,,,,,,,,,,,,,,,,,,,,0.05,,,,,,,,,,Stimuli/psy_fixed_rotation_30_objects_occ0.7_0.9s/images/train/n02828884_9/n04405907_8/img_cr-96_bench_stylized_tv_2001_gray.jpg,n02828884_9,n04405907_8,fixed,0.70625,n04405907_9,Stimuli/psy_fixed_rotation_30_objects_occ0.7_0.9s/images/train/n04379243_0/n04405907_9/img_17th_c._monastery_dining_table_2010_vray_004_2001-3_gray.png,random,fixed,n02828884_9,n04405907_5,Stimuli/canonical view 2/img_n02828884_9_gray.jpg,Stimuli/canonical view 2/img_n04405907_5_gray.jpg,random,left,Experiments/experiment_14/56.jpg,Experiments/experiment_14/57.jpg,Experiments/experiment_14/58.jpg,Experiments/experiment_14/59.jpg,642,1,2023-04-17_17h02.06.656,Occlusion_Psychophysics,2022.1.4,Win32,60.15761295,,,left,"[""right""]",[1.1903999999761936],False,,0.0,0.0,14.0,14.0,14.0,1.0,,,,,,
,,,,,,,,,,,,,,,,,,,,,0.025,,,,,,,,,,Stimuli/psy_fixed_rotation_30_objects_occ0.7_0.9s/images/train/n04405907_5/n04379243_-7/img_samsung_40_uhd_smart_tv_2011_quatre_dining_table_2005_gray.jpg,n04405907_5,n04379243_-7,fixed,0.797827,n04379243_0,Stimuli/psy_fixed_rotation_30_objects_occ0.7_0.9s/images/train/n02883344_15/n04379243_0/img_microwave_box_17th_c._monastery_dining_table_2010_2006-3_gray.png,random,fixed,n04405907_5,n04379243_-7,Stimuli/canonical view 2/img_n04405907_5_gray.jpg,Stimuli/canonical view 2/img_n04379243_-7_gray.jpg,foreground,left,Experiments/experiment_14/60.jpg,Experiments/experiment_14/61.jpg,Experiments/experiment_14/62.jpg,Experiments/experiment_14/63.jpg,642,1,2023-04-17_17h02.06.656,Occlusion_Psychophysics,2022.1.4,Win32,60.15761295,,,left,"[""left""]",[1.1768000000120082],False,,0.0,0.0,15.0,15.0,15.0,1.0,,,,,,
,,,,,,,,,,,,,,,,,,,,,0.05,,,,,,,,,,Stimuli/psy_fixed_rotation_30_objects_occ0.7_0.9s/images/train/n04379243_8/n03928116_10/img_glass_table_ydp_103_r_2012__vray_2011_gray.jpg,n04379243_8,n03928116_10,fixed,0.717233,n03928116_10,Stimuli/psy_fixed_rotation_30_objects_occ0.7_0.9s/images/train/n04379243_8/n03928116_10/img_glass_table_ydp_103_r_2012__vray_2011-3_gray.png,foreground,same as foreground,n04379243_8,n03928116_10,Stimuli/canonical view 2/img_n04379243_8_gray.jpg,Stimuli/canonical view 2/img_n03928116_10_gray.jpg,foreground,left,Experiments/experiment_14/64.jpg,Experiments/experiment_14/65.jpg,Experiments/experiment_14/66.jpg,Experiments/experiment_14/67.jpg,642,1,2023-04-17_17h02.06.656,Occlusion_Psychophysics,2022.1.4,Win32,60.15761295,,,left,"[""right""]",[1.4609000000357355],False,,0.0,0.0,16.0,16.0,16.0,1.0,,,,,,
,,,,,,,,,,,,,,,,,,,,,0.025,,,,,,,,,,Stimuli/psy_flexible_rotation_30_objects_occ0.7_0.9s/images/train/n02818832_3/n04379243_0/img_b05_ccm_contemporary_bed_max2013_17th_c._monastery_dining_table_2010_2009_gray.jpg,n02818832_3,n04379243_0,flexible,0.793033,n04379243_0,Stimuli/psy_flexible_rotation_30_objects_occ0.7_0.9s/images/train/n02818832_3/n04379243_0/img_b05_ccm_contemporary_bed_max2013_17th_c._monastery_dining_table_2010_2009-3_gray.png,foreground,same as foreground,n02818832_3,n04379243_0,Stimuli/canonical view 2/img_n02818832_3_gray.jpg,Stimuli/canonical view 2/img_n04379243_0_gray.jpg,foreground,left,Experiments/experiment_14/68.jpg,Experiments/experiment_14/69.jpg,Experiments/experiment_14/70.jpg,Experiments/experiment_14/71.jpg,642,1,2023-04-17_17h02.06.656,Occlusion_Psychophysics,2022.1.4,Win32,60.15761295,,,right,"[""right""]",[1.1025999999642409],False,,0.0,0.0,17.0,17.0,17.0,1.0,,,,,,
,,,,,,,,,,,,,,,,,,,,,0.025,,,,,,,,,,Stimuli/psy_flexible_rotation_30_objects_occ0.7_0.9s/images/train/n04405907_5/n02828884_3/img_samsung_40_uhd_smart_tv_2011_b04_wood_metal_park_bench_2002_gray.jpg,n04405907_5,n02828884_3,flexible,0.727179,n02883344_15,Stimuli/psy_flexible_rotation_30_objects_occ0.7_0.9s/images/train/n03928116_0/n02883344_15/img_b02_piano_microwave_box_2005-3_gray.png,random,flexible,n04405907_5,n02818832_9,Stimuli/canonical view 2/img_n04405907_5_gray.jpg,Stimuli/canonical view 2/img_n02818832_9_gray.jpg,random,left,Experiments/experiment_14/72.jpg,Experiments/experiment_14/73.jpg,Experiments/experiment_14/74.jpg,Experiments/experiment_14/75.jpg,642,1,2023-04-17_17h02.06.656,Occlusion_Psychophysics,2022.1.4,Win32,60.15761295,,,left,"[""left""]",[1.215100000023881],False,,0.0,0.0,18.0,18.0,18.0,1.0,,,,,,
,,,,,,,,,,,,,,,,,,,,,0.05,,,,,,,,,,Stimuli/psy_flexible_rotation_30_objects_occ0.7_0.9s/images/train/n02883344_-1/n03928116_4/img_woven_box_dp_33_b_2013__vray_2008_gray.jpg,n02883344_-1,n03928116_4,flexible,0.721351,n02818832_3,Stimuli/psy_flexible_rotation_30_objects_occ0.7_0.9s/images/train/n04405907_8/n02818832_3/img_stylized_tv_b05_ccm_contemporary_bed_max2013_2001-3_gray.png,random,flexible,n02883344_-1,n03001627_8,Stimuli/canonical view 2/img_n02883344_-1_gray.jpg,Stimuli/canonical view 2/img_n03001627_8_gray.jpg,random,right,Experiments/experiment_14/76.jpg,Experiments/experiment_14/77.jpg,Experiments/experiment_14/78.jpg,Experiments/experiment_14/79.jpg,642,1,2023-04-17_17h02.06.656,Occlusion_Psychophysics,2022.1.4,Win32,60.15761295,,,left,"[""left""]",[1.3383999999761045],False,,0.0,0.0,19.0,19.0,19.0,1.0,,,,,,
,,,,,,,,,,,,,,,,,,,,,0.025,,,,,,,,,,Stimuli/psy_fixed_rotation_30_objects_occ0.7_0.9s/images/train/n04379243_-7/n02883344_15/img_quatre_dining_table_microwave_box_2013_gray.jpg,n04379243_-7,n02883344_15,fixed,0.786555,n02883344_15,Stimuli/psy_fixed_rotation_30_objects_occ0.7_0.9s/images/train/n04379243_-7/n02883344_15/img_quatre_dining_table_microwave_box_2013-3_gray.png,foreground,same as foreground,n04379243_-7,n03001627_-2,Stimuli/canonical view 2/img_n04379243_-7_gray.jpg,Stimuli/canonical view 2/img_n03001627_-2_gray.jpg,random,left,Experiments/experiment_14/80.jpg,Experiments/experiment_14/81.jpg,Experiments/experiment_14/82.jpg,Experiments/experiment_14/83.jpg,642,1,2023-04-17_17h02.06.656,Occlusion_Psychophysics,2022.1.4,Win32,60.15761295,,,left,"[""left""]",[1.254900000035832],False,,0.0,0.0,20.0,20.0,20.0,1.0,,,,,,
,,,,,,,,,,,,,,,,,,,,,0.025,,,,,,,,,,Stimuli/psy_fixed_rotation_30_objects_occ0.7_0.9s/images/train/n03928116_10/n02818832_9/img_ydp_103_r_2012__vray_bed01_blue_2006_gray.jpg,n03928116_10,n02818832_9,fixed,0.713914,n02818832_9,Stimuli/psy_fixed_rotation_30_objects_occ0.7_0.9s/images/train/n03928116_10/n02818832_9/img_ydp_103_r_2012__vray_bed01_blue_2006-3_gray.png,foreground,same as foreground,n03928116_10,n02818832_9,Stimuli/canonical view 2/img_n03928116_10_gray.jpg,Stimuli/canonical view 2/img_n02818832_9_gray.jpg,foreground,left,Experiments/experiment_14/84.jpg,Experiments/experiment_14/85.jpg,Experiments/experiment_14/86.jpg,Experiments/experiment_14/87.jpg,642,1,2023-04-17_17h02.06.656,Occlusion_Psychophysics,2022.1.4,Win32,60.15761295,,,right,"[""left""]",[0.842700000047671],False,,0.0,0.0,21.0,21.0,21.0,1.0,,,,,,
,,,,,,,,,,,,,,,,,,,,,0.025,,,,,,,,,,Stimuli/psy_flexible_rotation_30_objects_occ0.7_0.9s/images/train/n02818832_0/n04256520_5/img_b03_the_sofa_and_chair_company_-_stanley_bed_2014_meridiani_belmondo_bench_sofa_2001_gray.jpg,n02818832_0,n04256520_5,flexible,0.728627,n02818832_9,Stimuli/psy_fixed_rotation_30_objects_occ0.7_0.9s/images/train/n03928116_10/n02818832_9/img_ydp_103_r_2012__vray_bed01_blue_2001-3_gray.png,random,fixed,n02818832_0,n04256520_5,Stimuli/canonical view 2/img_n02818832_0_gray.jpg,Stimuli/canonical view 2/img_n04256520_5_gray.jpg,foreground,right,Experiments/experiment_14/88.jpg,Experiments/experiment_14/89.jpg,Experiments/experiment_14/90.jpg,Experiments/experiment_14/91.jpg,642,1,2023-04-17_17h02.06.656,Occlusion_Psychophysics,2022.1.4,Win32,60.15761295,,,left,"[""left""]",[0.8773000000119282],False,,0.0,0.0,22.0,22.0,22.0,1.0,,,,,,
,,,,,,,,,,,,,,,,,,,,,0.05,,,,,,,,,,Stimuli/psy_flexible_rotation_30_objects_occ0.7_0.9s/images/train/n04405907_9/n02883344_-1/img_vray_004_woven_box_2008_gray.jpg,n04405907_9,n02883344_-1,flexible,0.782494,n02818832_0,Stimuli/psy_fixed_rotation_30_objects_occ0.7_0.9s/images/train/n02818832_9/n02818832_0/img_bed01_blue_b03_the_sofa_and_chair_company_-_stanley_bed_2014_2009-3_gray.png,random,fixed,n04405907_9,n02883344_-1,Stimuli/canonical view 2/img_n04405907_9_gray.jpg,Stimuli/canonical view 2/img_n02883344_-1_gray.jpg,foreground,right,Experiments/experiment_14/92.jpg,Experiments/experiment_14/93.jpg,Experiments/experiment_14/94.jpg,Experiments/experiment_14/95.jpg,642,1,2023-04-17_17h02.06.656,Occlusion_Psychophysics,2022.1.4,Win32,60.15761295,,,left,"[""left""]",[0.9404999999999291],False,,0.0,0.0,23.0,23.0,23.0,1.0,,,,,,
,,,,,,,,,,,,,,,,,,,,,0.025,,,,,,,,,,Stimuli/psy_fixed_rotation_30_objects_occ0.7_0.9s/images/train/n04379243_-7/n02883344_15/img_quatre_dining_table_microwave_box_2009_gray.jpg,n04379243_-7,n02883344_15,fixed,0.811543,n02883344_15,Stimuli/psy_fixed_rotation_30_objects_occ0.7_0.9s/images/train/n04379243_-7/n02883344_15/img_quatre_dining_table_microwave_box_2009-3_gray.png,foreground,same as foreground,n04379243_-7,n02818832_3,Stimuli/canonical view 2/img_n04379243_-7_gray.jpg,Stimuli/canonical view 2/img_n02818832_3_gray.jpg,random,right,Experiments/experiment_14/96.jpg,Experiments/experiment_14/97.jpg,Experiments/experiment_14/98.jpg,Experiments/experiment_14/99.jpg,642,1,2023-04-17_17h02.06.656,Occlusion_Psychophysics,2022.1.4,Win32,60.15761295,,,left,"[""left""]",[0.9193999999761218],False,,0.0,0.0,24.0,24.0,24.0,1.0,,,,,,
,,,,,,,,,,,,,,,,,,,,,0.025,,,,,,,,,,Stimuli/psy_flexible_rotation_30_objects_occ0.7_0.9s/images/train/n02933112_-18/n02933112_4/img_cgaxis_models_48_26_vray_composite_buffet_2009_gray.jpg,n02933112_-18,n02933112_4,flexible,0.769915,n02818832_0,Stimuli/psy_flexible_rotation_30_objects_occ0.7_0.9s/images/train/n02828884_4/n02818832_0/img_b05_c-5_classic_series_bench-2012_b03_the_sofa_and_chair_company_-_stanley_bed_2014_2013-3_gray.png,random,flexible,n02933112_-18,n03001627_9,Stimuli/canonical view 2/img_n02933112_-18_gray.jpg,Stimuli/canonical view 2/img_n03001627_9_gray.jpg,random,right,Experiments/experiment_14/100.jpg,Experiments/experiment_14/101.jpg,Experiments/experiment_14/102.jpg,Experiments/experiment_14/103.jpg,642,1,2023-04-17_17h02.06.656,Occlusion_Psychophysics,2022.1.4,Win32,60.15761295,,,left,"[""left""]",[0.8895999999642754],False,,0.0,0.0,25.0,25.0,25.0,1.0,,,,,,
,,,,,,,,,,,,,,,,,,,,,0.025,,,,,,,,,,Stimuli/psy_flexible_rotation_30_objects_occ0.7_0.9s/images/train/n02818832_0/n04405907_8/img_b03_the_sofa_and_chair_company_-_stanley_bed_2014_stylized_tv_2007_gray.jpg,n02818832_0,n04405907_8,flexible,0.794003,n04405907_8,Stimuli/psy_flexible_rotation_30_objects_occ0.7_0.9s/images/train/n02818832_0/n04405907_8/img_b03_the_sofa_and_chair_company_-_stanley_bed_2014_stylized_tv_2007-3_gray.png,foreground,same as foreground,n02818832_0,n04405907_8,Stimuli/canonical view 2/img_n02818832_0_gray.jpg,Stimuli/canonical view 2/img_n04405907_8_gray.jpg,foreground,left,Experiments/experiment_14/104.jpg,Experiments/experiment_14/105.jpg,Experiments/experiment_14/106.jpg,Experiments/experiment_14/107.jpg,642,1,2023-04-17_17h02.06.656,Occlusion_Psychophysics,2022.1.4,Win32,60.15761295,,,right,"[""left""]",[0.9370000000000118],False,,0.0,0.0,26.0,26.0,26.0,1.0,,,,,,
,,,,,,,,,,,,,,,,,,,,,0.025,,,,,,,,,,Stimuli/psy_flexible_rotation_30_objects_occ0.7_0.9s/images/train/n02818832_9/n02933112_-18/img_bed01_blue_cgaxis_models_48_26_vray_composite_2002_gray.jpg,n02818832_9,n02933112_-18,flexible,0.711363,n02883344_-1,Stimuli/psy_flexible_rotation_30_objects_occ0.7_0.9s/images/train/n02828884_4/n02883344_-1/img_b05_c-5_classic_series_bench-2012_woven_box_2014-3_gray.png,random,flexible,n02818832_9,n04405907_9,Stimuli/canonical view 2/img_n02818832_9_gray.jpg,Stimuli/canonical view 2/img_n04405907_9_gray.jpg,random,right,Experiments/experiment_14/108.jpg,Experiments/experiment_14/109.jpg,Experiments/experiment_14/110.jpg,Experiments/experiment_14/111.jpg,642,1,2023-04-17_17h02.06.656,Occlusion_Psychophysics,2022.1.4,Win32,60.15761295,,,left,"[""right""]",[0.729100000023891],False,,0.0,0.0,27.0,27.0,27.0,1.0,,,,,,
,,,,,,,,,,,,,,,,,,,,,0.025,,,,,,,,,,Stimuli/psy_fixed_rotation_30_objects_occ0.7_0.9s/images/train/n03928116_0/n03001627_9/img_b02_piano_chair_eames_plastic_armchair_2015_gray.jpg,n03928116_0,n03001627_9,fixed,0.835964,n03001627_9,Stimuli/psy_fixed_rotation_30_objects_occ0.7_0.9s/images/train/n03928116_0/n03001627_9/img_b02_piano_chair_eames_plastic_armchair_2015-3_gray.png,foreground,same as foreground,n03928116_0,n03001627_9,Stimuli/canonical view 2/img_n03928116_0_gray.jpg,Stimuli/canonical view 2/img_n03001627_9_gray.jpg,foreground,right,Experiments/experiment_14/112.jpg,Experiments/experiment_14/113.jpg,Experiments/experiment_14/114.jpg,Experiments/experiment_14/115.jpg,642,1,2023-04-17_17h02.06.656,Occlusion_Psychophysics,2022.1.4,Win32,60.15761295,,,left,"[""left""]",[0.7871000000238837],False,,0.0,0.0,28.0,28.0,28.0,1.0,,,,,,
,,,,,,,,,,,,,,,,,,,,,0.05,,,,,,,,,,Stimuli/psy_fixed_rotation_30_objects_occ0.7_0.9s/images/train/n02883344_15/n03928116_0/img_microwave_box_b02_piano_2007_gray.jpg,n02883344_15,n03928116_0,fixed,0.854289,n03928116_0,Stimuli/psy_fixed_rotation_30_objects_occ0.7_0.9s/images/train/n02883344_15/n03928116_0/img_microwave_box_b02_piano_2007-3_gray.png,foreground,same as foreground,n02883344_15,n03001627_-2,Stimuli/canonical view 2/img_n02883344_15_gray.jpg,Stimuli/canonical view 2/img_n03001627_-2_gray.jpg,random,right,Experiments/experiment_14/116.jpg,Experiments/experiment_14/117.jpg,Experiments/experiment_14/118.jpg,Experiments/experiment_14/119.jpg,642,1,2023-04-17_17h02.06.656,Occlusion_Psychophysics,2022.1.4,Win32,60.15761295,,,right,"[""right""]",[0.653400000035731],False,,0.0,0.0,29.0,29.0,29.0,1.0,,,,,,
,,,,,,,,,,,,,,,,,,,,,0.05,,,,,,,,,,Stimuli/psy_flexible_rotation_30_objects_occ0.7_0.9s/images/train/n04405907_9/n04256520_9/img_vray_004_napoleon_iii_sofa_2001_gray.jpg,n04405907_9,n04256520_9,flexible,0.770887,n04405907_5,Stimuli/psy_fixed_rotation_30_objects_occ0.7_0.9s/images/train/n04405907_9/n04405907_5/img_vray_004_samsung_40_uhd_smart_tv_2011_2003-3_gray.png,random,fixed,n04405907_9,n04405907_5,Stimuli/canonical view 2/img_n04405907_9_gray.jpg,Stimuli/canonical view 2/img_n04405907_5_gray.jpg,random,left,Experiments/experiment_14/120.jpg,Experiments/experiment_14/121.jpg,Experiments/experiment_14/122.jpg,Experiments/experiment_14/123.jpg,642,1,2023-04-17_17h02.06.656,Occlusion_Psychophysics,2022.1.4,Win32,60.15761295,,,left,"[""right""]",[0.86930000001189],False,,0.0,0.0,30.0,30.0,30.0,1.0,,,,,,
,,,,,,,,,,,,,,,,,,,,,0.05,,,,,,,,,,Stimuli/psy_fixed_rotation_30_objects_occ0.7_0.9s/images/train/n04405907_5/n04379243_0/img_samsung_40_uhd_smart_tv_2011_17th_c._monastery_dining_table_2010_2015_gray.jpg,n04405907_5,n04379243_0,fixed,0.744446,n03928116_0,Stimuli/psy_flexible_rotation_30_objects_occ0.7_0.9s/images/train/n04405907_8/n03928116_0/img_stylized_tv_b02_piano_2007-3_gray.png,random,flexible,n04405907_5,n04379243_0,Stimuli/canonical view 2/img_n04405907_5_gray.jpg,Stimuli/canonical view 2/img_n04379243_0_gray.jpg,foreground,left,Experiments/experiment_14/124.jpg,Experiments/experiment_14/125.jpg,Experiments/experiment_14/126.jpg,Experiments/experiment_14/127.jpg,642,1,2023-04-17_17h02.06.656,Occlusion_Psychophysics,2022.1.4,Win32,60.15761295,,,left,"[""left""]",[1.0731000000238282],True,left,1.0,0.0,31.0,31.0,31.0,1.0,0.7007,,,,,
,,,,,,,,,,,,,,,,,,,,,0.025,,,,,,,,,,Stimuli/psy_fixed_rotation_30_objects_occ0.7_0.9s/images/train/n04405907_5/n03928116_0/img_samsung_40_uhd_smart_tv_2011_b02_piano_2011_gray.jpg,n04405907_5,n03928116_0,fixed,0.725918,n03928116_0,Stimuli/psy_fixed_rotation_30_objects_occ0.7_0.9s/images/train/n04405907_5/n03928116_0/img_samsung_40_uhd_smart_tv_2011_b02_piano_2011-3_gray.png,foreground,same as foreground,n04405907_5,n04256520_5,Stimuli/canonical view 2/img_n04405907_5_gray.jpg,Stimuli/canonical view 2/img_n04256520_5_gray.jpg,random,right,Experiments/experiment_14/128.jpg,Experiments/experiment_14/129.jpg,Experiments/experiment_14/130.jpg,Experiments/experiment_14/131.jpg,642,1,2023-04-17_17h02.06.656,Occlusion_Psychophysics,2022.1.4,Win32,60.15761295,,,left,"[""right""]",[0.8221999999880154],False,,0.0,0.0,32.0,32.0,32.0,1.0,,,,,,
,,,,,,,,,,,,,,,,,,,,,0.05,,,,,,,,,,Stimuli/psy_flexible_rotation_30_objects_occ0.7_0.9s/images/train/n02883344_15/n03928116_0/img_microwave_box_b02_piano_2002_gray.jpg,n02883344_15,n03928116_0,flexible,0.878157,n02933112_4,Stimuli/psy_flexible_rotation_30_objects_occ0.7_0.9s/images/train/n03001627_8/n02933112_4/img_chair_billiani_doll_buffet_2008-3_gray.png,random,flexible,n02883344_15,n02828884_9,Stimuli/canonical view 2/img_n02883344_15_gray.jpg,Stimuli/canonical view 2/img_n02828884_9_gray.jpg,random,right,Experiments/experiment_14/132.jpg,Experiments/experiment_14/133.jpg,Experiments/experiment_14/134.jpg,Experiments/experiment_14/135.jpg,642,1,2023-04-17_17h02.06.656,Occlusion_Psychophysics,2022.1.4,Win32,60.15761295,,,left,"[""left""]",[0.9799999999999045],False,,0.0,0.0,33.0,33.0,33.0,1.0,,,,,,
,,,,,,,,,,,,,,,,,,,,,0.025,,,,,,,,,,Stimuli/psy_fixed_rotation_30_objects_occ0.7_0.9s/images/train/n02818832_3/n04405907_9/img_b05_ccm_contemporary_bed_max2013_vray_004_2015_gray.jpg,n02818832_3,n04405907_9,fixed,0.715292,n04405907_9,Stimuli/psy_fixed_rotation_30_objects_occ0.7_0.9s/images/train/n02818832_3/n04405907_9/img_b05_ccm_contemporary_bed_max2013_vray_004_2015-3_gray.png,foreground,same as foreground,n02818832_3,n04405907_9,Stimuli/canonical view 2/img_n02818832_3_gray.jpg,Stimuli/canonical view 2/img_n04405907_9_gray.jpg,foreground,left,Experiments/experiment_14/136.jpg,Experiments/experiment_14/137.jpg,Experiments/experiment_14/138.jpg,Experiments/experiment_14/139.jpg,642,1,2023-04-17_17h02.06.656,Occlusion_Psychophysics,2022.1.4,Win32,60.15761295,,,right,"[""left""]",[0.7791999999881227],False,,0.0,0.0,34.0,34.0,34.0,1.0,,,,,,
,,,,,,,,,,,,,,,,,,,,,0.025,,,,,,,,,,Stimuli/psy_fixed_rotation_30_objects_occ0.7_0.9s/images/train/n03001627_8/n02818832_0/img_chair_billiani_doll_b03_the_sofa_and_chair_company_-_stanley_bed_2014_2009_gray.jpg,n03001627_8,n02818832_0,fixed,0.77448,n02818832_0,Stimuli/psy_fixed_rotation_30_objects_occ0.7_0.9s/images/train/n03001627_8/n02818832_0/img_chair_billiani_doll_b03_the_sofa_and_chair_company_-_stanley_bed_2014_2009-3_gray.png,foreground,same as foreground,n03001627_8,n02883344_-1,Stimuli/canonical view 2/img_n03001627_8_gray.jpg,Stimuli/canonical view 2/img_n02883344_-1_gray.jpg,random,right,Experiments/experiment_14/140.jpg,Experiments/experiment_14/141.jpg,Experiments/experiment_14/142.jpg,Experiments/experiment_14/143.jpg,642,1,2023-04-17_17h02.06.656,Occlusion_Psychophysics,2022.1.4,Win32,60.15761295,,,left,"[""right""]",[0.9409000000357537],False,,0.0,0.0,35.0,35.0,35.0,1.0,,,,,,
,,,,,,,,,,,,,,,,,,,,,0.025,,,,,,,,,,Stimuli/psy_flexible_rotation_30_objects_occ0.7_0.9s/images/train/n02818832_0/n02818832_9/img_b03_the_sofa_and_chair_company_-_stanley_bed_2014_bed01_blue_2001_gray.jpg,n02818832_0,n02818832_9,flexible,0.713248,n02818832_9,Stimuli/psy_flexible_rotation_30_objects_occ0.7_0.9s/images/train/n02818832_0/n02818832_9/img_b03_the_sofa_and_chair_company_-_stanley_bed_2014_bed01_blue_2001-3_gray.png,foreground,same as foreground,n02818832_0,n02818832_9,Stimuli/canonical view 2/img_n02818832_0_gray.jpg,Stimuli/canonical view 2/img_n02818832_9_gray.jpg,foreground,right,Experiments/experiment_14/144.jpg,Experiments/experiment_14/145.jpg,Experiments/experiment_14/146.jpg,Experiments/experiment_14/147.jpg,642,1,2023-04-17_17h02.06.656,Occlusion_Psychophysics,2022.1.4,Win32,60.15761295,,,right,"[""right""]",[0.7969000000357482],False,,0.0,0.0,36.0,36.0,36.0,1.0,,,,,,
,,,,,,,,,,,,,,,,,,,,,0.05,,,,,,,,,,Stimuli/psy_flexible_rotation_30_objects_occ0.7_0.9s/images/train/n04405907_9/n04405907_5/img_vray_004_samsung_40_uhd_smart_tv_2011_2012_gray.jpg,n04405907_9,n04405907_5,flexible,0.735522,n04405907_5,Stimuli/psy_flexible_rotation_30_objects_occ0.7_0.9s/images/train/n04405907_9/n04405907_5/img_vray_004_samsung_40_uhd_smart_tv_2011_2012-3_gray.png,foreground,same as foreground,n04405907_9,n04405907_5,Stimuli/canonical view 2/img_n04405907_9_gray.jpg,Stimuli/canonical view 2/img_n04405907_5_gray.jpg,foreground,left,Experiments/experiment_14/148.jpg,Experiments/experiment_14/149.jpg,Experiments/experiment_14/150.jpg,Experiments/experiment_14/151.jpg,642,1,2023-04-17_17h02.06.656,Occlusion_Psychophysics,2022.1.4,Win32,60.15761295,,,right,"[""left""]",[0.7110000000000127],False,,0.0,0.0,37.0,37.0,37.0,1.0,,,,,,
,,,,,,,,,,,,,,,,,,,,,0.05,,,,,,,,,,Stimuli/psy_fixed_rotation_30_objects_occ0.7_0.9s/images/train/n03928116_4/n03928116_0/img_dp_33_b_2013__vray_b02_piano_2012_gray.jpg,n03928116_4,n03928116_0,fixed,0.725627,n03928116_0,Stimuli/psy_fixed_rotation_30_objects_occ0.7_0.9s/images/train/n03928116_4/n03928116_0/img_dp_33_b_2013__vray_b02_piano_2012-3_gray.png,foreground,same as foreground,n03928116_4,n03001627_8,Stimuli/canonical view 2/img_n03928116_4_gray.jpg,Stimuli/canonical view 2/img_n03001627_8_gray.jpg,random,left,Experiments/experiment_14/152.jpg,Experiments/experiment_14/153.jpg,Experiments/experiment_14/154.jpg,Experiments/experiment_14/155.jpg,642,1,2023-04-17_17h02.06.656,Occlusion_Psychophysics,2022.1.4,Win32,60.15761295,,,right,"[""left""]",[1.0784000000357992],False,,0.0,0.0,38.0,38.0,38.0,1.0,,,,,,
,,,,,,,,,,,,,,,,,,,,,0.025,,,,,,,,,,Stimuli/psy_flexible_rotation_30_objects_occ0.7_0.9s/images/train/n02933112_4/n04256520_4/img_buffet_club_house_italia_nautilus_sofa_2005_gray.jpg,n02933112_4,n04256520_4,flexible,0.844215,n02818832_3,Stimuli/psy_flexible_rotation_30_objects_occ0.7_0.9s/images/train/n04070727_3/n02818832_3/img_b05_db_apps_tech_06_02_2_composite_b05_ccm_contemporary_bed_max2013_2000-3_gray.png,random,flexible,n02933112_4,n02828884_4,Stimuli/canonical view 2/img_n02933112_4_gray.jpg,Stimuli/canonical view 2/img_n02828884_4_gray.jpg,random,right,Experiments/experiment_14/156.jpg,Experiments/experiment_14/157.jpg,Experiments/experiment_14/158.jpg,Experiments/experiment_14/159.jpg,642,1,2023-04-17_17h02.06.656,Occlusion_Psychophysics,2022.1.4,Win32,60.15761295,,,right,"[""right""]",[1.085199999988049],False,,0.0,0.0,39.0,39.0,39.0,1.0,,,,,,
,,,,,,,,,,,,,,,,,,,,,0.025,,,,,,,,,,Stimuli/psy_fixed_rotation_30_objects_occ0.7_0.9s/images/train/n02883344_-1/n02828884_3/img_woven_box_b04_wood_metal_park_bench_2002_gray.jpg,n02883344_-1,n02828884_3,fixed,0.73879,n02828884_3,Stimuli/psy_fixed_rotation_30_objects_occ0.7_0.9s/images/train/n02883344_-1/n02828884_3/img_woven_box_b04_wood_metal_park_bench_2002-3_gray.png,foreground,same as foreground,n02883344_-1,n03928116_0,Stimuli/canonical view 2/img_n02883344_-1_gray.jpg,Stimuli/canonical view 2/img_n03928116_0_gray.jpg,random,left,Experiments/experiment_14/160.jpg,Experiments/experiment_14/161.jpg,Experiments/experiment_14/162.jpg,Experiments/experiment_14/163.jpg,642,1,2023-04-17_17h02.06.656,Occlusion_Psychophysics,2022.1.4,Win32,60.15761295,,,right,"[""right""]",[0.86280000001193],False,,0.0,0.0,40.0,40.0,40.0,1.0,,,,,,
,,,,,,,,,,,,,,,,,,,,,0.05,,,,,,,,,,Stimuli/psy_flexible_rotation_30_objects_occ0.7_0.9s/images/train/n02883344_-1/n04405907_8/img_woven_box_stylized_tv_2008_gray.jpg,n02883344_-1,n04405907_8,flexible,0.85527,n04405907_8,Stimuli/psy_flexible_rotation_30_objects_occ0.7_0.9s/images/train/n02883344_-1/n04405907_8/img_woven_box_stylized_tv_2008-3_gray.png,foreground,same as foreground,n02883344_-1,n02828884_3,Stimuli/canonical view 2/img_n02883344_-1_gray.jpg,Stimuli/canonical view 2/img_n02828884_3_gray.jpg,random,right,Experiments/experiment_14/164.jpg,Experiments/experiment_14/165.jpg,Experiments/experiment_14/166.jpg,Experiments/experiment_14/167.jpg,642,1,2023-04-17_17h02.06.656,Occlusion_Psychophysics,2022.1.4,Win32,60.15761295,,,left,"[""left""]",[0.8923000000119146],False,,0.0,0.0,41.0,41.0,41.0,1.0,,,,,,
,,,,,,,,,,,,,,,,,,,,,0.05,,,,,,,,,,Stimuli/psy_fixed_rotation_30_objects_occ0.7_0.9s/images/train/n02828884_3/n02933112_-18/img_b04_wood_metal_park_bench_cgaxis_models_48_26_vray_composite_2014_gray.jpg,n02828884_3,n02933112_-18,fixed,0.70847,n04405907_8,Stimuli/psy_flexible_rotation_30_objects_occ0.7_0.9s/images/train/n02828884_4/n04405907_8/img_b05_c-5_classic_series_bench-2012_stylized_tv_2000-3_gray.png,random,flexible,n02828884_3,n02933112_-18,Stimuli/canonical view 2/img_n02828884_3_gray.jpg,Stimuli/canonical view 2/img_n02933112_-18_gray.jpg,foreground,right,Experiments/experiment_14/168.jpg,Experiments/experiment_14/169.jpg,Experiments/experiment_14/170.jpg,Experiments/experiment_14/171.jpg,642,1,2023-04-17_17h02.06.656,Occlusion_Psychophysics,2022.1.4,Win32,60.15761295,,,right,"[""right""]",[0.7873999999761736],False,,0.0,0.0,42.0,42.0,42.0,1.0,,,,,,
,,,,,,,,,,,,,,,,,,,,,0.025,,,,,,,,,,Stimuli/psy_flexible_rotation_30_objects_occ0.7_0.9s/images/train/n02818832_0/n02883344_-1/img_b03_the_sofa_and_chair_company_-_stanley_bed_2014_woven_box_2012_gray.jpg,n02818832_0,n02883344_-1,flexible,0.795707,n02883344_-1,Stimuli/psy_flexible_rotation_30_objects_occ0.7_0.9s/images/train/n02818832_0/n02883344_-1/img_b03_the_sofa_and_chair_company_-_stanley_bed_2014_woven_box_2012-3_gray.png,foreground,same as foreground,n02818832_0,n02883344_-1,Stimuli/canonical view 2/img_n02818832_0_gray.jpg,Stimuli/canonical view 2/img_n02883344_-1_gray.jpg,foreground,left,Experiments/experiment_14/172.jpg,Experiments/experiment_14/173.jpg,Experiments/experiment_14/174.jpg,Experiments/experiment_14/175.jpg,642,1,2023-04-17_17h02.06.656,Occlusion_Psychophysics,2022.1.4,Win32,60.15761295,,,right,"[""left""]",[0.8264000000357328],False,,0.0,0.0,43.0,43.0,43.0,1.0,,,,,,
,,,,,,,,,,,,,,,,,,,,,0.025,,,,,,,,,,Stimuli/psy_flexible_rotation_30_objects_occ0.7_0.9s/images/train/n04256520_9/n02818832_3/img_napoleon_iii_sofa_b05_ccm_contemporary_bed_max2013_2006_gray.jpg,n04256520_9,n02818832_3,flexible,0.766542,n02883344_15,Stimuli/psy_flexible_rotation_30_objects_occ0.7_0.9s/images/train/n04379243_8/n02883344_15/img_glass_table_microwave_box_2001-3_gray.png,random,flexible,n04256520_9,n02818832_3,Stimuli/canonical view 2/img_n04256520_9_gray.jpg,Stimuli/canonical view 2/img_n02818832_3_gray.jpg,foreground,right,Experiments/experiment_14/176.jpg,Experiments/experiment_14/177.jpg,Experiments/experiment_14/178.jpg,Experiments/experiment_14/179.jpg,642,1,2023-04-17_17h02.06.656,Occlusion_Psychophysics,2022.1.4,Win32,60.15761295,,,right,"[""left""]",[1.0876000000238264],False,,0.0,0.0,44.0,44.0,44.0,1.0,,,,,,
,,,,,,,,,,,,,,,,,,,,,0.025,,,,,,,,,,Stimuli/psy_fixed_rotation_30_objects_occ0.7_0.9s/images/train/n04405907_9/n04256520_9/img_vray_004_napoleon_iii_sofa_2002_gray.jpg,n04405907_9,n04256520_9,fixed,0.800589,n02818832_0,Stimuli/psy_flexible_rotation_30_objects_occ0.7_0.9s/images/train/n04070727_3/n02818832_0/img_b05_db_apps_tech_06_02_2_composite_b03_the_sofa_and_chair_company_-_stanley_bed_2014_2004-3_gray.png,random,flexible,n04405907_9,n03928116_4,Stimuli/canonical view 2/img_n04405907_9_gray.jpg,Stimuli/canonical view 2/img_n03928116_4_gray.jpg,random,left,Experiments/experiment_14/180.jpg,Experiments/experiment_14/181.jpg,Experiments/experiment_14/182.jpg,Experiments/experiment_14/183.jpg,642,1,2023-04-17_17h02.06.656,Occlusion_Psychophysics,2022.1.4,Win32,60.15761295,,,left,"[""left""]",[0.8018000000118946],False,,0.0,0.0,45.0,45.0,45.0,1.0,,,,,,
,,,,,,,,,,,,,,,,,,,,,0.025,,,,,,,,,,Stimuli/psy_flexible_rotation_30_objects_occ0.7_0.9s/images/train/n04256520_4/n04256520_5/img_club_house_italia_nautilus_sofa_meridiani_belmondo_bench_sofa_2009_gray.jpg,n04256520_4,n04256520_5,flexible,0.721484,n04256520_5,Stimuli/psy_flexible_rotation_30_objects_occ0.7_0.9s/images/train/n04256520_4/n04256520_5/img_club_house_italia_nautilus_sofa_meridiani_belmondo_bench_sofa_2009-3_gray.png,foreground,same as foreground,n04256520_4,n02883344_0,Stimuli/canonical view 2/img_n04256520_4_gray.jpg,Stimuli/canonical view 2/img_n02883344_0_gray.jpg,random,left,Experiments/experiment_14/184.jpg,Experiments/experiment_14/185.jpg,Experiments/experiment_14/186.jpg,Experiments/experiment_14/187.jpg,642,1,2023-04-17_17h02.06.656,Occlusion_Psychophysics,2022.1.4,Win32,60.15761295,,,left,"[""left""]",[0.63069999998811],False,,0.0,0.0,46.0,46.0,46.0,1.0,,,,,,
,,,,,,,,,,,,,,,,,,,,,0.05,,,,,,,,,,Stimuli/psy_fixed_rotation_30_objects_occ0.7_0.9s/images/train/n04405907_9/n02933112_4/img_vray_004_buffet_2000_gray.jpg,n04405907_9,n02933112_4,fixed,0.823259,n02933112_4,Stimuli/psy_fixed_rotation_30_objects_occ0.7_0.9s/images/train/n04405907_9/n02933112_4/img_vray_004_buffet_2000-3_gray.png,foreground,same as foreground,n04405907_9,n02933112_4,Stimuli/canonical view 2/img_n04405907_9_gray.jpg,Stimuli/canonical view 2/img_n02933112_4_gray.jpg,foreground,right,Experiments/experiment_14/188.jpg,Experiments/experiment_14/189.jpg,Experiments/experiment_14/190.jpg,Experiments/experiment_14/191.jpg,642,1,2023-04-17_17h02.06.656,Occlusion_Psychophysics,2022.1.4,Win32,60.15761295,,,left,"[""left""]",[0.8414999999999964],True,right,1.0,0.0,47.0,47.0,47.0,1.0,1.8471,,,,,
,,,,,,,,,,,,,,,,,,,,,0.05,,,,,,,,,,Stimuli/psy_fixed_rotation_30_objects_occ0.7_0.9s/images/train/n04379243_0/n04405907_8/img_17th_c._monastery_dining_table_2010_stylized_tv_2001_gray.jpg,n04379243_0,n04405907_8,fixed,0.763805,n02818832_0,Stimuli/psy_fixed_rotation_30_objects_occ0.7_0.9s/images/train/n04379243_-7/n02818832_0/img_quatre_dining_table_b03_the_sofa_and_chair_company_-_stanley_bed_2014_2013-3_gray.png,random,fixed,n04379243_0,n03928116_4,Stimuli/canonical view 2/img_n04379243_0_gray.jpg,Stimuli/canonical view 2/img_n03928116_4_gray.jpg,random,right,Experiments/experiment_14/192.jpg,Experiments/experiment_14/193.jpg,Experiments/experiment_14/194.jpg,Experiments/experiment_14/195.jpg,642,1,2023-04-17_17h02.06.656,Occlusion_Psychophysics,2022.1.4,Win32,60.15761295,,,left,"[""left""]",[0.8291000000238],False,,0.0,0.0,48.0,48.0,48.0,1.0,,,,,,
,,,,,,,,,,,,,,,,,,,,,0.025,,,,,,,,,,Stimuli/psy_flexible_rotation_30_objects_occ0.7_0.9s/images/train/n02828884_3/n02883344_-1/img_b04_wood_metal_park_bench_woven_box_2003_gray.jpg,n02828884_3,n02883344_-1,flexible,0.825631,n04379243_0,Stimuli/psy_flexible_rotation_30_objects_occ0.7_0.9s/images/train/n04256520_4/n04379243_0/img_club_house_italia_nautilus_sofa_17th_c._monastery_dining_table_2010_2009-3_gray.png,random,flexible,n02828884_3,n02883344_0,Stimuli/canonical view 2/img_n02828884_3_gray.jpg,Stimuli/canonical view 2/img_n02883344_0_gray.jpg,random,right,Experiments/experiment_14/196.jpg,Experiments/experiment_14/197.jpg,Experiments/experiment_14/198.jpg,Experiments/experiment_14/199.jpg,642,1,2023-04-17_17h02.06.656,Occlusion_Psychophysics,2022.1.4,Win32,60.15761295,,,left,"[""right""]",[0.7320000000000846],False,,0.0,0.0,49.0,49.0,49.0,1.0,,,,,,
,,,,,,,,,,,,,,,,,,,,,0.025,,,,,,,,,,Stimuli/psy_flexible_rotation_30_objects_occ0.7_0.9s/images/train/n02933112_4/n04256520_9/img_buffet_napoleon_iii_sofa_2007_gray.jpg,n02933112_4,n04256520_9,flexible,0.749681,n04256520_5,Stimuli/psy_flexible_rotation_30_objects_occ0.7_0.9s/images/train/n04379243_8/n04256520_5/img_glass_table_meridiani_belmondo_bench_sofa_2003-3_gray.png,random,flexible,n02933112_4,n02883344_-1,Stimuli/canonical view 2/img_n02933112_4_gray.jpg,Stimuli/canonical view 2/img_n02883344_-1_gray.jpg,random,left,Experiments/experiment_14/200.jpg,Experiments/experiment_14/201.jpg,Experiments/experiment_14/202.jpg,Experiments/experiment_14/203.jpg,642,1,2023-04-17_17h02.06.656,Occlusion_Psychophysics,2022.1.4,Win32,60.15761295,,,right,"[""left""]",[0.6363000000118291],False,,0.0,0.0,50.0,50.0,50.0,1.0,,,,,,
,,,,,,,,,,,,,,,,,,,,,0.05,,,,,,,,,,Stimuli/psy_fixed_rotation_30_objects_occ0.7_0.9s/images/train/n03001627_8/n02818832_3/img_chair_billiani_doll_b05_ccm_contemporary_bed_max2013_2010_gray.jpg,n03001627_8,n02818832_3,fixed,0.703359,n03928116_4,Stimuli/psy_flexible_rotation_30_objects_occ0.7_0.9s/images/train/n02883344_0/n03928116_4/img_b03_box_dp_33_b_2013__vray_2008-3_gray.png,random,flexible,n03001627_8,n02818832_3,Stimuli/canonical view 2/img_n03001627_8_gray.jpg,Stimuli/canonical view 2/img_n02818832_3_gray.jpg,foreground,left,Experiments/experiment_14/204.jpg,Experiments/experiment_14/205.jpg,Experiments/experiment_14/206.jpg,Experiments/experiment_14/207.jpg,642,1,2023-04-17_17h02.06.656,Occlusion_Psychophysics,2022.1.4,Win32,60.15761295,,,right,"[""left""]",[0.8711999999881073],False,,0.0,0.0,51.0,51.0,51.0,1.0,,,,,,
,,,,,,,,,,,,,,,,,,,,,0.025,,,,,,,,,,Stimuli/psy_fixed_rotation_30_objects_occ0.7_0.9s/images/train/n04379243_8/n04405907_8/img_glass_table_stylized_tv_2001_gray.jpg,n04379243_8,n04405907_8,fixed,0.739618,n04256520_5,Stimuli/psy_flexible_rotation_30_objects_occ0.7_0.9s/images/train/n02828884_9/n04256520_5/img_cr-96_bench_meridiani_belmondo_bench_sofa_2011-3_gray.png,random,flexible,n04379243_8,n04379243_0,Stimuli/canonical view 2/img_n04379243_8_gray.jpg,Stimuli/canonical view 2/img_n04379243_0_gray.jpg,random,right,Experiments/experiment_14/208.jpg,Experiments/experiment_14/209.jpg,Experiments/experiment_14/210.jpg,Experiments/experiment_14/211.jpg,642,1,2023-04-17_17h02.06.656,Occlusion_Psychophysics,2022.1.4,Win32,60.15761295,,,left,"[""left""]",[0.9221999999881518],False,,0.0,0.0,52.0,52.0,52.0,1.0,,,,,,
,,,,,,,,,,,,,,,,,,,,,0.025,,,,,,,,,,Stimuli/psy_flexible_rotation_30_objects_occ0.7_0.9s/images/train/n04405907_8/n02818832_3/img_stylized_tv_b05_ccm_contemporary_bed_max2013_2003_gray.jpg,n04405907_8,n02818832_3,flexible,0.867576,n02818832_3,Stimuli/psy_flexible_rotation_30_objects_occ0.7_0.9s/images/train/n04405907_8/n02818832_3/img_stylized_tv_b05_ccm_contemporary_bed_max2013_2003-3_gray.png,foreground,same as foreground,n04405907_8,n02818832_3,Stimuli/canonical view 2/img_n04405907_8_gray.jpg,Stimuli/canonical view 2/img_n02818832_3_gray.jpg,foreground,right,Experiments/experiment_14/212.jpg,Experiments/experiment_14/213.jpg,Experiments/experiment_14/214.jpg,Experiments/experiment_14/215.jpg,642,1,2023-04-17_17h02.06.656,Occlusion_Psychophysics,2022.1.4,Win32,60.15761295,,,left,"[""left""]",[1.1418000000119264],False,,0.0,0.0,53.0,53.0,53.0,1.0,,,,,,
,,,,,,,,,,,,,,,,,,,,,0.05,,,,,,,,,,Stimuli/psy_fixed_rotation_30_objects_occ0.7_0.9s/images/train/n02828884_3/n02883344_-1/img_b04_wood_metal_park_bench_woven_box_2010_gray.jpg,n02828884_3,n02883344_-1,fixed,0.762116,n04256520_4,Stimuli/psy_fixed_rotation_30_objects_occ0.7_0.9s/images/train/n02818832_9/n04256520_4/img_bed01_blue_club_house_italia_nautilus_sofa_2002-3_gray.png,random,fixed,n02828884_3,n02883344_0,Stimuli/canonical view 2/img_n02828884_3_gray.jpg,Stimuli/canonical view 2/img_n02883344_0_gray.jpg,random,left,Experiments/experiment_14/216.jpg,Experiments/experiment_14/217.jpg,Experiments/experiment_14/218.jpg,Experiments/experiment_14/219.jpg,642,1,2023-04-17_17h02.06.656,Occlusion_Psychophysics,2022.1.4,Win32,60.15761295,,,left,"[""left""]",[0.7212999999524072],False,,0.0,0.0,54.0,54.0,54.0,1.0,,,,,,
,,,,,,,,,,,,,,,,,,,,,0.05,,,,,,,,,,Stimuli/psy_fixed_rotation_30_objects_occ0.7_0.9s/images/train/n02828884_4/n04379243_-7/img_b05_c-5_classic_series_bench-2012_quatre_dining_table_2011_gray.jpg,n02828884_4,n04379243_-7,fixed,0.84459,n03928116_0,Stimuli/psy_flexible_rotation_30_objects_occ0.7_0.9s/images/train/n03001627_9/n03928116_0/img_chair_eames_plastic_armchair_b02_piano_2010-3_gray.png,random,flexible,n02828884_4,n02883344_-1,Stimuli/canonical view 2/img_n02828884_4_gray.jpg,Stimuli/canonical view 2/img_n02883344_-1_gray.jpg,random,right,Experiments/experiment_14/220.jpg,Experiments/experiment_14/221.jpg,Experiments/experiment_14/222.jpg,Experiments/experiment_14/223.jpg,642,1,2023-04-17_17h02.06.656,Occlusion_Psychophysics,2022.1.4,Win32,60.15761295,,,right,"[""right""]",[0.8123000000118736],False,,0.0,0.0,55.0,55.0,55.0,1.0,,,,,,
,,,,,,,,,,,,,,,,,,,,,0.05,,,,,,,,,,Stimuli/psy_fixed_rotation_30_objects_occ0.7_0.9s/images/train/n02828884_4/n04256520_5/img_b05_c-5_classic_series_bench-2012_meridiani_belmondo_bench_sofa_2003_gray.jpg,n02828884_4,n04256520_5,fixed,0.75017,n04256520_5,Stimuli/psy_fixed_rotation_30_objects_occ0.7_0.9s/images/train/n02828884_4/n04256520_5/img_b05_c-5_classic_series_bench-2012_meridiani_belmondo_bench_sofa_2003-3_gray.png,foreground,same as foreground,n02828884_4,n03001627_9,Stimuli/canonical view 2/img_n02828884_4_gray.jpg,Stimuli/canonical view 2/img_n03001627_9_gray.jpg,random,left,Experiments/experiment_14/224.jpg,Experiments/experiment_14/225.jpg,Experiments/experiment_14/226.jpg,Experiments/experiment_14/227.jpg,642,1,2023-04-17_17h02.06.656,Occlusion_Psychophysics,2022.1.4,Win32,60.15761295,,,right,"[""right""]",[0.5764000000356191],False,,0.0,0.0,56.0,56.0,56.0,1.0,,,,,,
,,,,,,,,,,,,,,,,,,,,,0.025,,,,,,,,,,Stimuli/psy_fixed_rotation_30_objects_occ0.7_0.9s/images/train/n04256520_4/n03928116_10/img_club_house_italia_nautilus_sofa_ydp_103_r_2012__vray_2010_gray.jpg,n04256520_4,n03928116_10,fixed,0.778431,n03928116_10,Stimuli/psy_fixed_rotation_30_objects_occ0.7_0.9s/images/train/n04256520_4/n03928116_10/img_club_house_italia_nautilus_sofa_ydp_103_r_2012__vray_2010-3_gray.png,foreground,same as foreground,n04256520_4,n03001627_8,Stimuli/canonical view 2/img_n04256520_4_gray.jpg,Stimuli/canonical view 2/img_n03001627_8_gray.jpg,random,right,Experiments/experiment_14/228.jpg,Experiments/experiment_14/229.jpg,Experiments/experiment_14/230.jpg,Experiments/experiment_14/231.jpg,642,1,2023-04-17_17h02.06.656,Occlusion_Psychophysics,2022.1.4,Win32,60.15761295,,,right,"[""left""]",[0.63719999998807],False,,0.0,0.0,57.0,57.0,57.0,1.0,,,,,,
,,,,,,,,,,,,,,,,,,,,,0.05,,,,,,,,,,Stimuli/psy_flexible_rotation_30_objects_occ0.7_0.9s/images/train/n02933112_-18/n02933112_4/img_cgaxis_models_48_26_vray_composite_buffet_2013_gray.jpg,n02933112_-18,n02933112_4,flexible,0.783665,n04405907_5,Stimuli/psy_fixed_rotation_30_objects_occ0.7_0.9s/images/train/n04256520_5/n04405907_5/img_meridiani_belmondo_bench_sofa_samsung_40_uhd_smart_tv_2011_2011-3_gray.png,random,fixed,n02933112_-18,n02828884_9,Stimuli/canonical view 2/img_n02933112_-18_gray.jpg,Stimuli/canonical view 2/img_n02828884_9_gray.jpg,random,left,Experiments/experiment_14/232.jpg,Experiments/experiment_14/233.jpg,Experiments/experiment_14/234.jpg,Experiments/experiment_14/235.jpg,642,1,2023-04-17_17h02.06.656,Occlusion_Psychophysics,2022.1.4,Win32,60.15761295,,,right,"[""right""]",[0.7562999999522617],False,,0.0,0.0,58.0,58.0,58.0,1.0,,,,,,
,,,,,,,,,,,,,,,,,,,,,0.05,,,,,,,,,,Stimuli/psy_flexible_rotation_30_objects_occ0.7_0.9s/images/train/n04256520_4/n04256520_5/img_club_house_italia_nautilus_sofa_meridiani_belmondo_bench_sofa_2001_gray.jpg,n04256520_4,n04256520_5,flexible,0.767771,n02883344_15,Stimuli/psy_flexible_rotation_30_objects_occ0.7_0.9s/images/train/n02883344_0/n02883344_15/img_b03_box_microwave_box_2007-3_gray.png,random,flexible,n04256520_4,n04256520_5,Stimuli/canonical view 2/img_n04256520_4_gray.jpg,Stimuli/canonical view 2/img_n04256520_5_gray.jpg,foreground,right,Experiments/experiment_14/236.jpg,Experiments/experiment_14/237.jpg,Experiments/experiment_14/238.jpg,Experiments/experiment_14/239.jpg,642,1,2023-04-17_17h02.06.656,Occlusion_Psychophysics,2022.1.4,Win32,60.15761295,,,right,"[""left""]",[0.915399999975989],False,,0.0,0.0,59.0,59.0,59.0,1.0,,,,,,
,,,,,,,,,,,,,,,,,,,,,0.05,,,,,,,,,,Stimuli/psy_flexible_rotation_30_objects_occ0.7_0.9s/images/train/n02933112_-18/n03001627_8/img_cgaxis_models_48_26_vray_composite_chair_billiani_doll_2010_gray.jpg,n02933112_-18,n03001627_8,flexible,0.809731,n03001627_8,Stimuli/psy_flexible_rotation_30_objects_occ0.7_0.9s/images/train/n02933112_-18/n03001627_8/img_cgaxis_models_48_26_vray_composite_chair_billiani_doll_2010-3_gray.png,foreground,same as foreground,n02933112_-18,n03001627_8,Stimuli/canonical view 2/img_n02933112_-18_gray.jpg,Stimuli/canonical view 2/img_n03001627_8_gray.jpg,foreground,right,Experiments/experiment_14/240.jpg,Experiments/experiment_14/241.jpg,Experiments/experiment_14/242.jpg,Experiments/experiment_14/243.jpg,642,1,2023-04-17_17h02.06.656,Occlusion_Psychophysics,2022.1.4,Win32,60.15761295,,,left,"[""left""]",[0.7815000000000509],False,,0.0,0.0,60.0,60.0,60.0,1.0,,,,,,
,,,,,,,,,,,,,,,,,,,,,0.05,,,,,,,,,,Stimuli/psy_flexible_rotation_30_objects_occ0.7_0.9s/images/train/n02883344_0/n04379243_0/img_b03_box_17th_c._monastery_dining_table_2010_2005_gray.jpg,n02883344_0,n04379243_0,flexible,0.71158,n04379243_0,Stimuli/psy_flexible_rotation_30_objects_occ0.7_0.9s/images/train/n02883344_0/n04379243_0/img_b03_box_17th_c._monastery_dining_table_2010_2005-3_gray.png,foreground,same as foreground,n02883344_0,n04379243_0,Stimuli/canonical view 2/img_n02883344_0_gray.jpg,Stimuli/canonical view 2/img_n04379243_0_gray.jpg,foreground,left,Experiments/experiment_14/244.jpg,Experiments/experiment_14/245.jpg,Experiments/experiment_14/246.jpg,Experiments/experiment_14/247.jpg,642,1,2023-04-17_17h02.06.656,Occlusion_Psychophysics,2022.1.4,Win32,60.15761295,,,right,"[""right""]",[1.0198999999761327],False,,0.0,0.0,61.0,61.0,61.0,1.0,,,,,,
,,,,,,,,,,,,,,,,,,,,,0.025,,,,,,,,,,Stimuli/psy_fixed_rotation_30_objects_occ0.7_0.9s/images/train/n04379243_0/n04379243_8/img_17th_c._monastery_dining_table_2010_glass_table_2001_gray.jpg,n04379243_0,n04379243_8,fixed,0.723718,n04405907_9,Stimuli/psy_fixed_rotation_30_objects_occ0.7_0.9s/images/train/n03928116_10/n04405907_9/img_ydp_103_r_2012__vray_vray_004_2007-3_gray.png,random,fixed,n04379243_0,n04256520_5,Stimuli/canonical view 2/img_n04379243_0_gray.jpg,Stimuli/canonical view 2/img_n04256520_5_gray.jpg,random,right,Experiments/experiment_14/248.jpg,Experiments/experiment_14/249.jpg,Experiments/experiment_14/250.jpg,Experiments/experiment_14/251.jpg,642,1,2023-04-17_17h02.06.656,Occlusion_Psychophysics,2022.1.4,Win32,60.15761295,,,right,"[""right""]",[0.7028000000118482],False,,0.0,0.0,62.0,62.0,62.0,1.0,,,,,,
,,,,,,,,,,,,,,,,,,,,,0.025,,,,,,,,,,Stimuli/psy_flexible_rotation_30_objects_occ0.7_0.9s/images/train/n03928116_10/n03928116_0/img_ydp_103_r_2012__vray_b02_piano_2011_gray.jpg,n03928116_10,n03928116_0,flexible,0.730867,n03928116_0,Stimuli/psy_flexible_rotation_30_objects_occ0.7_0.9s/images/train/n03928116_10/n03928116_0/img_ydp_103_r_2012__vray_b02_piano_2011-3_gray.png,foreground,same as foreground,n03928116_10,n02933112_-2,Stimuli/canonical view 2/img_n03928116_10_gray.jpg,Stimuli/canonical view 2/img_n02933112_-2_gray.jpg,random,left,Experiments/experiment_14/252.jpg,Experiments/experiment_14/253.jpg,Experiments/experiment_14/254.jpg,Experiments/experiment_14/255.jpg,642,1,2023-04-17_17h02.06.656,Occlusion_Psychophysics,2022.1.4,Win32,60.15761295,,,left,"[""left""]",[0.6198000000119919],False,,0.0,0.0,63.0,63.0,63.0,1.0,,,,,,
,,,,,,,,,,,,,,,,,,,,,0.025,,,,,,,,,,Stimuli/psy_flexible_rotation_30_objects_occ0.7_0.9s/images/train/n04256520_9/n02883344_-1/img_napoleon_iii_sofa_woven_box_2005_gray.jpg,n04256520_9,n02883344_-1,flexible,0.715876,n04256520_5,Stimuli/psy_fixed_rotation_30_objects_occ0.7_0.9s/images/train/n04379243_8/n04256520_5/img_glass_table_meridiani_belmondo_bench_sofa_2009-3_gray.png,random,fixed,n04256520_9,n03928116_10,Stimuli/canonical view 2/img_n04256520_9_gray.jpg,Stimuli/canonical view 2/img_n03928116_10_gray.jpg,random,left,Experiments/experiment_14/256.jpg,Experiments/experiment_14/257.jpg,Experiments/experiment_14/258.jpg,Experiments/experiment_14/259.jpg,642,1,2023-04-17_17h02.06.656,Occlusion_Psychophysics,2022.1.4,Win32,60.15761295,,,left,"[""left""]",[1.0974000000358046],False,,0.0,0.0,64.0,64.0,64.0,1.0,,,,,,
,,,,,,,,,,,,,,,,,,,,,0.05,,,,,,,,,,Stimuli/psy_fixed_rotation_30_objects_occ0.7_0.9s/images/train/n03928116_10/n04256520_5/img_ydp_103_r_2012__vray_meridiani_belmondo_bench_sofa_2015_gray.jpg,n03928116_10,n04256520_5,fixed,0.75846,n02818832_0,Stimuli/psy_fixed_rotation_30_objects_occ0.7_0.9s/images/train/n04379243_-7/n02818832_0/img_quatre_dining_table_b03_the_sofa_and_chair_company_-_stanley_bed_2014_2006-3_gray.png,random,fixed,n03928116_10,n02818832_0,Stimuli/canonical view 2/img_n03928116_10_gray.jpg,Stimuli/canonical view 2/img_n02818832_0_gray.jpg,random,right,Experiments/experiment_14/260.jpg,Experiments/experiment_14/261.jpg,Experiments/experiment_14/262.jpg,Experiments/experiment_14/263.jpg,642,1,2023-04-17_17h02.06.656,Occlusion_Psychophysics,2022.1.4,Win32,60.15761295,,,left,"[""left""]",[0.6803000000118118],False,,0.0,0.0,65.0,65.0,65.0,1.0,,,,,,
,,,,,,,,,,,,,,,,,,,,,0.025,,,,,,,,,,Stimuli/psy_flexible_rotation_30_objects_occ0.7_0.9s/images/train/n03001627_-2/n04379243_8/img_wood_chair_glass_table_2014_gray.jpg,n03001627_-2,n04379243_8,flexible,0.768229,n02828884_3,Stimuli/psy_fixed_rotation_30_objects_occ0.7_0.9s/images/train/n04405907_9/n02828884_3/img_vray_004_b04_wood_metal_park_bench_2011-3_gray.png,random,fixed,n03001627_-2,n03001627_8,Stimuli/canonical view 2/img_n03001627_-2_gray.jpg,Stimuli/canonical view 2/img_n03001627_8_gray.jpg,random,left,Experiments/experiment_14/264.jpg,Experiments/experiment_14/265.jpg,Experiments/experiment_14/266.jpg,Experiments/experiment_14/267.jpg,642,1,2023-04-17_17h02.06.656,Occlusion_Psychophysics,2022.1.4,Win32,60.15761295,,,right,"[""right""]",[0.5766999999882501],False,,0.0,0.0,66.0,66.0,66.0,1.0,,,,,,
,,,,,,,,,,,,,,,,,,,,,0.025,,,,,,,,,,Stimuli/psy_flexible_rotation_30_objects_occ0.7_0.9s/images/train/n02818832_0/n04379243_-7/img_b03_the_sofa_and_chair_company_-_stanley_bed_2014_quatre_dining_table_2001_gray.jpg,n02818832_0,n04379243_-7,flexible,0.721903,n02828884_3,Stimuli/psy_fixed_rotation_30_objects_occ0.7_0.9s/images/train/n02883344_15/n02828884_3/img_microwave_box_b04_wood_metal_park_bench_2009-3_gray.png,random,fixed,n02818832_0,n04379243_-7,Stimuli/canonical view 2/img_n02818832_0_gray.jpg,Stimuli/canonical view 2/img_n04379243_-7_gray.jpg,foreground,right,Experiments/experiment_14/268.jpg,Experiments/experiment_14/269.jpg,Experiments/experiment_14/270.jpg,Experiments/experiment_14/271.jpg,642,1,2023-04-17_17h02.06.656,Occlusion_Psychophysics,2022.1.4,Win32,60.15761295,,,right,"[""left""]",[0.6438000000118791],False,,0.0,0.0,67.0,67.0,67.0,1.0,,,,,,
,,,,,,,,,,,,,,,,,,,,,0.05,,,,,,,,,,Stimuli/psy_fixed_rotation_30_objects_occ0.7_0.9s/images/train/n02933112_-18/n04405907_9/img_cgaxis_models_48_26_vray_composite_vray_004_2013_gray.jpg,n02933112_-18,n04405907_9,fixed,0.806856,n02933112_-18,Stimuli/psy_flexible_rotation_30_objects_occ0.7_0.9s/images/train/n02818832_9/n02933112_-18/img_bed01_blue_cgaxis_models_48_26_vray_composite_2004-3_gray.png,random,flexible,n02933112_-18,n03928116_0,Stimuli/canonical view 2/img_n02933112_-18_gray.jpg,Stimuli/canonical view 2/img_n03928116_0_gray.jpg,random,left,Experiments/experiment_14/272.jpg,Experiments/experiment_14/273.jpg,Experiments/experiment_14/274.jpg,Experiments/experiment_14/275.jpg,642,1,2023-04-17_17h02.06.656,Occlusion_Psychophysics,2022.1.4,Win32,60.15761295,,,left,"[""left""]",[0.5546999999880882],False,,0.0,0.0,68.0,68.0,68.0,1.0,,,,,,
,,,,,,,,,,,,,,,,,,,,,0.025,,,,,,,,,,Stimuli/psy_flexible_rotation_30_objects_occ0.7_0.9s/images/train/n02883344_15/n02818832_9/img_microwave_box_bed01_blue_2000_gray.jpg,n02883344_15,n02818832_9,flexible,0.700108,n02818832_9,Stimuli/psy_flexible_rotation_30_objects_occ0.7_0.9s/images/train/n02883344_15/n02818832_9/img_microwave_box_bed01_blue_2000-3_gray.png,foreground,same as foreground,n02883344_15,n04256520_4,Stimuli/canonical view 2/img_n02883344_15_gray.jpg,Stimuli/canonical view 2/img_n04256520_4_gray.jpg,random,right,Experiments/experiment_14/276.jpg,Experiments/experiment_14/277.jpg,Experiments/experiment_14/278.jpg,Experiments/experiment_14/279.jpg,642,1,2023-04-17_17h02.06.656,Occlusion_Psychophysics,2022.1.4,Win32,60.15761295,,,left,"[""right""]",[0.6816999999880409],False,,0.0,0.0,69.0,69.0,69.0,1.0,,,,,,
,,,,,,,,,,,,,,,,,,,,,0.025,,,,,,,,,,Stimuli/psy_flexible_rotation_30_objects_occ0.7_0.9s/images/train/n04379243_8/n02818832_9/img_glass_table_bed01_blue_2014_gray.jpg,n04379243_8,n02818832_9,flexible,0.795296,n02818832_9,Stimuli/psy_flexible_rotation_30_objects_occ0.7_0.9s/images/train/n04379243_8/n02818832_9/img_glass_table_bed01_blue_2014-3_gray.png,foreground,same as foreground,n04379243_8,n03001627_-2,Stimuli/canonical view 2/img_n04379243_8_gray.jpg,Stimuli/canonical view 2/img_n03001627_-2_gray.jpg,random,left,Experiments/experiment_14/280.jpg,Experiments/experiment_14/281.jpg,Experiments/experiment_14/282.jpg,Experiments/experiment_14/283.jpg,642,1,2023-04-17_17h02.06.656,Occlusion_Psychophysics,2022.1.4,Win32,60.15761295,,,left,"[""left""]",[0.6523000000120192],False,,0.0,0.0,70.0,70.0,70.0,1.0,,,,,,
,,,,,,,,,,,,,,,,,,,,,0.05,,,,,,,,,,Stimuli/psy_flexible_rotation_30_objects_occ0.7_0.9s/images/train/n04256520_9/n02883344_15/img_napoleon_iii_sofa_microwave_box_2004_gray.jpg,n04256520_9,n02883344_15,flexible,0.747993,n02883344_15,Stimuli/psy_flexible_rotation_30_objects_occ0.7_0.9s/images/train/n04256520_9/n02883344_15/img_napoleon_iii_sofa_microwave_box_2004-3_gray.png,foreground,same as foreground,n04256520_9,n02883344_15,Stimuli/canonical view 2/img_n04256520_9_gray.jpg,Stimuli/canonical view 2/img_n02883344_15_gray.jpg,foreground,right,Experiments/experiment_14/284.jpg,Experiments/experiment_14/285.jpg,Experiments/experiment_14/286.jpg,Experiments/experiment_14/287.jpg,642,1,2023-04-17_17h02.06.656,Occlusion_Psychophysics,2022.1.4,Win32,60.15761295,,,left,"[""left""]",[0.9659000000358446],False,,0.0,0.0,71.0,71.0,71.0,1.0,,,,,,
,,,,,,,,,,,,,,,,,,,,,0.05,,,,,,,,,,Stimuli/psy_fixed_rotation_30_objects_occ0.7_0.9s/images/train/n03001627_8/n04405907_5/img_chair_billiani_doll_samsung_40_uhd_smart_tv_2011_2003_gray.jpg,n03001627_8,n04405907_5,fixed,0.756668,n04405907_5,Stimuli/psy_fixed_rotation_30_objects_occ0.7_0.9s/images/train/n03001627_8/n04405907_5/img_chair_billiani_doll_samsung_40_uhd_smart_tv_2011_2003-3_gray.png,foreground,same as foreground,n03001627_8,n04405907_5,Stimuli/canonical view 2/img_n03001627_8_gray.jpg,Stimuli/canonical view 2/img_n04405907_5_gray.jpg,foreground,left,Experiments/experiment_14/288.jpg,Experiments/experiment_14/289.jpg,Experiments/experiment_14/290.jpg,Experiments/experiment_14/291.jpg,642,1,2023-04-17_17h02.06.656,Occlusion_Psychophysics,2022.1.4,Win32,60.15761295,,,left,"[""right""]",[0.7454000000359429],False,,0.0,0.0,72.0,72.0,72.0,1.0,,,,,,
,,,,,,,,,,,,,,,,,,,,,0.05,,,,,,,,,,Stimuli/psy_fixed_rotation_30_objects_occ0.7_0.9s/images/train/n03001627_-2/n02933112_4/img_wood_chair_buffet_2004_gray.jpg,n03001627_-2,n02933112_4,fixed,0.729158,n02818832_3,Stimuli/psy_fixed_rotation_30_objects_occ0.7_0.9s/images/train/n04070727_5/n02818832_3/img_b05_db_apps_tech_06_13_composite_b05_ccm_contemporary_bed_max2013_2000-3_gray.png,random,fixed,n03001627_-2,n04379243_8,Stimuli/canonical view 2/img_n03001627_-2_gray.jpg,Stimuli/canonical view 2/img_n04379243_8_gray.jpg,random,right,Experiments/experiment_14/292.jpg,Experiments/experiment_14/293.jpg,Experiments/experiment_14/294.jpg,Experiments/experiment_14/295.jpg,642,1,2023-04-17_17h02.06.656,Occlusion_Psychophysics,2022.1.4,Win32,60.15761295,,,left,"[""left""]",[0.5536000000238346],False,,0.0,0.0,73.0,73.0,73.0,1.0,,,,,,
,,,,,,,,,,,,,,,,,,,,,0.025,,,,,,,,,,Stimuli/psy_flexible_rotation_30_objects_occ0.7_0.9s/images/train/n03928116_4/n04405907_5/img_dp_33_b_2013__vray_samsung_40_uhd_smart_tv_2011_2011_gray.jpg,n03928116_4,n04405907_5,flexible,0.723203,n04405907_5,Stimuli/psy_flexible_rotation_30_objects_occ0.7_0.9s/images/train/n03928116_4/n04405907_5/img_dp_33_b_2013__vray_samsung_40_uhd_smart_tv_2011_2011-3_gray.png,foreground,same as foreground,n03928116_4,n04405907_5,Stimuli/canonical view 2/img_n03928116_4_gray.jpg,Stimuli/canonical view 2/img_n04405907_5_gray.jpg,foreground,right,Experiments/experiment_14/296.jpg,Experiments/experiment_14/297.jpg,Experiments/experiment_14/298.jpg,Experiments/experiment_14/299.jpg,642,1,2023-04-17_17h02.06.656,Occlusion_Psychophysics,2022.1.4,Win32,60.15761295,,,right,"[""left""]",[0.6804999999999382],False,,0.0,0.0,74.0,74.0,74.0,1.0,,,,,,
,,,,,,,,,,,,,,,,,,,,,0.05,,,,,,,,,,Stimuli/psy_fixed_rotation_30_objects_occ0.7_0.9s/images/train/n03928116_10/n04256520_5/img_ydp_103_r_2012__vray_meridiani_belmondo_bench_sofa_2000_gray.jpg,n03928116_10,n04256520_5,fixed,0.752646,n02883344_0,Stimuli/psy_fixed_rotation_30_objects_occ0.7_0.9s/images/train/n04256520_4/n02883344_0/img_club_house_italia_nautilus_sofa_b03_box_2001-3_gray.png,random,fixed,n03928116_10,n04256520_5,Stimuli/canonical view 2/img_n03928116_10_gray.jpg,Stimuli/canonical view 2/img_n04256520_5_gray.jpg,foreground,left,Experiments/experiment_14/300.jpg,Experiments/experiment_14/301.jpg,Experiments/experiment_14/302.jpg,Experiments/experiment_14/303.jpg,642,1,2023-04-17_17h02.06.656,Occlusion_Psychophysics,2022.1.4,Win32,60.15761295,,,left,"[""left""]",[0.7471000000239201],False,,0.0,0.0,75.0,75.0,75.0,1.0,,,,,,
,,,,,,,,,,,,,,,,,,,,,0.025,,,,,,,,,,Stimuli/psy_flexible_rotation_30_objects_occ0.7_0.9s/images/train/n02818832_0/n04405907_9/img_b03_the_sofa_and_chair_company_-_stanley_bed_2014_vray_004_2009_gray.jpg,n02818832_0,n04405907_9,flexible,0.812249,n04405907_9,Stimuli/psy_flexible_rotation_30_objects_occ0.7_0.9s/images/train/n02818832_0/n04405907_9/img_b03_the_sofa_and_chair_company_-_stanley_bed_2014_vray_004_2009-3_gray.png,foreground,same as foreground,n02818832_0,n04405907_9,Stimuli/canonical view 2/img_n02818832_0_gray.jpg,Stimuli/canonical view 2/img_n04405907_9_gray.jpg,foreground,left,Experiments/experiment_14/304.jpg,Experiments/experiment_14/305.jpg,Experiments/experiment_14/306.jpg,Experiments/experiment_14/307.jpg,642,1,2023-04-17_17h02.06.656,Occlusion_Psychophysics,2022.1.4,Win32,60.15761295,,,left,"[""left""]",[0.8133999999761272],False,,0.0,0.0,76.0,76.0,76.0,1.0,,,,,,
,,,,,,,,,,,,,,,,,,,,,0.025,,,,,,,,,,Stimuli/psy_fixed_rotation_30_objects_occ0.7_0.9s/images/train/n04405907_5/n02828884_4/img_samsung_40_uhd_smart_tv_2011_b05_c-5_classic_series_bench-2012_2003_gray.jpg,n04405907_5,n02828884_4,fixed,0.769555,n02828884_4,Stimuli/psy_fixed_rotation_30_objects_occ0.7_0.9s/images/train/n04405907_5/n02828884_4/img_samsung_40_uhd_smart_tv_2011_b05_c-5_classic_series_bench-2012_2003-3_gray.png,foreground,same as foreground,n04405907_5,n02818832_3,Stimuli/canonical view 2/img_n04405907_5_gray.jpg,Stimuli/canonical view 2/img_n02818832_3_gray.jpg,random,right,Experiments/experiment_14/308.jpg,Experiments/experiment_14/309.jpg,Experiments/experiment_14/310.jpg,Experiments/experiment_14/311.jpg,642,1,2023-04-17_17h02.06.656,Occlusion_Psychophysics,2022.1.4,Win32,60.15761295,,,right,"[""right""]",[0.7424000000357864],False,,0.0,0.0,77.0,77.0,77.0,1.0,,,,,,
,,,,,,,,,,,,,,,,,,,,,0.05,,,,,,,,,,Stimuli/psy_flexible_rotation_30_objects_occ0.7_0.9s/images/train/n04256520_4/n02818832_9/img_club_house_italia_nautilus_sofa_bed01_blue_2007_gray.jpg,n04256520_4,n02818832_9,flexible,0.768962,n04379243_0,Stimuli/psy_fixed_rotation_30_objects_occ0.7_0.9s/images/train/n02933112_4/n04379243_0/img_buffet_17th_c._monastery_dining_table_2010_2007-3_gray.png,random,fixed,n04256520_4,n02818832_9,Stimuli/canonical view 2/img_n04256520_4_gray.jpg,Stimuli/canonical view 2/img_n02818832_9_gray.jpg,foreground,left,Experiments/experiment_14/312.jpg,Experiments/experiment_14/313.jpg,Experiments/experiment_14/314.jpg,Experiments/experiment_14/315.jpg,642,1,2023-04-17_17h02.06.656,Occlusion_Psychophysics,2022.1.4,Win32,60.15761295,,,left,"[""left""]",[1.1608000000119318],False,,0.0,0.0,78.0,78.0,78.0,1.0,,,,,,
,,,,,,,,,,,,,,,,,,,,,0.05,,,,,,,,,,Stimuli/psy_fixed_rotation_30_objects_occ0.7_0.9s/images/train/n04379243_-7/n03928116_4/img_quatre_dining_table_dp_33_b_2013__vray_2012_gray.jpg,n04379243_-7,n03928116_4,fixed,0.72852,n03928116_4,Stimuli/psy_fixed_rotation_30_objects_occ0.7_0.9s/images/train/n04379243_-7/n03928116_4/img_quatre_dining_table_dp_33_b_2013__vray_2012-3_gray.png,foreground,same as foreground,n04379243_-7,n03928116_4,Stimuli/canonical view 2/img_n04379243_-7_gray.jpg,Stimuli/canonical view 2/img_n03928116_4_gray.jpg,foreground,right,Experiments/experiment_14/316.jpg,Experiments/experiment_14/317.jpg,Experiments/experiment_14/318.jpg,Experiments/experiment_14/319.jpg,642,1,2023-04-17_17h02.06.656,Occlusion_Psychophysics,2022.1.4,Win32,60.15761295,,,left,"[""left""]",[1.2425999999641135],False,,0.0,0.0,79.0,79.0,79.0,1.0,,,,,,
,,,,,,,,,,,,,,,,,,,,,0.025,,,,,,,,,,Stimuli/psy_fixed_rotation_30_objects_occ0.7_0.9s/images/train/n04379243_8/n04405907_9/img_glass_table_vray_004_2014_gray.jpg,n04379243_8,n04405907_9,fixed,0.717915,n04405907_9,Stimuli/psy_fixed_rotation_30_objects_occ0.7_0.9s/images/train/n04379243_8/n04405907_9/img_glass_table_vray_004_2014-3_gray.png,foreground,same as foreground,n04379243_8,n02933112_-18,Stimuli/canonical view 2/img_n04379243_8_gray.jpg,Stimuli/canonical view 2/img_n02933112_-18_gray.jpg,random,right,Experiments/experiment_14/320.jpg,Experiments/experiment_14/321.jpg,Experiments/experiment_14/322.jpg,Experiments/experiment_14/323.jpg,642,1,2023-04-17_17h02.06.656,Occlusion_Psychophysics,2022.1.4,Win32,60.15761295,,,left,"[""left""]",[0.7141000000237909],False,,0.0,0.0,80.0,80.0,80.0,1.0,,,,,,
,,,,,,,,,,,,,,,,,,,,,0.05,,,,,,,,,,Stimuli/psy_flexible_rotation_30_objects_occ0.7_0.9s/images/train/n04256520_9/n04405907_8/img_napoleon_iii_sofa_stylized_tv_2003_gray.jpg,n04256520_9,n04405907_8,flexible,0.871508,n03928116_10,Stimuli/psy_fixed_rotation_30_objects_occ0.7_0.9s/images/train/n04405907_8/n03928116_10/img_stylized_tv_ydp_103_r_2012__vray_2007-3_gray.png,random,fixed,n04256520_9,n03001627_-2,Stimuli/canonical view 2/img_n04256520_9_gray.jpg,Stimuli/canonical view 2/img_n03001627_-2_gray.jpg,random,left,Experiments/experiment_14/324.jpg,Experiments/experiment_14/325.jpg,Experiments/experiment_14/326.jpg,Experiments/experiment_14/327.jpg,642,1,2023-04-17_17h02.06.656,Occlusion_Psychophysics,2022.1.4,Win32,60.15761295,,,right,"[""left""]",[0.8135000000002037],False,,0.0,0.0,81.0,81.0,81.0,1.0,,,,,,
,,,,,,,,,,,,,,,,,,,,,0.05,,,,,,,,,,Stimuli/psy_flexible_rotation_30_objects_occ0.7_0.9s/images/train/n04379243_8/n04405907_9/img_glass_table_vray_004_2008_gray.jpg,n04379243_8,n04405907_9,flexible,0.785476,n04256520_5,Stimuli/psy_fixed_rotation_30_objects_occ0.7_0.9s/images/train/n02933112_4/n04256520_5/img_buffet_meridiani_belmondo_bench_sofa_2004-3_gray.png,random,fixed,n04379243_8,n04405907_9,Stimuli/canonical view 2/img_n04379243_8_gray.jpg,Stimuli/canonical view 2/img_n04405907_9_gray.jpg,foreground,right,Experiments/experiment_14/328.jpg,Experiments/experiment_14/329.jpg,Experiments/experiment_14/330.jpg,Experiments/experiment_14/331.jpg,642,1,2023-04-17_17h02.06.656,Occlusion_Psychophysics,2022.1.4,Win32,60.15761295,,,right,"[""right""]",[0.6468999999763128],False,,0.0,0.0,82.0,82.0,82.0,1.0,,,,,,
,,,,,,,,,,,,,,,,,,,,,0.025,,,,,,,,,,Stimuli/psy_fixed_rotation_30_objects_occ0.7_0.9s/images/train/n03928116_4/n02933112_4/img_dp_33_b_2013__vray_buffet_2014_gray.jpg,n03928116_4,n02933112_4,fixed,0.780197,n02933112_4,Stimuli/psy_fixed_rotation_30_objects_occ0.7_0.9s/images/train/n03928116_4/n02933112_4/img_dp_33_b_2013__vray_buffet_2014-3_gray.png,foreground,same as foreground,n03928116_4,n02883344_0,Stimuli/canonical view 2/img_n03928116_4_gray.jpg,Stimuli/canonical view 2/img_n02883344_0_gray.jpg,random,left,Experiments/experiment_14/332.jpg,Experiments/experiment_14/333.jpg,Experiments/experiment_14/334.jpg,Experiments/experiment_14/335.jpg,642,1,2023-04-17_17h02.06.656,Occlusion_Psychophysics,2022.1.4,Win32,60.15761295,,,left,"[""right""]",[0.7968000000118991],False,,0.0,0.0,83.0,83.0,83.0,1.0,,,,,,
,,,,,,,,,,,,,,,,,,,,,0.05,,,,,,,,,,Stimuli/psy_fixed_rotation_30_objects_occ0.7_0.9s/images/train/n04379243_-7/n04256520_5/img_quatre_dining_table_meridiani_belmondo_bench_sofa_2012_gray.jpg,n04379243_-7,n04256520_5,fixed,0.749968,n04379243_0,Stimuli/psy_flexible_rotation_30_objects_occ0.7_0.9s/images/train/n04405907_5/n04379243_0/img_samsung_40_uhd_smart_tv_2011_17th_c._monastery_dining_table_2010_2006-3_gray.png,random,flexible,n04379243_-7,n02883344_15,Stimuli/canonical view 2/img_n04379243_-7_gray.jpg,Stimuli/canonical view 2/img_n02883344_15_gray.jpg,random,right,Experiments/experiment_14/336.jpg,Experiments/experiment_14/337.jpg,Experiments/experiment_14/338.jpg,Experiments/experiment_14/339.jpg,642,1,2023-04-17_17h02.06.656,Occlusion_Psychophysics,2022.1.4,Win32,60.15761295,,,right,"[""left""]",[1.2696999999880063],False,,0.0,0.0,84.0,84.0,84.0,1.0,,,,,,
,,,,,,,,,,,,,,,,,,,,,0.025,,,,,,,,,,Stimuli/psy_fixed_rotation_30_objects_occ0.7_0.9s/images/train/n02883344_15/n02828884_3/img_microwave_box_b04_wood_metal_park_bench_2005_gray.jpg,n02883344_15,n02828884_3,fixed,0.710044,n03928116_10,Stimuli/psy_fixed_rotation_30_objects_occ0.7_0.9s/images/train/n04256520_9/n03928116_10/img_napoleon_iii_sofa_ydp_103_r_2012__vray_2013-3_gray.png,random,fixed,n02883344_15,n02828884_3,Stimuli/canonical view 2/img_n02883344_15_gray.jpg,Stimuli/canonical view 2/img_n02828884_3_gray.jpg,foreground,right,Experiments/experiment_14/340.jpg,Experiments/experiment_14/341.jpg,Experiments/experiment_14/342.jpg,Experiments/experiment_14/343.jpg,642,1,2023-04-17_17h02.06.656,Occlusion_Psychophysics,2022.1.4,Win32,60.15761295,,,left,"[""left""]",[0.7725000000000364],False,,0.0,0.0,85.0,85.0,85.0,1.0,,,,,,
,,,,,,,,,,,,,,,,,,,,,0.025,,,,,,,,,,Stimuli/psy_fixed_rotation_30_objects_occ0.7_0.9s/images/train/n04405907_9/n02883344_0/img_vray_004_b03_box_2011_gray.jpg,n04405907_9,n02883344_0,fixed,0.733275,n02818832_3,Stimuli/psy_flexible_rotation_30_objects_occ0.7_0.9s/images/train/n02818832_0/n02818832_3/img_b03_the_sofa_and_chair_company_-_stanley_bed_2014_b05_ccm_contemporary_bed_max2013_2002-3_gray.png,random,flexible,n04405907_9,n02883344_0,Stimuli/canonical view 2/img_n04405907_9_gray.jpg,Stimuli/canonical view 2/img_n02883344_0_gray.jpg,foreground,right,Experiments/experiment_14/344.jpg,Experiments/experiment_14/345.jpg,Experiments/experiment_14/346.jpg,Experiments/experiment_14/347.jpg,642,1,2023-04-17_17h02.06.656,Occlusion_Psychophysics,2022.1.4,Win32,60.15761295,,,left,"[""right""]",[0.7196999999880518],False,,0.0,0.0,86.0,86.0,86.0,1.0,,,,,,
,,,,,,,,,,,,,,,,,,,,,0.025,,,,,,,,,,Stimuli/psy_flexible_rotation_30_objects_occ0.7_0.9s/images/train/n04256520_9/n04379243_0/img_napoleon_iii_sofa_17th_c._monastery_dining_table_2010_2007_gray.jpg,n04256520_9,n04379243_0,flexible,0.794459,n02883344_15,Stimuli/psy_flexible_rotation_30_objects_occ0.7_0.9s/images/train/n04070727_0/n02883344_15/img_b03_ka90ivi20r_2013__vray_microwave_box_2015-3_gray.png,random,flexible,n04256520_9,n04405907_5,Stimuli/canonical view 2/img_n04256520_9_gray.jpg,Stimuli/canonical view 2/img_n04405907_5_gray.jpg,random,right,Experiments/experiment_14/348.jpg,Experiments/experiment_14/349.jpg,Experiments/experiment_14/350.jpg,Experiments/experiment_14/351.jpg,642,1,2023-04-17_17h02.06.656,Occlusion_Psychophysics,2022.1.4,Win32,60.15761295,,,left,"[""left""]",[0.7386999999880572],True,right,1.0,0.0,87.0,87.0,87.0,1.0,2.4468,,,,,
,,,,,,,,,,,,,,,,,,,,,0.05,,,,,,,,,,Stimuli/psy_fixed_rotation_30_objects_occ0.7_0.9s/images/train/n03001627_9/n04405907_8/img_chair_eames_plastic_armchair_stylized_tv_2002_gray.jpg,n03001627_9,n04405907_8,fixed,0.714916,n04405907_8,Stimuli/psy_fixed_rotation_30_objects_occ0.7_0.9s/images/train/n03001627_9/n04405907_8/img_chair_eames_plastic_armchair_stylized_tv_2002-3_gray.png,foreground,same as foreground,n03001627_9,n04405907_5,Stimuli/canonical view 2/img_n03001627_9_gray.jpg,Stimuli/canonical view 2/img_n04405907_5_gray.jpg,random,right,Experiments/experiment_14/352.jpg,Experiments/experiment_14/353.jpg,Experiments/experiment_14/354.jpg,Experiments/experiment_14/355.jpg,642,1,2023-04-17_17h02.06.656,Occlusion_Psychophysics,2022.1.4,Win32,60.15761295,,,right,"[""left""]",[1.2752999999524945],False,,0.0,0.0,88.0,88.0,88.0,1.0,,,,,,
,,,,,,,,,,,,,,,,,,,,,0.05,,,,,,,,,,Stimuli/psy_fixed_rotation_30_objects_occ0.7_0.9s/images/train/n02933112_-2/n04256520_4/img_sink_base_white_wood_club_house_italia_nautilus_sofa_2015_gray.jpg,n02933112_-2,n04256520_4,fixed,0.713786,n02883344_15,Stimuli/psy_fixed_rotation_30_objects_occ0.7_0.9s/images/train/n04256520_9/n02883344_15/img_napoleon_iii_sofa_microwave_box_2011-3_gray.png,random,fixed,n02933112_-2,n04256520_4,Stimuli/canonical view 2/img_n02933112_-2_gray.jpg,Stimuli/canonical view 2/img_n04256520_4_gray.jpg,foreground,left,Experiments/experiment_14/356.jpg,Experiments/experiment_14/357.jpg,Experiments/experiment_14/358.jpg,Experiments/experiment_14/359.jpg,642,1,2023-04-17_17h02.06.656,Occlusion_Psychophysics,2022.1.4,Win32,60.15761295,,,left,"[""left""]",[0.9712000000477019],False,,0.0,0.0,89.0,89.0,89.0,1.0,,,,,,
,,,,,,,,,,,,,,,,,,,,,0.025,,,,,,,,,,Stimuli/psy_fixed_rotation_30_objects_occ0.7_0.9s/images/train/n04256520_4/n04405907_9/img_club_house_italia_nautilus_sofa_vray_004_2011_gray.jpg,n04256520_4,n04405907_9,fixed,0.757891,n02933112_-2,Stimuli/psy_flexible_rotation_30_objects_occ0.7_0.9s/images/train/n04379243_8/n02933112_-2/img_glass_table_sink_base_white_wood_2007-3_gray.png,random,flexible,n04256520_4,n04405907_8,Stimuli/canonical view 2/img_n04256520_4_gray.jpg,Stimuli/canonical view 2/img_n04405907_8_gray.jpg,random,right,Experiments/experiment_14/360.jpg,Experiments/experiment_14/361.jpg,Experiments/experiment_14/362.jpg,Experiments/experiment_14/363.jpg,642,1,2023-04-17_17h02.06.656,Occlusion_Psychophysics,2022.1.4,Win32,60.15761295,,,right,"[""right""]",[0.7480000000000473],False,,0.0,0.0,90.0,90.0,90.0,1.0,,,,,,
,,,,,,,,,,,,,,,,,,,,,0.05,,,,,,,,,,Stimuli/psy_fixed_rotation_30_objects_occ0.7_0.9s/images/train/n04256520_4/n04405907_5/img_club_house_italia_nautilus_sofa_samsung_40_uhd_smart_tv_2011_2006_gray.jpg,n04256520_4,n04405907_5,fixed,0.752104,n04379243_-7,Stimuli/psy_flexible_rotation_30_objects_occ0.7_0.9s/images/train/n03928116_0/n04379243_-7/img_b02_piano_quatre_dining_table_2010-3_gray.png,random,flexible,n04256520_4,n04405907_5,Stimuli/canonical view 2/img_n04256520_4_gray.jpg,Stimuli/canonical view 2/img_n04405907_5_gray.jpg,foreground,left,Experiments/experiment_14/364.jpg,Experiments/experiment_14/365.jpg,Experiments/experiment_14/366.jpg,Experiments/experiment_14/367.jpg,642,1,2023-04-17_17h02.06.656,Occlusion_Psychophysics,2022.1.4,Win32,60.15761295,,,left,"[""left""]",[0.9773000000120646],False,,0.0,0.0,91.0,91.0,91.0,1.0,,,,,,
,,,,,,,,,,,,,,,,,,,,,0.025,,,,,,,,,,Stimuli/psy_flexible_rotation_30_objects_occ0.7_0.9s/images/train/n02933112_-2/n02883344_15/img_sink_base_white_wood_microwave_box_2010_gray.jpg,n02933112_-2,n02883344_15,flexible,0.820179,n02883344_15,Stimuli/psy_flexible_rotation_30_objects_occ0.7_0.9s/images/train/n02933112_-2/n02883344_15/img_sink_base_white_wood_microwave_box_2010-3_gray.png,foreground,same as foreground,n02933112_-2,n02828884_4,Stimuli/canonical view 2/img_n02933112_-2_gray.jpg,Stimuli/canonical view 2/img_n02828884_4_gray.jpg,random,left,Experiments/experiment_14/368.jpg,Experiments/experiment_14/369.jpg,Experiments/experiment_14/370.jpg,Experiments/experiment_14/371.jpg,642,1,2023-04-17_17h02.06.656,Occlusion_Psychophysics,2022.1.4,Win32,60.15761295,,,left,"[""left""]",[0.854100000023891],False,,0.0,0.0,92.0,92.0,92.0,1.0,,,,,,
,,,,,,,,,,,,,,,,,,,,,0.05,,,,,,,,,,Stimuli/psy_fixed_rotation_30_objects_occ0.7_0.9s/images/train/n02818832_3/n03928116_4/img_b05_ccm_contemporary_bed_max2013_dp_33_b_2013__vray_2013_gray.jpg,n02818832_3,n03928116_4,fixed,0.701826,n03928116_4,Stimuli/psy_fixed_rotation_30_objects_occ0.7_0.9s/images/train/n02818832_3/n03928116_4/img_b05_ccm_contemporary_bed_max2013_dp_33_b_2013__vray_2013-3_gray.png,foreground,same as foreground,n02818832_3,n03928116_4,Stimuli/canonical view 2/img_n02818832_3_gray.jpg,Stimuli/canonical view 2/img_n03928116_4_gray.jpg,foreground,right,Experiments/experiment_14/372.jpg,Experiments/experiment_14/373.jpg,Experiments/experiment_14/374.jpg,Experiments/experiment_14/375.jpg,642,1,2023-04-17_17h02.06.656,Occlusion_Psychophysics,2022.1.4,Win32,60.15761295,,,right,"[""right""]",[0.8990000000001146],False,,0.0,0.0,93.0,93.0,93.0,1.0,,,,,,
,,,,,,,,,,,,,,,,,,,,,0.05,,,,,,,,,,Stimuli/psy_fixed_rotation_30_objects_occ0.7_0.9s/images/train/n02828884_3/n04256520_9/img_b04_wood_metal_park_bench_napoleon_iii_sofa_2002_gray.jpg,n02828884_3,n04256520_9,fixed,0.71096,n04256520_9,Stimuli/psy_fixed_rotation_30_objects_occ0.7_0.9s/images/train/n02828884_3/n04256520_9/img_b04_wood_metal_park_bench_napoleon_iii_sofa_2002-3_gray.png,foreground,same as foreground,n02828884_3,n02883344_-1,Stimuli/canonical view 2/img_n02828884_3_gray.jpg,Stimuli/canonical view 2/img_n02883344_-1_gray.jpg,random,right,Experiments/experiment_14/376.jpg,Experiments/experiment_14/377.jpg,Experiments/experiment_14/378.jpg,Experiments/experiment_14/379.jpg,642,1,2023-04-17_17h02.06.656,Occlusion_Psychophysics,2022.1.4,Win32,60.15761295,,,right,"[""right""]",[0.8083000000117408],False,,0.0,0.0,94.0,94.0,94.0,1.0,,,,,,
,,,,,,,,,,,,,,,,,,,,,0.05,,,,,,,,,,Stimuli/psy_fixed_rotation_30_objects_occ0.7_0.9s/images/train/n02828884_3/n02883344_15/img_b04_wood_metal_park_bench_microwave_box_2009_gray.jpg,n02828884_3,n02883344_15,fixed,0.760425,n02883344_15,Stimuli/psy_fixed_rotation_30_objects_occ0.7_0.9s/images/train/n02828884_3/n02883344_15/img_b04_wood_metal_park_bench_microwave_box_2009-3_gray.png,foreground,same as foreground,n02828884_3,n02818832_3,Stimuli/canonical view 2/img_n02828884_3_gray.jpg,Stimuli/canonical view 2/img_n02818832_3_gray.jpg,random,right,Experiments/experiment_14/380.jpg,Experiments/experiment_14/381.jpg,Experiments/experiment_14/382.jpg,Experiments/experiment_14/383.jpg,642,1,2023-04-17_17h02.06.656,Occlusion_Psychophysics,2022.1.4,Win32,60.15761295,,,right,"[""right""]",[0.7420000000001892],False,,0.0,0.0,95.0,95.0,95.0,1.0,,,,,,
,,,,,,,,,,,,,,,,,,,,,0.025,,,,,,,,,,Stimuli/psy_flexible_rotation_30_objects_occ0.7_0.9s/images/train/n02883344_0/n03928116_0/img_b03_box_b02_piano_2015_gray.jpg,n02883344_0,n03928116_0,flexible,0.792048,n03928116_0,Stimuli/psy_flexible_rotation_30_objects_occ0.7_0.9s/images/train/n02883344_0/n03928116_0/img_b03_box_b02_piano_2015-3_gray.png,foreground,same as foreground,n02883344_0,n03928116_0,Stimuli/canonical view 2/img_n02883344_0_gray.jpg,Stimuli/canonical view 2/img_n03928116_0_gray.jpg,foreground,left,Experiments/experiment_14/384.jpg,Experiments/experiment_14/385.jpg,Experiments/experiment_14/386.jpg,Experiments/experiment_14/387.jpg,642,1,2023-04-17_17h02.06.656,Occlusion_Psychophysics,2022.1.4,Win32,60.15761295,,,left,"[""left""]",[2.0738000000119428],False,,0.0,0.0,96.0,96.0,96.0,1.0,,,,,,
,,,,,,,,,,,,,,,,,,,,,0.05,,,,,,,,,,Stimuli/psy_flexible_rotation_30_objects_occ0.7_0.9s/images/train/n04379243_8/n02883344_-1/img_glass_table_woven_box_2006_gray.jpg,n04379243_8,n02883344_-1,flexible,0.796465,n02883344_-1,Stimuli/psy_flexible_rotation_30_objects_occ0.7_0.9s/images/train/n04379243_8/n02883344_-1/img_glass_table_woven_box_2006-3_gray.png,foreground,same as foreground,n04379243_8,n02933112_4,Stimuli/canonical view 2/img_n04379243_8_gray.jpg,Stimuli/canonical view 2/img_n02933112_4_gray.jpg,random,left,Experiments/experiment_14/388.jpg,Experiments/experiment_14/389.jpg,Experiments/experiment_14/390.jpg,Experiments/experiment_14/391.jpg,642,1,2023-04-17_17h02.06.656,Occlusion_Psychophysics,2022.1.4,Win32,60.15761295,,,left,"[""left""]",[0.6796999999880882],False,,0.0,0.0,97.0,97.0,97.0,1.0,,,,,,
,,,,,,,,,,,,,,,,,,,,,0.05,,,,,,,,,,Stimuli/psy_fixed_rotation_30_objects_occ0.7_0.9s/images/train/n04256520_9/n02933112_4/img_napoleon_iii_sofa_buffet_2014_gray.jpg,n04256520_9,n02933112_4,fixed,0.715755,n02933112_-2,Stimuli/psy_fixed_rotation_30_objects_occ0.7_0.9s/images/train/n04405907_8/n02933112_-2/img_stylized_tv_sink_base_white_wood_2005-3_gray.png,random,fixed,n04256520_9,n02933112_4,Stimuli/canonical view 2/img_n04256520_9_gray.jpg,Stimuli/canonical view 2/img_n02933112_4_gray.jpg,foreground,left,Experiments/experiment_14/392.jpg,Experiments/experiment_14/393.jpg,Experiments/experiment_14/394.jpg,Experiments/experiment_14/395.jpg,642,1,2023-04-17_17h02.06.656,Occlusion_Psychophysics,2022.1.4,Win32,60.15761295,,,left,"[""left""]",[0.6719000000359756],False,,0.0,0.0,98.0,98.0,98.0,1.0,,,,,,
,,,,,,,,,,,,,,,,,,,,,0.05,,,,,,,,,,Stimuli/psy_flexible_rotation_30_objects_occ0.7_0.9s/images/train/n02883344_15/n02828884_3/img_microwave_box_b04_wood_metal_park_bench_2004_gray.jpg,n02883344_15,n02828884_3,flexible,0.737672,n04256520_9,Stimuli/psy_flexible_rotation_30_objects_occ0.7_0.9s/images/train/n04405907_9/n04256520_9/img_vray_004_napoleon_iii_sofa_2004-3_gray.png,random,flexible,n02883344_15,n03001627_8,Stimuli/canonical view 2/img_n02883344_15_gray.jpg,Stimuli/canonical view 2/img_n03001627_8_gray.jpg,random,right,Experiments/experiment_14/396.jpg,Experiments/experiment_14/397.jpg,Experiments/experiment_14/398.jpg,Experiments/experiment_14/399.jpg,642,1,2023-04-17_17h02.06.656,Occlusion_Psychophysics,2022.1.4,Win32,60.15761295,,,right,"[""right""]",[0.5773999999760235],False,,0.0,0.0,99.0,99.0,99.0,1.0,,,,,,
,,,,,,,,,,,,,,,,,,,,,,,,,,,,,,,,,,,,,,,,,,,,,,,,,,642,1,2023-04-17_17h02.06.656,Occlusion_Psychophysics,2022.1.4,Win32,60.15761295,,,,,,,,,,,,,,,0.0,0.0,0.0,0.0,1.0
,,,,,,,,,,,,,,,,,,,,,0.05,,,,,,,,,,Stimuli/psy_flexible_rotation_30_objects_occ0.7_0.9s/images/train/n04256520_4/n02818832_9/img_club_house_italia_nautilus_sofa_bed01_blue_2012_gray.jpg,n04256520_4,n02818832_9,flexible,0.719262,n04256520_9,Stimuli/psy_fixed_rotation_30_objects_occ0.7_0.9s/images/train/n04256520_5/n04256520_9/img_meridiani_belmondo_bench_sofa_napoleon_iii_sofa_2001-3_gray.png,random,fixed,n04256520_4,n02818832_9,Stimuli/canonical view 2/img_n04256520_4_gray.jpg,Stimuli/canonical view 2/img_n02818832_9_gray.jpg,foreground,left,Experiments/experiment_14/400.jpg,Experiments/experiment_14/401.jpg,Experiments/experiment_14/402.jpg,Experiments/experiment_14/403.jpg,642,1,2023-04-17_17h02.06.656,Occlusion_Psychophysics,2022.1.4,Win32,60.15761295,,,left,"[""right""]",[0.7230999999642336],False,,0.0,0.0,0.0,0.0,0.0,1.0,,,,,,
,,,,,,,,,,,,,,,,,,,,,0.05,,,,,,,,,,Stimuli/psy_flexible_rotation_30_objects_occ0.7_0.9s/images/train/n02883344_-1/n02933112_4/img_woven_box_buffet_2003_gray.jpg,n02883344_-1,n02933112_4,flexible,0.734147,n04256520_5,Stimuli/psy_flexible_rotation_30_objects_occ0.7_0.9s/images/train/n04379243_0/n04256520_5/img_17th_c._monastery_dining_table_2010_meridiani_belmondo_bench_sofa_2009-3_gray.png,random,flexible,n02883344_-1,n02933112_4,Stimuli/canonical view 2/img_n02883344_-1_gray.jpg,Stimuli/canonical view 2/img_n02933112_4_gray.jpg,foreground,left,Experiments/experiment_14/404.jpg,Experiments/experiment_14/405.jpg,Experiments/experiment_14/406.jpg,Experiments/experiment_14/407.jpg,642,1,2023-04-17_17h02.06.656,Occlusion_Psychophysics,2022.1.4,Win32,60.15761295,,,left,"[""left""]",[0.6198000000119919],False,,0.0,0.0,1.0,1.0,1.0,1.0,,,,,,
,,,,,,,,,,,,,,,,,,,,,0.05,,,,,,,,,,Stimuli/psy_flexible_rotation_30_objects_occ0.7_0.9s/images/train/n04379243_8/n02818832_0/img_glass_table_b03_the_sofa_and_chair_company_-_stanley_bed_2014_2000_gray.jpg,n04379243_8,n02818832_0,flexible,0.712493,n02818832_0,Stimuli/psy_flexible_rotation_30_objects_occ0.7_0.9s/images/train/n04379243_8/n02818832_0/img_glass_table_b03_the_sofa_and_chair_company_-_stanley_bed_2014_2000-3_gray.png,foreground,same as foreground,n04379243_8,n02818832_0,Stimuli/canonical view 2/img_n04379243_8_gray.jpg,Stimuli/canonical view 2/img_n02818832_0_gray.jpg,foreground,right,Experiments/experiment_14/408.jpg,Experiments/experiment_14/409.jpg,Experiments/experiment_14/410.jpg,Experiments/experiment_14/411.jpg,642,1,2023-04-17_17h02.06.656,Occlusion_Psychophysics,2022.1.4,Win32,60.15761295,,,left,"[""left""]",[0.6038999999761927],False,,0.0,0.0,2.0,2.0,2.0,1.0,,,,,,
,,,,,,,,,,,,,,,,,,,,,0.05,,,,,,,,,,Stimuli/psy_flexible_rotation_30_objects_occ0.7_0.9s/images/train/n03001627_8/n02883344_-1/img_chair_billiani_doll_woven_box_2007_gray.jpg,n03001627_8,n02883344_-1,flexible,0.758966,n02883344_-1,Stimuli/psy_flexible_rotation_30_objects_occ0.7_0.9s/images/train/n03001627_8/n02883344_-1/img_chair_billiani_doll_woven_box_2007-3_gray.png,foreground,same as foreground,n03001627_8,n02883344_-1,Stimuli/canonical view 2/img_n03001627_8_gray.jpg,Stimuli/canonical view 2/img_n02883344_-1_gray.jpg,foreground,left,Experiments/experiment_14/412.jpg,Experiments/experiment_14/413.jpg,Experiments/experiment_14/414.jpg,Experiments/experiment_14/415.jpg,642,1,2023-04-17_17h02.06.656,Occlusion_Psychophysics,2022.1.4,Win32,60.15761295,,,left,"[""left""]",[0.70980000001191],True,right,1.0,0.0,3.0,3.0,3.0,1.0,1.9007,,,,,
,,,,,,,,,,,,,,,,,,,,,0.05,,,,,,,,,,Stimuli/psy_flexible_rotation_30_objects_occ0.7_0.9s/images/train/n03001627_-2/n02933112_-18/img_wood_chair_cgaxis_models_48_26_vray_composite_2000_gray.jpg,n03001627_-2,n02933112_-18,flexible,0.728636,n02933112_-18,Stimuli/psy_flexible_rotation_30_objects_occ0.7_0.9s/images/train/n03001627_-2/n02933112_-18/img_wood_chair_cgaxis_models_48_26_vray_composite_2000-3_gray.png,foreground,same as foreground,n03001627_-2,n02933112_-18,Stimuli/canonical view 2/img_n03001627_-2_gray.jpg,Stimuli/canonical view 2/img_n02933112_-18_gray.jpg,foreground,right,Experiments/experiment_14/416.jpg,Experiments/experiment_14/417.jpg,Experiments/experiment_14/418.jpg,Experiments/experiment_14/419.jpg,642,1,2023-04-17_17h02.06.656,Occlusion_Psychophysics,2022.1.4,Win32,60.15761295,,,left,"[""left""]",[0.7186000000240256],False,,0.0,0.0,4.0,4.0,4.0,1.0,,,,,,
,,,,,,,,,,,,,,,,,,,,,0.025,,,,,,,,,,Stimuli/psy_fixed_rotation_30_objects_occ0.7_0.9s/images/train/n04405907_5/n02828884_3/img_samsung_40_uhd_smart_tv_2011_b04_wood_metal_park_bench_2009_gray.jpg,n04405907_5,n02828884_3,fixed,0.747164,n02818832_3,Stimuli/psy_fixed_rotation_30_objects_occ0.7_0.9s/images/train/n03928116_0/n02818832_3/img_b02_piano_b05_ccm_contemporary_bed_max2013_2010-3_gray.png,random,fixed,n04405907_5,n02933112_-2,Stimuli/canonical view 2/img_n04405907_5_gray.jpg,Stimuli/canonical view 2/img_n02933112_-2_gray.jpg,random,left,Experiments/experiment_14/420.jpg,Experiments/experiment_14/421.jpg,Experiments/experiment_14/422.jpg,Experiments/experiment_14/423.jpg,642,1,2023-04-17_17h02.06.656,Occlusion_Psychophysics,2022.1.4,Win32,60.15761295,,,left,"[""left""]",[0.8037000000476837],False,,0.0,0.0,5.0,5.0,5.0,1.0,,,,,,
,,,,,,,,,,,,,,,,,,,,,0.05,,,,,,,,,,Stimuli/psy_fixed_rotation_30_objects_occ0.7_0.9s/images/train/n03928116_10/n04256520_5/img_ydp_103_r_2012__vray_meridiani_belmondo_bench_sofa_2012_gray.jpg,n03928116_10,n04256520_5,fixed,0.746103,n04256520_5,Stimuli/psy_fixed_rotation_30_objects_occ0.7_0.9s/images/train/n03928116_10/n04256520_5/img_ydp_103_r_2012__vray_meridiani_belmondo_bench_sofa_2012-3_gray.png,foreground,same as foreground,n03928116_10,n04256520_5,Stimuli/canonical view 2/img_n03928116_10_gray.jpg,Stimuli/canonical view 2/img_n04256520_5_gray.jpg,foreground,right,Experiments/experiment_14/424.jpg,Experiments/experiment_14/425.jpg,Experiments/experiment_14/426.jpg,Experiments/experiment_14/427.jpg,642,1,2023-04-17_17h02.06.656,Occlusion_Psychophysics,2022.1.4,Win32,60.15761295,,,left,"[""right""]",[0.6796999999880882],False,,0.0,0.0,6.0,6.0,6.0,1.0,,,,,,
,,,,,,,,,,,,,,,,,,,,,0.025,,,,,,,,,,Stimuli/psy_fixed_rotation_30_objects_occ0.7_0.9s/images/train/n04379243_0/n02933112_-18/img_17th_c._monastery_dining_table_2010_cgaxis_models_48_26_vray_composite_2000_gray.jpg,n04379243_0,n02933112_-18,fixed,0.737806,n04256520_5,Stimuli/psy_fixed_rotation_30_objects_occ0.7_0.9s/images/train/n02883344_-1/n04256520_5/img_woven_box_meridiani_belmondo_bench_sofa_2010-3_gray.png,random,fixed,n04379243_0,n04405907_9,Stimuli/canonical view 2/img_n04379243_0_gray.jpg,Stimuli/canonical view 2/img_n04405907_9_gray.jpg,random,left,Experiments/experiment_14/428.jpg,Experiments/experiment_14/429.jpg,Experiments/experiment_14/430.jpg,Experiments/experiment_14/431.jpg,642,1,2023-04-17_17h02.06.656,Occlusion_Psychophysics,2022.1.4,Win32,60.15761295,,,right,"[""right""]",[0.5360000000000582],False,,0.0,0.0,7.0,7.0,7.0,1.0,,,,,,
,,,,,,,,,,,,,,,,,,,,,0.025,,,,,,,,,,Stimuli/psy_fixed_rotation_30_objects_occ0.7_0.9s/images/train/n04256520_4/n04405907_9/img_club_house_italia_nautilus_sofa_vray_004_2006_gray.jpg,n04256520_4,n04405907_9,fixed,0.898923,n04405907_9,Stimuli/psy_fixed_rotation_30_objects_occ0.7_0.9s/images/train/n04256520_4/n04405907_9/img_club_house_italia_nautilus_sofa_vray_004_2006-3_gray.png,foreground,same as foreground,n04256520_4,n02828884_9,Stimuli/canonical view 2/img_n04256520_4_gray.jpg,Stimuli/canonical view 2/img_n02828884_9_gray.jpg,random,left,Experiments/experiment_14/432.jpg,Experiments/experiment_14/433.jpg,Experiments/experiment_14/434.jpg,Experiments/experiment_14/435.jpg,642,1,2023-04-17_17h02.06.656,Occlusion_Psychophysics,2022.1.4,Win32,60.15761295,,,right,"[""left""]",[0.7633999999761727],False,,0.0,0.0,8.0,8.0,8.0,1.0,,,,,,
,,,,,,,,,,,,,,,,,,,,,0.05,,,,,,,,,,Stimuli/psy_flexible_rotation_30_objects_occ0.7_0.9s/images/train/n02828884_4/n02828884_3/img_b05_c-5_classic_series_bench-2012_b04_wood_metal_park_bench_2006_gray.jpg,n02828884_4,n02828884_3,flexible,0.731911,n02883344_-1,Stimuli/psy_fixed_rotation_30_objects_occ0.7_0.9s/images/train/n02883344_-1/n02883344_-1/img_woven_box_woven_box_2010-3_gray.png,random,fixed,n02828884_4,n03928116_0,Stimuli/canonical view 2/img_n02828884_4_gray.jpg,Stimuli/canonical view 2/img_n03928116_0_gray.jpg,random,left,Experiments/experiment_14/436.jpg,Experiments/experiment_14/437.jpg,Experiments/experiment_14/438.jpg,Experiments/experiment_14/439.jpg,642,1,2023-04-17_17h02.06.656,Occlusion_Psychophysics,2022.1.4,Win32,60.15761295,,,left,"[""left""]",[0.6756000000239055],False,,0.0,0.0,9.0,9.0,9.0,1.0,,,,,,
,,,,,,,,,,,,,,,,,,,,,0.05,,,,,,,,,,Stimuli/psy_flexible_rotation_30_objects_occ0.7_0.9s/images/train/n04405907_5/n03928116_10/img_samsung_40_uhd_smart_tv_2011_ydp_103_r_2012__vray_2001_gray.jpg,n04405907_5,n03928116_10,flexible,0.786408,n03928116_10,Stimuli/psy_flexible_rotation_30_objects_occ0.7_0.9s/images/train/n04405907_5/n03928116_10/img_samsung_40_uhd_smart_tv_2011_ydp_103_r_2012__vray_2001-3_gray.png,foreground,same as foreground,n04405907_5,n04405907_8,Stimuli/canonical view 2/img_n04405907_5_gray.jpg,Stimuli/canonical view 2/img_n04405907_8_gray.jpg,random,left,Experiments/experiment_14/440.jpg,Experiments/experiment_14/441.jpg,Experiments/experiment_14/442.jpg,Experiments/experiment_14/443.jpg,642,1,2023-04-17_17h02.06.656,Occlusion_Psychophysics,2022.1.4,Win32,60.15761295,,,left,"[""left""]",[0.6268999999761036],False,,0.0,0.0,10.0,10.0,10.0,1.0,,,,,,
,,,,,,,,,,,,,,,,,,,,,0.025,,,,,,,,,,Stimuli/psy_flexible_rotation_30_objects_occ0.7_0.9s/images/train/n04405907_9/n02883344_-1/img_vray_004_woven_box_2010_gray.jpg,n04405907_9,n02883344_-1,flexible,0.74692,n02883344_-1,Stimuli/psy_flexible_rotation_30_objects_occ0.7_0.9s/images/train/n04405907_9/n02883344_-1/img_vray_004_woven_box_2010-3_gray.png,foreground,same as foreground,n04405907_9,n04256520_4,Stimuli/canonical view 2/img_n04405907_9_gray.jpg,Stimuli/canonical view 2/img_n04256520_4_gray.jpg,random,right,Experiments/experiment_14/444.jpg,Experiments/experiment_14/445.jpg,Experiments/experiment_14/446.jpg,Experiments/experiment_14/447.jpg,642,1,2023-04-17_17h02.06.656,Occlusion_Psychophysics,2022.1.4,Win32,60.15761295,,,left,"[""right""]",[0.7736999999881391],False,,0.0,0.0,11.0,11.0,11.0,1.0,,,,,,
,,,,,,,,,,,,,,,,,,,,,0.025,,,,,,,,,,Stimuli/psy_fixed_rotation_30_objects_occ0.7_0.9s/images/train/n02828884_3/n04379243_-7/img_b04_wood_metal_park_bench_quatre_dining_table_2014_gray.jpg,n02828884_3,n04379243_-7,fixed,0.804041,n04379243_-7,Stimuli/psy_fixed_rotation_30_objects_occ0.7_0.9s/images/train/n02828884_3/n04379243_-7/img_b04_wood_metal_park_bench_quatre_dining_table_2014-3_gray.png,foreground,same as foreground,n02828884_3,n04379243_-7,Stimuli/canonical view 2/img_n02828884_3_gray.jpg,Stimuli/canonical view 2/img_n04379243_-7_gray.jpg,foreground,right,Experiments/experiment_14/448.jpg,Experiments/experiment_14/449.jpg,Experiments/experiment_14/450.jpg,Experiments/experiment_14/451.jpg,642,1,2023-04-17_17h02.06.656,Occlusion_Psychophysics,2022.1.4,Win32,60.15761295,,,right,"[""right""]",[0.689399999976331],True,right,1.0,0.0,12.0,12.0,12.0,1.0,0.9392,,,,,
,,,,,,,,,,,,,,,,,,,,,0.025,,,,,,,,,,Stimuli/psy_flexible_rotation_30_objects_occ0.7_0.9s/images/train/n02818832_0/n04405907_8/img_b03_the_sofa_and_chair_company_-_stanley_bed_2014_stylized_tv_2010_gray.jpg,n02818832_0,n04405907_8,flexible,0.746225,n04405907_8,Stimuli/psy_flexible_rotation_30_objects_occ0.7_0.9s/images/train/n02818832_0/n04405907_8/img_b03_the_sofa_and_chair_company_-_stanley_bed_2014_stylized_tv_2010-3_gray.png,foreground,same as foreground,n02818832_0,n04405907_8,Stimuli/canonical view 2/img_n02818832_0_gray.jpg,Stimuli/canonical view 2/img_n04405907_8_gray.jpg,foreground,left,Experiments/experiment_14/452.jpg,Experiments/experiment_14/453.jpg,Experiments/experiment_14/454.jpg,Experiments/experiment_14/455.jpg,642,1,2023-04-17_17h02.06.656,Occlusion_Psychophysics,2022.1.4,Win32,60.15761295,,,left,"[""left""]",[0.6913999999760563],False,,0.0,0.0,13.0,13.0,13.0,1.0,,,,,,
