in_color,Instructions_key.keys,Instructions_key.rt,Tutorial_instruction_key.keys,Tutorial_instruction_key.rt,Tutorial_fixation_ley.keys,Tutorial_fixation_ley.rt,Tutorial_single_img_key.keys,Tutorial_single_img_key.rt,Tutorial_intra_trial_fixation_key.keys,Tutorial_intra_trial_fixation_key.rt,Tutorial_stimulus_key.keys,Tutorial_stimulus_key.rt,Tutorial_response_key.keys,Tutorial_response_key.rt,Tutorial_attention_check_key.keys,Tutorial_attention_check_key.rt,advance_or_repeat.keys,advance_or_repeat.rt,Practice_instructions_key.keys,Practice_instructions_key.rt,intra_trial_duration,Practice_key_response.keys,Practice_key_response.rt,Practice_react_key.keys,Practice_react_key.rt,Practice_loop.thisRepN,Practice_loop.thisTrialN,Practice_loop.thisN,Practice_loop.thisIndex,Practice_loop.ran,multi_object_filepath,background_id,foreground_id,multi_object_rotation,occlusion_level,single_object_id,single_object_filepath,single_is_foreground_or_random,single_object_rotation,background_choice_id,alt_choice_id,background_option_filepath,alternative_option_filepath,alternative_is_foreground_or_random,location_of_correct_answer,multi_object_exp_filename,single_object_exp_filename,background_option_exp_filename,alternative_option_exp_filename,participant,session,date,expName,psychopyVersion,OS,frameRate,Practice_end_key.keys,Practice_end_key.rt,correct_answer,Input_selection.keys,Input_selection.rt,Was_attention_check,Attention_check.keys,Attention_check.corr,Each_session_loop.thisRepN,Each_session_loop.thisTrialN,Each_session_loop.thisN,Each_session_loop.thisIndex,Each_session_loop.ran,Attention_check.rt,Num_sessions.thisRepN,Num_sessions.thisTrialN,Num_sessions.thisN,Num_sessions.thisIndex,Num_sessions.ran
False,space,735.9847,space,9.9909,space,11.8124,space,28.2969,space,6.2278,space,18.883,space,15.1498,space,10.3928,a,13.7911,a,5.6071,0.05,right,4.4593,r,4.9519,0.0,0.0,0.0,0.0,1.0,Stimuli/psy_flexible_rotation_30_objects_occ0.7_0.9s/images/train/n02828884_4/n02828884_3/img_b05_c-5_classic_series_bench-2012_b04_wood_metal_park_bench_2000_gray.jpg,n02828884_4,n02828884_3,flexible,0.816746,n02828884_3,Stimuli/psy_flexible_rotation_30_objects_occ0.7_0.9s/images/train/n02828884_4/n02828884_3/img_b05_c-5_classic_series_bench-2012_b04_wood_metal_park_bench_2000-3_gray.png,foreground,same as foreground,n02828884_4,n02818832_3,Stimuli/canonical view 2/img_n02828884_4_gray.jpg,Stimuli/canonical view 2/img_n02818832_3_gray.jpg,random,left,Experiments/experiment_7/1000.jpg,Experiments/experiment_7/1001.jpg,Experiments/experiment_7/1002.jpg,Experiments/experiment_7/1003.jpg,696,1,2023-05-23_22h13.56.572,Occlusion_Psychophysics,2022.1.4,Win32,59.76571838,,,,,,,,,,,,,,,,,,,
,,,,,,,,,,,,,,,,,,,,,0.05,right,2.4302,r,3.5861,0.0,1.0,1.0,1.0,1.0,Stimuli/psy_flexible_rotation_30_objects_occ0.7_0.9s/images/train/n04405907_8/n02883344_15/img_stylized_tv_microwave_box_2004_gray.jpg,n04405907_8,n02883344_15,flexible,0.836718,n02883344_15,Stimuli/psy_flexible_rotation_30_objects_occ0.7_0.9s/images/train/n04405907_8/n02883344_15/img_stylized_tv_microwave_box_2004-3_gray.png,foreground,same as foreground,n04405907_8,n04379243_0,Stimuli/canonical view 2/img_n04405907_8_gray.jpg,Stimuli/canonical view 2/img_n04379243_0_gray.jpg,random,right,Experiments/experiment_7/1004.jpg,Experiments/experiment_7/1005.jpg,Experiments/experiment_7/1006.jpg,Experiments/experiment_7/1007.jpg,696,1,2023-05-23_22h13.56.572,Occlusion_Psychophysics,2022.1.4,Win32,59.76571838,,,,,,,,,,,,,,,,,,,
,,,,,,,,,,,,,,,,,,,,,0.05,right,1.0578,r,2.8261,0.0,2.0,2.0,2.0,1.0,Stimuli/psy_flexible_rotation_30_objects_occ0.7_0.9s/images/train/n03001627_9/n02883344_15/img_chair_eames_plastic_armchair_microwave_box_2014_gray.jpg,n03001627_9,n02883344_15,flexible,0.784731,n02883344_15,Stimuli/psy_flexible_rotation_30_objects_occ0.7_0.9s/images/train/n03001627_9/n02883344_15/img_chair_eames_plastic_armchair_microwave_box_2014-3_gray.png,foreground,same as foreground,n03001627_9,n02883344_15,Stimuli/canonical view 2/img_n03001627_9_gray.jpg,Stimuli/canonical view 2/img_n02883344_15_gray.jpg,foreground,left,Experiments/experiment_7/1008.jpg,Experiments/experiment_7/1009.jpg,Experiments/experiment_7/1010.jpg,Experiments/experiment_7/1011.jpg,696,1,2023-05-23_22h13.56.572,Occlusion_Psychophysics,2022.1.4,Win32,59.76571838,,,,,,,,,,,,,,,,,,,
,,,,,,,,,,,,,,,,,,,,,0.05,right,1.256,a,3.2663,0.0,3.0,3.0,3.0,1.0,Stimuli/psy_fixed_rotation_30_objects_occ0.7_0.9s/images/train/n02883344_15/n02818832_9/img_microwave_box_bed01_blue_2009_gray.jpg,n02883344_15,n02818832_9,fixed,0.74643,n02818832_9,Stimuli/psy_fixed_rotation_30_objects_occ0.7_0.9s/images/train/n02883344_15/n02818832_9/img_microwave_box_bed01_blue_2009-3_gray.png,foreground,same as foreground,n02883344_15,n02818832_9,Stimuli/canonical view 2/img_n02883344_15_gray.jpg,Stimuli/canonical view 2/img_n02818832_9_gray.jpg,foreground,right,Experiments/experiment_7/1012.jpg,Experiments/experiment_7/1013.jpg,Experiments/experiment_7/1014.jpg,Experiments/experiment_7/1015.jpg,696,1,2023-05-23_22h13.56.572,Occlusion_Psychophysics,2022.1.4,Win32,59.76571838,,,,,,,,,,,,,,,,,,,
,,,,,,,,,,,,,,,,,,,,,0.05,,,,,,,,,,Stimuli/psy_fixed_rotation_30_objects_occ0.7_0.9s/images/train/n03001627_-2/n03001627_8/img_wood_chair_chair_billiani_doll_2010_gray.jpg,n03001627_-2,n03001627_8,fixed,0.800754,n04256520_4,Stimuli/psy_flexible_rotation_30_objects_occ0.7_0.9s/images/train/n02883344_15/n04256520_4/img_microwave_box_club_house_italia_nautilus_sofa_2008-3_gray.png,random,flexible,n03001627_-2,n03001627_8,Stimuli/canonical view 2/img_n03001627_-2_gray.jpg,Stimuli/canonical view 2/img_n03001627_8_gray.jpg,foreground,right,Experiments/experiment_7/0.jpg,Experiments/experiment_7/1.jpg,Experiments/experiment_7/2.jpg,Experiments/experiment_7/3.jpg,696,1,2023-05-23_22h13.56.572,Occlusion_Psychophysics,2022.1.4,Win32,59.76571838,right,2.5996,left,"[""left""]",[1.4958000000042375],False,,0.0,0.0,0.0,0.0,0.0,1.0,,,,,,
,,,,,,,,,,,,,,,,,,,,,0.025,,,,,,,,,,Stimuli/psy_fixed_rotation_30_objects_occ0.7_0.9s/images/train/n03928116_10/n02818832_9/img_ydp_103_r_2012__vray_bed01_blue_2013_gray.jpg,n03928116_10,n02818832_9,fixed,0.716787,n02818832_9,Stimuli/psy_fixed_rotation_30_objects_occ0.7_0.9s/images/train/n03928116_10/n02818832_9/img_ydp_103_r_2012__vray_bed01_blue_2013-3_gray.png,foreground,same as foreground,n03928116_10,n02818832_9,Stimuli/canonical view 2/img_n03928116_10_gray.jpg,Stimuli/canonical view 2/img_n02818832_9_gray.jpg,foreground,left,Experiments/experiment_7/4.jpg,Experiments/experiment_7/5.jpg,Experiments/experiment_7/6.jpg,Experiments/experiment_7/7.jpg,696,1,2023-05-23_22h13.56.572,Occlusion_Psychophysics,2022.1.4,Win32,59.76571838,,,left,"[""left""]",[1.0133999999984553],False,,0.0,0.0,1.0,1.0,1.0,1.0,,,,,,
,,,,,,,,,,,,,,,,,,,,,0.05,,,,,,,,,,Stimuli/psy_fixed_rotation_30_objects_occ0.7_0.9s/images/train/n04379243_-7/n03928116_4/img_quatre_dining_table_dp_33_b_2013__vray_2015_gray.jpg,n04379243_-7,n03928116_4,fixed,0.709964,n03928116_4,Stimuli/psy_fixed_rotation_30_objects_occ0.7_0.9s/images/train/n04379243_-7/n03928116_4/img_quatre_dining_table_dp_33_b_2013__vray_2015-3_gray.png,foreground,same as foreground,n04379243_-7,n03928116_4,Stimuli/canonical view 2/img_n04379243_-7_gray.jpg,Stimuli/canonical view 2/img_n03928116_4_gray.jpg,foreground,left,Experiments/experiment_7/8.jpg,Experiments/experiment_7/9.jpg,Experiments/experiment_7/10.jpg,Experiments/experiment_7/11.jpg,696,1,2023-05-23_22h13.56.572,Occlusion_Psychophysics,2022.1.4,Win32,59.76571838,,,right,"[""right""]",[0.9175000000000182],False,,0.0,0.0,2.0,2.0,2.0,1.0,,,,,,
,,,,,,,,,,,,,,,,,,,,,0.05,,,,,,,,,,Stimuli/psy_flexible_rotation_30_objects_occ0.7_0.9s/images/train/n02818832_0/n02818832_9/img_b03_the_sofa_and_chair_company_-_stanley_bed_2014_bed01_blue_2003_gray.jpg,n02818832_0,n02818832_9,flexible,0.810542,n02818832_9,Stimuli/psy_flexible_rotation_30_objects_occ0.7_0.9s/images/train/n02818832_0/n02818832_9/img_b03_the_sofa_and_chair_company_-_stanley_bed_2014_bed01_blue_2003-3_gray.png,foreground,same as foreground,n02818832_0,n02818832_9,Stimuli/canonical view 2/img_n02818832_0_gray.jpg,Stimuli/canonical view 2/img_n02818832_9_gray.jpg,foreground,left,Experiments/experiment_7/12.jpg,Experiments/experiment_7/13.jpg,Experiments/experiment_7/14.jpg,Experiments/experiment_7/15.jpg,696,1,2023-05-23_22h13.56.572,Occlusion_Psychophysics,2022.1.4,Win32,59.76571838,,,right,"[""left""]",[0.9338999999986299],False,,0.0,0.0,3.0,3.0,3.0,1.0,,,,,,
,,,,,,,,,,,,,,,,,,,,,0.05,,,,,,,,,,Stimuli/psy_fixed_rotation_30_objects_occ0.7_0.9s/images/train/n03001627_9/n04405907_8/img_chair_eames_plastic_armchair_stylized_tv_2005_gray.jpg,n03001627_9,n04405907_8,fixed,0.797171,n04256520_9,Stimuli/psy_fixed_rotation_30_objects_occ0.7_0.9s/images/train/n04405907_9/n04256520_9/img_vray_004_napoleon_iii_sofa_2004-3_gray.png,random,fixed,n03001627_9,n04379243_0,Stimuli/canonical view 2/img_n03001627_9_gray.jpg,Stimuli/canonical view 2/img_n04379243_0_gray.jpg,random,left,Experiments/experiment_7/16.jpg,Experiments/experiment_7/17.jpg,Experiments/experiment_7/18.jpg,Experiments/experiment_7/19.jpg,696,1,2023-05-23_22h13.56.572,Occlusion_Psychophysics,2022.1.4,Win32,59.76571838,,,right,"[""left""]",[1.3028000000044813],False,,0.0,0.0,4.0,4.0,4.0,1.0,,,,,,
,,,,,,,,,,,,,,,,,,,,,0.025,,,,,,,,,,Stimuli/psy_flexible_rotation_30_objects_occ0.7_0.9s/images/train/n02818832_3/n04379243_-7/img_b05_ccm_contemporary_bed_max2013_quatre_dining_table_2000_gray.jpg,n02818832_3,n04379243_-7,flexible,0.702213,n02883344_-1,Stimuli/psy_fixed_rotation_30_objects_occ0.7_0.9s/images/train/n04379243_0/n02883344_-1/img_17th_c._monastery_dining_table_2010_woven_box_2015-3_gray.png,random,fixed,n02818832_3,n02933112_4,Stimuli/canonical view 2/img_n02818832_3_gray.jpg,Stimuli/canonical view 2/img_n02933112_4_gray.jpg,random,left,Experiments/experiment_7/20.jpg,Experiments/experiment_7/21.jpg,Experiments/experiment_7/22.jpg,Experiments/experiment_7/23.jpg,696,1,2023-05-23_22h13.56.572,Occlusion_Psychophysics,2022.1.4,Win32,59.76571838,,,right,"[""right""]",[1.340899999998328],False,,0.0,0.0,5.0,5.0,5.0,1.0,,,,,,
,,,,,,,,,,,,,,,,,,,,,0.05,,,,,,,,,,Stimuli/psy_flexible_rotation_30_objects_occ0.7_0.9s/images/train/n04405907_5/n02818832_0/img_samsung_40_uhd_smart_tv_2011_b03_the_sofa_and_chair_company_-_stanley_bed_2014_2013_gray.jpg,n04405907_5,n02818832_0,flexible,0.870529,n02818832_0,Stimuli/psy_flexible_rotation_30_objects_occ0.7_0.9s/images/train/n04405907_5/n02818832_0/img_samsung_40_uhd_smart_tv_2011_b03_the_sofa_and_chair_company_-_stanley_bed_2014_2013-3_gray.png,foreground,same as foreground,n04405907_5,n03001627_8,Stimuli/canonical view 2/img_n04405907_5_gray.jpg,Stimuli/canonical view 2/img_n03001627_8_gray.jpg,random,right,Experiments/experiment_7/24.jpg,Experiments/experiment_7/25.jpg,Experiments/experiment_7/26.jpg,Experiments/experiment_7/27.jpg,696,1,2023-05-23_22h13.56.572,Occlusion_Psychophysics,2022.1.4,Win32,59.76571838,,,right,"[""left""]",[1.4715999999939413],False,,0.0,0.0,6.0,6.0,6.0,1.0,,,,,,
,,,,,,,,,,,,,,,,,,,,,0.05,,,,,,,,,,Stimuli/psy_fixed_rotation_30_objects_occ0.7_0.9s/images/train/n04405907_9/n04405907_8/img_vray_004_stylized_tv_2007_gray.jpg,n04405907_9,n04405907_8,fixed,0.730211,n04405907_5,Stimuli/psy_flexible_rotation_30_objects_occ0.7_0.9s/images/train/n04405907_8/n04405907_5/img_stylized_tv_samsung_40_uhd_smart_tv_2011_2006-3_gray.png,random,flexible,n04405907_9,n02933112_-18,Stimuli/canonical view 2/img_n04405907_9_gray.jpg,Stimuli/canonical view 2/img_n02933112_-18_gray.jpg,random,left,Experiments/experiment_7/28.jpg,Experiments/experiment_7/29.jpg,Experiments/experiment_7/30.jpg,Experiments/experiment_7/31.jpg,696,1,2023-05-23_22h13.56.572,Occlusion_Psychophysics,2022.1.4,Win32,59.76571838,,,left,"[""left""]",[1.001399999998739],False,,0.0,0.0,7.0,7.0,7.0,1.0,,,,,,
,,,,,,,,,,,,,,,,,,,,,0.05,,,,,,,,,,Stimuli/psy_flexible_rotation_30_objects_occ0.7_0.9s/images/train/n03928116_0/n04405907_8/img_b02_piano_stylized_tv_2011_gray.jpg,n03928116_0,n04405907_8,flexible,0.70948,n02828884_3,Stimuli/psy_fixed_rotation_30_objects_occ0.7_0.9s/images/train/n02818832_0/n02828884_3/img_b03_the_sofa_and_chair_company_-_stanley_bed_2014_b04_wood_metal_park_bench_2004-3_gray.png,random,fixed,n03928116_0,n04405907_8,Stimuli/canonical view 2/img_n03928116_0_gray.jpg,Stimuli/canonical view 2/img_n04405907_8_gray.jpg,foreground,left,Experiments/experiment_7/32.jpg,Experiments/experiment_7/33.jpg,Experiments/experiment_7/34.jpg,Experiments/experiment_7/35.jpg,696,1,2023-05-23_22h13.56.572,Occlusion_Psychophysics,2022.1.4,Win32,59.76571838,,,left,"[""left""]",[1.437699999995857],False,,0.0,0.0,8.0,8.0,8.0,1.0,,,,,,
,,,,,,,,,,,,,,,,,,,,,0.025,,,,,,,,,,Stimuli/psy_flexible_rotation_30_objects_occ0.7_0.9s/images/train/n02883344_-1/n02933112_4/img_woven_box_buffet_2015_gray.jpg,n02883344_-1,n02933112_4,flexible,0.72442,n02933112_4,Stimuli/psy_flexible_rotation_30_objects_occ0.7_0.9s/images/train/n02883344_-1/n02933112_4/img_woven_box_buffet_2015-3_gray.png,foreground,same as foreground,n02883344_-1,n02933112_4,Stimuli/canonical view 2/img_n02883344_-1_gray.jpg,Stimuli/canonical view 2/img_n02933112_4_gray.jpg,foreground,left,Experiments/experiment_7/36.jpg,Experiments/experiment_7/37.jpg,Experiments/experiment_7/38.jpg,Experiments/experiment_7/39.jpg,696,1,2023-05-23_22h13.56.572,Occlusion_Psychophysics,2022.1.4,Win32,59.76571838,,,left,"[""left""]",[1.0672000000031403],False,,0.0,0.0,9.0,9.0,9.0,1.0,,,,,,
,,,,,,,,,,,,,,,,,,,,,0.05,,,,,,,,,,Stimuli/psy_fixed_rotation_30_objects_occ0.7_0.9s/images/train/n03928116_10/n02818832_9/img_ydp_103_r_2012__vray_bed01_blue_2004_gray.jpg,n03928116_10,n02818832_9,fixed,0.747896,n02818832_9,Stimuli/psy_fixed_rotation_30_objects_occ0.7_0.9s/images/train/n03928116_10/n02818832_9/img_ydp_103_r_2012__vray_bed01_blue_2004-3_gray.png,foreground,same as foreground,n03928116_10,n04405907_8,Stimuli/canonical view 2/img_n03928116_10_gray.jpg,Stimuli/canonical view 2/img_n04405907_8_gray.jpg,random,right,Experiments/experiment_7/40.jpg,Experiments/experiment_7/41.jpg,Experiments/experiment_7/42.jpg,Experiments/experiment_7/43.jpg,696,1,2023-05-23_22h13.56.572,Occlusion_Psychophysics,2022.1.4,Win32,59.76571838,,,right,"[""right""]",[0.7106999999955406],True,left,1.0,0.0,10.0,10.0,10.0,1.0,1.9398,,,,,
,,,,,,,,,,,,,,,,,,,,,0.05,,,,,,,,,,Stimuli/psy_fixed_rotation_30_objects_occ0.7_0.9s/images/train/n02818832_9/n04256520_9/img_bed01_blue_napoleon_iii_sofa_2003_gray.jpg,n02818832_9,n04256520_9,fixed,0.837589,n04256520_9,Stimuli/psy_fixed_rotation_30_objects_occ0.7_0.9s/images/train/n02818832_9/n04256520_9/img_bed01_blue_napoleon_iii_sofa_2003-3_gray.png,foreground,same as foreground,n02818832_9,n03001627_-2,Stimuli/canonical view 2/img_n02818832_9_gray.jpg,Stimuli/canonical view 2/img_n03001627_-2_gray.jpg,random,left,Experiments/experiment_7/44.jpg,Experiments/experiment_7/45.jpg,Experiments/experiment_7/46.jpg,Experiments/experiment_7/47.jpg,696,1,2023-05-23_22h13.56.572,Occlusion_Psychophysics,2022.1.4,Win32,59.76571838,,,left,"[""right""]",[1.0566000000017084],False,,0.0,0.0,11.0,11.0,11.0,1.0,,,,,,
,,,,,,,,,,,,,,,,,,,,,0.025,,,,,,,,,,Stimuli/psy_flexible_rotation_30_objects_occ0.7_0.9s/images/train/n03928116_10/n04379243_-7/img_ydp_103_r_2012__vray_quatre_dining_table_2001_gray.jpg,n03928116_10,n04379243_-7,flexible,0.769701,n04379243_-7,Stimuli/psy_flexible_rotation_30_objects_occ0.7_0.9s/images/train/n03928116_10/n04379243_-7/img_ydp_103_r_2012__vray_quatre_dining_table_2001-3_gray.png,foreground,same as foreground,n03928116_10,n02883344_15,Stimuli/canonical view 2/img_n03928116_10_gray.jpg,Stimuli/canonical view 2/img_n02883344_15_gray.jpg,random,left,Experiments/experiment_7/48.jpg,Experiments/experiment_7/49.jpg,Experiments/experiment_7/50.jpg,Experiments/experiment_7/51.jpg,696,1,2023-05-23_22h13.56.572,Occlusion_Psychophysics,2022.1.4,Win32,59.76571838,,,right,"[""right""]",[1.0090000000000146],False,,0.0,0.0,12.0,12.0,12.0,1.0,,,,,,
,,,,,,,,,,,,,,,,,,,,,0.05,,,,,,,,,,Stimuli/psy_fixed_rotation_30_objects_occ0.7_0.9s/images/train/n04256520_5/n02933112_-2/img_meridiani_belmondo_bench_sofa_sink_base_white_wood_2007_gray.jpg,n04256520_5,n02933112_-2,fixed,0.839088,n04405907_8,Stimuli/psy_fixed_rotation_30_objects_occ0.7_0.9s/images/train/n02933112_-18/n04405907_8/img_cgaxis_models_48_26_vray_composite_stylized_tv_2010-3_gray.png,random,fixed,n04256520_5,n03928116_4,Stimuli/canonical view 2/img_n04256520_5_gray.jpg,Stimuli/canonical view 2/img_n03928116_4_gray.jpg,random,right,Experiments/experiment_7/52.jpg,Experiments/experiment_7/53.jpg,Experiments/experiment_7/54.jpg,Experiments/experiment_7/55.jpg,696,1,2023-05-23_22h13.56.572,Occlusion_Psychophysics,2022.1.4,Win32,59.76571838,,,right,"[""left""]",[1.2056000000015956],False,,0.0,0.0,13.0,13.0,13.0,1.0,,,,,,
,,,,,,,,,,,,,,,,,,,,,0.025,,,,,,,,,,Stimuli/psy_fixed_rotation_30_objects_occ0.7_0.9s/images/train/n03001627_9/n02933112_-18/img_chair_eames_plastic_armchair_cgaxis_models_48_26_vray_composite_2002_gray.jpg,n03001627_9,n02933112_-18,fixed,0.764999,n02933112_-18,Stimuli/psy_fixed_rotation_30_objects_occ0.7_0.9s/images/train/n03001627_9/n02933112_-18/img_chair_eames_plastic_armchair_cgaxis_models_48_26_vray_composite_2002-3_gray.png,foreground,same as foreground,n03001627_9,n02933112_-18,Stimuli/canonical view 2/img_n03001627_9_gray.jpg,Stimuli/canonical view 2/img_n02933112_-18_gray.jpg,foreground,left,Experiments/experiment_7/56.jpg,Experiments/experiment_7/57.jpg,Experiments/experiment_7/58.jpg,Experiments/experiment_7/59.jpg,696,1,2023-05-23_22h13.56.572,Occlusion_Psychophysics,2022.1.4,Win32,59.76571838,,,right,"[""left""]",[1.4340000000001965],False,,0.0,0.0,14.0,14.0,14.0,1.0,,,,,,
,,,,,,,,,,,,,,,,,,,,,0.05,,,,,,,,,,Stimuli/psy_fixed_rotation_30_objects_occ0.7_0.9s/images/train/n03001627_9/n04405907_8/img_chair_eames_plastic_armchair_stylized_tv_2000_gray.jpg,n03001627_9,n04405907_8,fixed,0.842105,n03928116_0,Stimuli/psy_fixed_rotation_30_objects_occ0.7_0.9s/images/train/n03928116_4/n03928116_0/img_dp_33_b_2013__vray_b02_piano_2003-3_gray.png,random,fixed,n03001627_9,n04256520_9,Stimuli/canonical view 2/img_n03001627_9_gray.jpg,Stimuli/canonical view 2/img_n04256520_9_gray.jpg,random,right,Experiments/experiment_7/60.jpg,Experiments/experiment_7/61.jpg,Experiments/experiment_7/62.jpg,Experiments/experiment_7/63.jpg,696,1,2023-05-23_22h13.56.572,Occlusion_Psychophysics,2022.1.4,Win32,59.76571838,,,left,"[""left""]",[0.8053999999983716],False,,0.0,0.0,15.0,15.0,15.0,1.0,,,,,,
,,,,,,,,,,,,,,,,,,,,,0.025,,,,,,,,,,Stimuli/psy_fixed_rotation_30_objects_occ0.7_0.9s/images/train/n02828884_3/n02933112_-2/img_b04_wood_metal_park_bench_sink_base_white_wood_2003_gray.jpg,n02828884_3,n02933112_-2,fixed,0.704407,n02933112_-2,Stimuli/psy_fixed_rotation_30_objects_occ0.7_0.9s/images/train/n02828884_3/n02933112_-2/img_b04_wood_metal_park_bench_sink_base_white_wood_2003-3_gray.png,foreground,same as foreground,n02828884_3,n02933112_-2,Stimuli/canonical view 2/img_n02828884_3_gray.jpg,Stimuli/canonical view 2/img_n02933112_-2_gray.jpg,foreground,left,Experiments/experiment_7/64.jpg,Experiments/experiment_7/65.jpg,Experiments/experiment_7/66.jpg,Experiments/experiment_7/67.jpg,696,1,2023-05-23_22h13.56.572,Occlusion_Psychophysics,2022.1.4,Win32,59.76571838,,,right,"[""right""]",[1.1345000000001164],False,,0.0,0.0,16.0,16.0,16.0,1.0,,,,,,
,,,,,,,,,,,,,,,,,,,,,0.05,,,,,,,,,,Stimuli/psy_fixed_rotation_30_objects_occ0.7_0.9s/images/train/n02933112_4/n04379243_0/img_buffet_17th_c._monastery_dining_table_2010_2002_gray.jpg,n02933112_4,n04379243_0,fixed,0.720963,n02883344_-1,Stimuli/psy_fixed_rotation_30_objects_occ0.7_0.9s/images/train/n02828884_4/n02883344_-1/img_b05_c-5_classic_series_bench-2012_woven_box_2003-3_gray.png,random,fixed,n02933112_4,n04405907_5,Stimuli/canonical view 2/img_n02933112_4_gray.jpg,Stimuli/canonical view 2/img_n04405907_5_gray.jpg,random,right,Experiments/experiment_7/68.jpg,Experiments/experiment_7/69.jpg,Experiments/experiment_7/70.jpg,Experiments/experiment_7/71.jpg,696,1,2023-05-23_22h13.56.572,Occlusion_Psychophysics,2022.1.4,Win32,59.76571838,,,right,"[""right""]",[0.6497999999969579],False,,0.0,0.0,17.0,17.0,17.0,1.0,,,,,,
,,,,,,,,,,,,,,,,,,,,,0.05,,,,,,,,,,Stimuli/psy_flexible_rotation_30_objects_occ0.7_0.9s/images/train/n02933112_-2/n04256520_4/img_sink_base_white_wood_club_house_italia_nautilus_sofa_2000_gray.jpg,n02933112_-2,n04256520_4,flexible,0.737225,n02883344_15,Stimuli/psy_fixed_rotation_30_objects_occ0.7_0.9s/images/train/n02828884_4/n02883344_15/img_b05_c-5_classic_series_bench-2012_microwave_box_2004-3_gray.png,random,fixed,n02933112_-2,n04256520_4,Stimuli/canonical view 2/img_n02933112_-2_gray.jpg,Stimuli/canonical view 2/img_n04256520_4_gray.jpg,foreground,left,Experiments/experiment_7/72.jpg,Experiments/experiment_7/73.jpg,Experiments/experiment_7/74.jpg,Experiments/experiment_7/75.jpg,696,1,2023-05-23_22h13.56.572,Occlusion_Psychophysics,2022.1.4,Win32,59.76571838,,,left,"[""left""]",[0.7708000000043285],False,,0.0,0.0,18.0,18.0,18.0,1.0,,,,,,
,,,,,,,,,,,,,,,,,,,,,0.05,,,,,,,,,,Stimuli/psy_fixed_rotation_30_objects_occ0.7_0.9s/images/train/n02933112_4/n04379243_-7/img_buffet_quatre_dining_table_2014_gray.jpg,n02933112_4,n04379243_-7,fixed,0.742374,n02933112_-2,Stimuli/psy_flexible_rotation_30_objects_occ0.7_0.9s/images/train/n03928116_0/n02933112_-2/img_b02_piano_sink_base_white_wood_2009-3_gray.png,random,flexible,n02933112_4,n04256520_5,Stimuli/canonical view 2/img_n02933112_4_gray.jpg,Stimuli/canonical view 2/img_n04256520_5_gray.jpg,random,right,Experiments/experiment_7/76.jpg,Experiments/experiment_7/77.jpg,Experiments/experiment_7/78.jpg,Experiments/experiment_7/79.jpg,696,1,2023-05-23_22h13.56.572,Occlusion_Psychophysics,2022.1.4,Win32,59.76571838,,,right,"[""right""]",[0.9887000000030639],False,,0.0,0.0,19.0,19.0,19.0,1.0,,,,,,
,,,,,,,,,,,,,,,,,,,,,0.025,,,,,,,,,,Stimuli/psy_flexible_rotation_30_objects_occ0.7_0.9s/images/train/n02933112_-2/n04405907_9/img_sink_base_white_wood_vray_004_2001_gray.jpg,n02933112_-2,n04405907_9,flexible,0.781241,n04256520_9,Stimuli/psy_flexible_rotation_30_objects_occ0.7_0.9s/images/train/n04070727_0/n04256520_9/img_b03_ka90ivi20r_2013__vray_napoleon_iii_sofa_2002-3_gray.png,random,flexible,n02933112_-2,n04405907_9,Stimuli/canonical view 2/img_n02933112_-2_gray.jpg,Stimuli/canonical view 2/img_n04405907_9_gray.jpg,foreground,right,Experiments/experiment_7/80.jpg,Experiments/experiment_7/81.jpg,Experiments/experiment_7/82.jpg,Experiments/experiment_7/83.jpg,696,1,2023-05-23_22h13.56.572,Occlusion_Psychophysics,2022.1.4,Win32,59.76571838,,,left,"[""left""]",[0.7364000000056876],False,,0.0,0.0,20.0,20.0,20.0,1.0,,,,,,
,,,,,,,,,,,,,,,,,,,,,0.05,,,,,,,,,,Stimuli/psy_flexible_rotation_30_objects_occ0.7_0.9s/images/train/n04256520_9/n02933112_-2/img_napoleon_iii_sofa_sink_base_white_wood_2005_gray.jpg,n04256520_9,n02933112_-2,flexible,0.757048,n02933112_-2,Stimuli/psy_flexible_rotation_30_objects_occ0.7_0.9s/images/train/n04256520_9/n02933112_-2/img_napoleon_iii_sofa_sink_base_white_wood_2005-3_gray.png,foreground,same as foreground,n04256520_9,n02828884_4,Stimuli/canonical view 2/img_n04256520_9_gray.jpg,Stimuli/canonical view 2/img_n02828884_4_gray.jpg,random,right,Experiments/experiment_7/84.jpg,Experiments/experiment_7/85.jpg,Experiments/experiment_7/86.jpg,Experiments/experiment_7/87.jpg,696,1,2023-05-23_22h13.56.572,Occlusion_Psychophysics,2022.1.4,Win32,59.76571838,,,left,"[""right""]",[0.681999999999789],False,,0.0,0.0,21.0,21.0,21.0,1.0,,,,,,
,,,,,,,,,,,,,,,,,,,,,0.05,,,,,,,,,,Stimuli/psy_fixed_rotation_30_objects_occ0.7_0.9s/images/train/n04379243_0/n02818832_3/img_17th_c._monastery_dining_table_2010_b05_ccm_contemporary_bed_max2013_2009_gray.jpg,n04379243_0,n02818832_3,fixed,0.851908,n04379243_8,Stimuli/psy_flexible_rotation_30_objects_occ0.7_0.9s/images/train/n02828884_4/n04379243_8/img_b05_c-5_classic_series_bench-2012_glass_table_2010-3_gray.png,random,flexible,n04379243_0,n02818832_3,Stimuli/canonical view 2/img_n04379243_0_gray.jpg,Stimuli/canonical view 2/img_n02818832_3_gray.jpg,foreground,right,Experiments/experiment_7/88.jpg,Experiments/experiment_7/89.jpg,Experiments/experiment_7/90.jpg,Experiments/experiment_7/91.jpg,696,1,2023-05-23_22h13.56.572,Occlusion_Psychophysics,2022.1.4,Win32,59.76571838,,,left,"[""left""]",[0.951899999998659],False,,0.0,0.0,22.0,22.0,22.0,1.0,,,,,,
,,,,,,,,,,,,,,,,,,,,,0.025,,,,,,,,,,Stimuli/psy_fixed_rotation_30_objects_occ0.7_0.9s/images/train/n02818832_3/n04256520_4/img_b05_ccm_contemporary_bed_max2013_club_house_italia_nautilus_sofa_2011_gray.jpg,n02818832_3,n04256520_4,fixed,0.736407,n02818832_9,Stimuli/psy_fixed_rotation_30_objects_occ0.7_0.9s/images/train/n02883344_0/n02818832_9/img_b03_box_bed01_blue_2009-3_gray.png,random,fixed,n02818832_3,n04256520_4,Stimuli/canonical view 2/img_n02818832_3_gray.jpg,Stimuli/canonical view 2/img_n04256520_4_gray.jpg,foreground,right,Experiments/experiment_7/92.jpg,Experiments/experiment_7/93.jpg,Experiments/experiment_7/94.jpg,Experiments/experiment_7/95.jpg,696,1,2023-05-23_22h13.56.572,Occlusion_Psychophysics,2022.1.4,Win32,59.76571838,,,right,"[""left""]",[0.7531000000012682],False,,0.0,0.0,23.0,23.0,23.0,1.0,,,,,,
,,,,,,,,,,,,,,,,,,,,,0.025,,,,,,,,,,Stimuli/psy_fixed_rotation_30_objects_occ0.7_0.9s/images/train/n03928116_10/n04405907_9/img_ydp_103_r_2012__vray_vray_004_2007_gray.jpg,n03928116_10,n04405907_9,fixed,0.757184,n04405907_9,Stimuli/psy_fixed_rotation_30_objects_occ0.7_0.9s/images/train/n03928116_10/n04405907_9/img_ydp_103_r_2012__vray_vray_004_2007-3_gray.png,foreground,same as foreground,n03928116_10,n04405907_9,Stimuli/canonical view 2/img_n03928116_10_gray.jpg,Stimuli/canonical view 2/img_n04405907_9_gray.jpg,foreground,left,Experiments/experiment_7/96.jpg,Experiments/experiment_7/97.jpg,Experiments/experiment_7/98.jpg,Experiments/experiment_7/99.jpg,696,1,2023-05-23_22h13.56.572,Occlusion_Psychophysics,2022.1.4,Win32,59.76571838,,,left,"[""right""]",[0.8350000000000364],False,,0.0,0.0,24.0,24.0,24.0,1.0,,,,,,
,,,,,,,,,,,,,,,,,,,,,0.05,,,,,,,,,,Stimuli/psy_flexible_rotation_30_objects_occ0.7_0.9s/images/train/n04405907_9/n04379243_8/img_vray_004_glass_table_2009_gray.jpg,n04405907_9,n04379243_8,flexible,0.714779,n04379243_8,Stimuli/psy_flexible_rotation_30_objects_occ0.7_0.9s/images/train/n04405907_9/n04379243_8/img_vray_004_glass_table_2009-3_gray.png,foreground,same as foreground,n04405907_9,n04379243_8,Stimuli/canonical view 2/img_n04405907_9_gray.jpg,Stimuli/canonical view 2/img_n04379243_8_gray.jpg,foreground,left,Experiments/experiment_7/100.jpg,Experiments/experiment_7/101.jpg,Experiments/experiment_7/102.jpg,Experiments/experiment_7/103.jpg,696,1,2023-05-23_22h13.56.572,Occlusion_Psychophysics,2022.1.4,Win32,59.76571838,,,right,"[""right""]",[1.582200000003013],False,,0.0,0.0,25.0,25.0,25.0,1.0,,,,,,
,,,,,,,,,,,,,,,,,,,,,0.05,,,,,,,,,,Stimuli/psy_fixed_rotation_30_objects_occ0.7_0.9s/images/train/n02883344_15/n03928116_4/img_microwave_box_dp_33_b_2013__vray_2015_gray.jpg,n02883344_15,n03928116_4,fixed,0.764452,n03928116_4,Stimuli/psy_fixed_rotation_30_objects_occ0.7_0.9s/images/train/n02883344_15/n03928116_4/img_microwave_box_dp_33_b_2013__vray_2015-3_gray.png,foreground,same as foreground,n02883344_15,n02818832_0,Stimuli/canonical view 2/img_n02883344_15_gray.jpg,Stimuli/canonical view 2/img_n02818832_0_gray.jpg,random,right,Experiments/experiment_7/104.jpg,Experiments/experiment_7/105.jpg,Experiments/experiment_7/106.jpg,Experiments/experiment_7/107.jpg,696,1,2023-05-23_22h13.56.572,Occlusion_Psychophysics,2022.1.4,Win32,59.76571838,,,right,"[""left""]",[1.10149999999976],False,,0.0,0.0,26.0,26.0,26.0,1.0,,,,,,
,,,,,,,,,,,,,,,,,,,,,0.05,,,,,,,,,,Stimuli/psy_fixed_rotation_30_objects_occ0.7_0.9s/images/train/n02933112_-18/n04405907_5/img_cgaxis_models_48_26_vray_composite_samsung_40_uhd_smart_tv_2011_2014_gray.jpg,n02933112_-18,n04405907_5,fixed,0.845228,n04256520_4,Stimuli/psy_flexible_rotation_30_objects_occ0.7_0.9s/images/train/n03928116_0/n04256520_4/img_b02_piano_club_house_italia_nautilus_sofa_2001-3_gray.png,random,flexible,n02933112_-18,n04405907_5,Stimuli/canonical view 2/img_n02933112_-18_gray.jpg,Stimuli/canonical view 2/img_n04405907_5_gray.jpg,foreground,left,Experiments/experiment_7/108.jpg,Experiments/experiment_7/109.jpg,Experiments/experiment_7/110.jpg,Experiments/experiment_7/111.jpg,696,1,2023-05-23_22h13.56.572,Occlusion_Psychophysics,2022.1.4,Win32,59.76571838,,,right,"[""left""]",[0.8143000000045504],False,,0.0,0.0,27.0,27.0,27.0,1.0,,,,,,
,,,,,,,,,,,,,,,,,,,,,0.025,,,,,,,,,,Stimuli/psy_flexible_rotation_30_objects_occ0.7_0.9s/images/train/n04379243_-7/n02818832_0/img_quatre_dining_table_b03_the_sofa_and_chair_company_-_stanley_bed_2014_2001_gray.jpg,n04379243_-7,n02818832_0,flexible,0.707818,n02883344_0,Stimuli/psy_fixed_rotation_30_objects_occ0.7_0.9s/images/train/n02818832_9/n02883344_0/img_bed01_blue_b03_box_2010-3_gray.png,random,fixed,n04379243_-7,n02818832_0,Stimuli/canonical view 2/img_n04379243_-7_gray.jpg,Stimuli/canonical view 2/img_n02818832_0_gray.jpg,foreground,left,Experiments/experiment_7/112.jpg,Experiments/experiment_7/113.jpg,Experiments/experiment_7/114.jpg,Experiments/experiment_7/115.jpg,696,1,2023-05-23_22h13.56.572,Occlusion_Psychophysics,2022.1.4,Win32,59.76571838,,,left,"[""left""]",[0.7360000000003311],False,,0.0,0.0,28.0,28.0,28.0,1.0,,,,,,
,,,,,,,,,,,,,,,,,,,,,0.05,,,,,,,,,,Stimuli/psy_fixed_rotation_30_objects_occ0.7_0.9s/images/train/n04379243_8/n02883344_-1/img_glass_table_woven_box_2014_gray.jpg,n04379243_8,n02883344_-1,fixed,0.727624,n02933112_-2,Stimuli/psy_fixed_rotation_30_objects_occ0.7_0.9s/images/train/n04379243_-7/n02933112_-2/img_quatre_dining_table_sink_base_white_wood_2012-3_gray.png,random,fixed,n04379243_8,n02883344_-1,Stimuli/canonical view 2/img_n04379243_8_gray.jpg,Stimuli/canonical view 2/img_n02883344_-1_gray.jpg,foreground,left,Experiments/experiment_7/116.jpg,Experiments/experiment_7/117.jpg,Experiments/experiment_7/118.jpg,Experiments/experiment_7/119.jpg,696,1,2023-05-23_22h13.56.572,Occlusion_Psychophysics,2022.1.4,Win32,59.76571838,,,right,"[""right""]",[0.5135000000000218],False,,0.0,0.0,29.0,29.0,29.0,1.0,,,,,,
,,,,,,,,,,,,,,,,,,,,,0.05,,,,,,,,,,Stimuli/psy_flexible_rotation_30_objects_occ0.7_0.9s/images/train/n02883344_15/n04256520_4/img_microwave_box_club_house_italia_nautilus_sofa_2002_gray.jpg,n02883344_15,n04256520_4,flexible,0.7164,n04256520_4,Stimuli/psy_flexible_rotation_30_objects_occ0.7_0.9s/images/train/n02883344_15/n04256520_4/img_microwave_box_club_house_italia_nautilus_sofa_2002-3_gray.png,foreground,same as foreground,n02883344_15,n04256520_4,Stimuli/canonical view 2/img_n02883344_15_gray.jpg,Stimuli/canonical view 2/img_n04256520_4_gray.jpg,foreground,left,Experiments/experiment_7/120.jpg,Experiments/experiment_7/121.jpg,Experiments/experiment_7/122.jpg,Experiments/experiment_7/123.jpg,696,1,2023-05-23_22h13.56.572,Occlusion_Psychophysics,2022.1.4,Win32,59.76571838,,,left,"[""left""]",[0.9549999999999272],False,,0.0,0.0,30.0,30.0,30.0,1.0,,,,,,
,,,,,,,,,,,,,,,,,,,,,0.05,,,,,,,,,,Stimuli/psy_flexible_rotation_30_objects_occ0.7_0.9s/images/train/n02818832_0/n02818832_9/img_b03_the_sofa_and_chair_company_-_stanley_bed_2014_bed01_blue_2001_gray.jpg,n02818832_0,n02818832_9,flexible,0.713248,n02933112_-2,Stimuli/psy_flexible_rotation_30_objects_occ0.7_0.9s/images/train/n04379243_8/n02933112_-2/img_glass_table_sink_base_white_wood_2015-3_gray.png,random,flexible,n02818832_0,n02883344_15,Stimuli/canonical view 2/img_n02818832_0_gray.jpg,Stimuli/canonical view 2/img_n02883344_15_gray.jpg,random,left,Experiments/experiment_7/124.jpg,Experiments/experiment_7/125.jpg,Experiments/experiment_7/126.jpg,Experiments/experiment_7/127.jpg,696,1,2023-05-23_22h13.56.572,Occlusion_Psychophysics,2022.1.4,Win32,59.76571838,,,left,"[""left""]",[0.8886000000015883],False,,0.0,0.0,31.0,31.0,31.0,1.0,,,,,,
,,,,,,,,,,,,,,,,,,,,,0.025,,,,,,,,,,Stimuli/psy_fixed_rotation_30_objects_occ0.7_0.9s/images/train/n03001627_-2/n03928116_0/img_wood_chair_b02_piano_2001_gray.jpg,n03001627_-2,n03928116_0,fixed,0.813159,n03928116_0,Stimuli/psy_fixed_rotation_30_objects_occ0.7_0.9s/images/train/n03001627_-2/n03928116_0/img_wood_chair_b02_piano_2001-3_gray.png,foreground,same as foreground,n03001627_-2,n02818832_0,Stimuli/canonical view 2/img_n03001627_-2_gray.jpg,Stimuli/canonical view 2/img_n02818832_0_gray.jpg,random,right,Experiments/experiment_7/128.jpg,Experiments/experiment_7/129.jpg,Experiments/experiment_7/130.jpg,Experiments/experiment_7/131.jpg,696,1,2023-05-23_22h13.56.572,Occlusion_Psychophysics,2022.1.4,Win32,59.76571838,,,left,"[""left""]",[2.02710000000161],False,,0.0,0.0,32.0,32.0,32.0,1.0,,,,,,
,,,,,,,,,,,,,,,,,,,,,0.025,,,,,,,,,,Stimuli/psy_fixed_rotation_30_objects_occ0.7_0.9s/images/train/n04405907_5/n02818832_9/img_samsung_40_uhd_smart_tv_2011_bed01_blue_2010_gray.jpg,n04405907_5,n02818832_9,fixed,0.755954,n02818832_9,Stimuli/psy_fixed_rotation_30_objects_occ0.7_0.9s/images/train/n04405907_5/n02818832_9/img_samsung_40_uhd_smart_tv_2011_bed01_blue_2010-3_gray.png,foreground,same as foreground,n04405907_5,n02818832_9,Stimuli/canonical view 2/img_n04405907_5_gray.jpg,Stimuli/canonical view 2/img_n02818832_9_gray.jpg,foreground,right,Experiments/experiment_7/132.jpg,Experiments/experiment_7/133.jpg,Experiments/experiment_7/134.jpg,Experiments/experiment_7/135.jpg,696,1,2023-05-23_22h13.56.572,Occlusion_Psychophysics,2022.1.4,Win32,59.76571838,,,right,"[""right""]",[0.7022999999967396],False,,0.0,0.0,33.0,33.0,33.0,1.0,,,,,,
,,,,,,,,,,,,,,,,,,,,,0.025,,,,,,,,,,Stimuli/psy_flexible_rotation_30_objects_occ0.7_0.9s/images/train/n02828884_9/n04405907_8/img_cr-96_bench_stylized_tv_2005_gray.jpg,n02828884_9,n04405907_8,flexible,0.736881,n04405907_8,Stimuli/psy_flexible_rotation_30_objects_occ0.7_0.9s/images/train/n02828884_9/n04405907_8/img_cr-96_bench_stylized_tv_2005-3_gray.png,foreground,same as foreground,n02828884_9,n02933112_-2,Stimuli/canonical view 2/img_n02828884_9_gray.jpg,Stimuli/canonical view 2/img_n02933112_-2_gray.jpg,random,left,Experiments/experiment_7/136.jpg,Experiments/experiment_7/137.jpg,Experiments/experiment_7/138.jpg,Experiments/experiment_7/139.jpg,696,1,2023-05-23_22h13.56.572,Occlusion_Psychophysics,2022.1.4,Win32,59.76571838,,,left,"[""left""]",[0.7032000000026528],False,,0.0,0.0,34.0,34.0,34.0,1.0,,,,,,
,,,,,,,,,,,,,,,,,,,,,0.025,,,,,,,,,,Stimuli/psy_fixed_rotation_30_objects_occ0.7_0.9s/images/train/n04256520_4/n04256520_9/img_club_house_italia_nautilus_sofa_napoleon_iii_sofa_2008_gray.jpg,n04256520_4,n04256520_9,fixed,0.739279,n02883344_0,Stimuli/psy_flexible_rotation_30_objects_occ0.7_0.9s/images/train/n02883344_0/n02883344_0/img_b03_box_b03_box_2005-3_gray.png,random,flexible,n04256520_4,n04256520_9,Stimuli/canonical view 2/img_n04256520_4_gray.jpg,Stimuli/canonical view 2/img_n04256520_9_gray.jpg,foreground,right,Experiments/experiment_7/140.jpg,Experiments/experiment_7/141.jpg,Experiments/experiment_7/142.jpg,Experiments/experiment_7/143.jpg,696,1,2023-05-23_22h13.56.572,Occlusion_Psychophysics,2022.1.4,Win32,59.76571838,,,right,"[""left""]",[0.9089999999996508],False,,0.0,0.0,35.0,35.0,35.0,1.0,,,,,,
,,,,,,,,,,,,,,,,,,,,,0.025,,,,,,,,,,Stimuli/psy_flexible_rotation_30_objects_occ0.7_0.9s/images/train/n02933112_-18/n03001627_8/img_cgaxis_models_48_26_vray_composite_chair_billiani_doll_2015_gray.jpg,n02933112_-18,n03001627_8,flexible,0.711576,n03001627_8,Stimuli/psy_flexible_rotation_30_objects_occ0.7_0.9s/images/train/n02933112_-18/n03001627_8/img_cgaxis_models_48_26_vray_composite_chair_billiani_doll_2015-3_gray.png,foreground,same as foreground,n02933112_-18,n04379243_-7,Stimuli/canonical view 2/img_n02933112_-18_gray.jpg,Stimuli/canonical view 2/img_n04379243_-7_gray.jpg,random,left,Experiments/experiment_7/144.jpg,Experiments/experiment_7/145.jpg,Experiments/experiment_7/146.jpg,Experiments/experiment_7/147.jpg,696,1,2023-05-23_22h13.56.572,Occlusion_Psychophysics,2022.1.4,Win32,59.76571838,,,right,"[""right""]",[0.6513999999983753],False,,0.0,0.0,36.0,36.0,36.0,1.0,,,,,,
,,,,,,,,,,,,,,,,,,,,,0.05,,,,,,,,,,Stimuli/psy_flexible_rotation_30_objects_occ0.7_0.9s/images/train/n02818832_0/n04256520_9/img_b03_the_sofa_and_chair_company_-_stanley_bed_2014_napoleon_iii_sofa_2004_gray.jpg,n02818832_0,n04256520_9,flexible,0.771451,n02933112_-2,Stimuli/psy_fixed_rotation_30_objects_occ0.7_0.9s/images/train/n02828884_3/n02933112_-2/img_b04_wood_metal_park_bench_sink_base_white_wood_2003-3_gray.png,random,fixed,n02818832_0,n04256520_9,Stimuli/canonical view 2/img_n02818832_0_gray.jpg,Stimuli/canonical view 2/img_n04256520_9_gray.jpg,foreground,right,Experiments/experiment_7/148.jpg,Experiments/experiment_7/149.jpg,Experiments/experiment_7/150.jpg,Experiments/experiment_7/151.jpg,696,1,2023-05-23_22h13.56.572,Occlusion_Psychophysics,2022.1.4,Win32,59.76571838,,,right,"[""right""]",[0.8515000000002146],False,,0.0,0.0,37.0,37.0,37.0,1.0,,,,,,
,,,,,,,,,,,,,,,,,,,,,0.025,,,,,,,,,,Stimuli/psy_fixed_rotation_30_objects_occ0.7_0.9s/images/train/n02818832_0/n02828884_3/img_b03_the_sofa_and_chair_company_-_stanley_bed_2014_b04_wood_metal_park_bench_2005_gray.jpg,n02818832_0,n02828884_3,fixed,0.708295,n03928116_4,Stimuli/psy_fixed_rotation_30_objects_occ0.7_0.9s/images/train/n04405907_5/n03928116_4/img_samsung_40_uhd_smart_tv_2011_dp_33_b_2013__vray_2006-3_gray.png,random,fixed,n02818832_0,n02828884_3,Stimuli/canonical view 2/img_n02818832_0_gray.jpg,Stimuli/canonical view 2/img_n02828884_3_gray.jpg,foreground,left,Experiments/experiment_7/152.jpg,Experiments/experiment_7/153.jpg,Experiments/experiment_7/154.jpg,Experiments/experiment_7/155.jpg,696,1,2023-05-23_22h13.56.572,Occlusion_Psychophysics,2022.1.4,Win32,59.76571838,,,right,"[""left""]",[0.328899999998157],False,,0.0,0.0,38.0,38.0,38.0,1.0,,,,,,
,,,,,,,,,,,,,,,,,,,,,0.025,,,,,,,,,,Stimuli/psy_fixed_rotation_30_objects_occ0.7_0.9s/images/train/n02883344_-1/n04256520_5/img_woven_box_meridiani_belmondo_bench_sofa_2004_gray.jpg,n02883344_-1,n04256520_5,fixed,0.711601,n04256520_5,Stimuli/psy_fixed_rotation_30_objects_occ0.7_0.9s/images/train/n02883344_-1/n04256520_5/img_woven_box_meridiani_belmondo_bench_sofa_2004-3_gray.png,foreground,same as foreground,n02883344_-1,n04256520_9,Stimuli/canonical view 2/img_n02883344_-1_gray.jpg,Stimuli/canonical view 2/img_n04256520_9_gray.jpg,random,right,Experiments/experiment_7/156.jpg,Experiments/experiment_7/157.jpg,Experiments/experiment_7/158.jpg,Experiments/experiment_7/159.jpg,696,1,2023-05-23_22h13.56.572,Occlusion_Psychophysics,2022.1.4,Win32,59.76571838,,,right,"[""left""]",[0.7688000000048305],False,,0.0,0.0,39.0,39.0,39.0,1.0,,,,,,
,,,,,,,,,,,,,,,,,,,,,0.05,,,,,,,,,,Stimuli/psy_flexible_rotation_30_objects_occ0.7_0.9s/images/train/n02933112_-2/n04379243_0/img_sink_base_white_wood_17th_c._monastery_dining_table_2010_2012_gray.jpg,n02933112_-2,n04379243_0,flexible,0.795466,n04379243_0,Stimuli/psy_flexible_rotation_30_objects_occ0.7_0.9s/images/train/n02933112_-2/n04379243_0/img_sink_base_white_wood_17th_c._monastery_dining_table_2010_2012-3_gray.png,foreground,same as foreground,n02933112_-2,n02828884_4,Stimuli/canonical view 2/img_n02933112_-2_gray.jpg,Stimuli/canonical view 2/img_n02828884_4_gray.jpg,random,left,Experiments/experiment_7/160.jpg,Experiments/experiment_7/161.jpg,Experiments/experiment_7/162.jpg,Experiments/experiment_7/163.jpg,696,1,2023-05-23_22h13.56.572,Occlusion_Psychophysics,2022.1.4,Win32,59.76571838,,,left,"[""left""]",[0.7276999999958207],False,,0.0,0.0,40.0,40.0,40.0,1.0,,,,,,
,,,,,,,,,,,,,,,,,,,,,0.05,,,,,,,,,,Stimuli/psy_flexible_rotation_30_objects_occ0.7_0.9s/images/train/n02933112_-2/n02818832_0/img_sink_base_white_wood_b03_the_sofa_and_chair_company_-_stanley_bed_2014_2005_gray.jpg,n02933112_-2,n02818832_0,flexible,0.77123,n02883344_0,Stimuli/psy_flexible_rotation_30_objects_occ0.7_0.9s/images/train/n02883344_0/n02883344_0/img_b03_box_b03_box_2002-3_gray.png,random,flexible,n02933112_-2,n02883344_0,Stimuli/canonical view 2/img_n02933112_-2_gray.jpg,Stimuli/canonical view 2/img_n02883344_0_gray.jpg,random,left,Experiments/experiment_7/164.jpg,Experiments/experiment_7/165.jpg,Experiments/experiment_7/166.jpg,Experiments/experiment_7/167.jpg,696,1,2023-05-23_22h13.56.572,Occlusion_Psychophysics,2022.1.4,Win32,59.76571838,,,right,"[""right""]",[1.126199999995606],False,,0.0,0.0,41.0,41.0,41.0,1.0,,,,,,
,,,,,,,,,,,,,,,,,,,,,0.05,,,,,,,,,,Stimuli/psy_fixed_rotation_30_objects_occ0.7_0.9s/images/train/n02883344_0/n04379243_0/img_b03_box_17th_c._monastery_dining_table_2010_2008_gray.jpg,n02883344_0,n04379243_0,fixed,0.709694,n04379243_0,Stimuli/psy_fixed_rotation_30_objects_occ0.7_0.9s/images/train/n02883344_0/n04379243_0/img_b03_box_17th_c._monastery_dining_table_2010_2008-3_gray.png,foreground,same as foreground,n02883344_0,n04379243_0,Stimuli/canonical view 2/img_n02883344_0_gray.jpg,Stimuli/canonical view 2/img_n04379243_0_gray.jpg,foreground,right,Experiments/experiment_7/168.jpg,Experiments/experiment_7/169.jpg,Experiments/experiment_7/170.jpg,Experiments/experiment_7/171.jpg,696,1,2023-05-23_22h13.56.572,Occlusion_Psychophysics,2022.1.4,Win32,59.76571838,,,right,"[""right""]",[0.7846000000017739],False,,0.0,0.0,42.0,42.0,42.0,1.0,,,,,,
,,,,,,,,,,,,,,,,,,,,,0.025,,,,,,,,,,Stimuli/psy_fixed_rotation_30_objects_occ0.7_0.9s/images/train/n03001627_-2/n02883344_15/img_wood_chair_microwave_box_2013_gray.jpg,n03001627_-2,n02883344_15,fixed,0.7801,n02883344_0,Stimuli/psy_flexible_rotation_30_objects_occ0.7_0.9s/images/train/n04405907_5/n02883344_0/img_samsung_40_uhd_smart_tv_2011_b03_box_2002-3_gray.png,random,flexible,n03001627_-2,n02883344_15,Stimuli/canonical view 2/img_n03001627_-2_gray.jpg,Stimuli/canonical view 2/img_n02883344_15_gray.jpg,foreground,left,Experiments/experiment_7/172.jpg,Experiments/experiment_7/173.jpg,Experiments/experiment_7/174.jpg,Experiments/experiment_7/175.jpg,696,1,2023-05-23_22h13.56.572,Occlusion_Psychophysics,2022.1.4,Win32,59.76571838,,,right,"[""right""]",[0.9160000000001673],False,,0.0,0.0,43.0,43.0,43.0,1.0,,,,,,
,,,,,,,,,,,,,,,,,,,,,0.025,,,,,,,,,,Stimuli/psy_flexible_rotation_30_objects_occ0.7_0.9s/images/train/n02933112_-2/n04405907_8/img_sink_base_white_wood_stylized_tv_2015_gray.jpg,n02933112_-2,n04405907_8,flexible,0.704586,n04405907_8,Stimuli/psy_flexible_rotation_30_objects_occ0.7_0.9s/images/train/n02933112_-2/n04405907_8/img_sink_base_white_wood_stylized_tv_2015-3_gray.png,foreground,same as foreground,n02933112_-2,n04405907_8,Stimuli/canonical view 2/img_n02933112_-2_gray.jpg,Stimuli/canonical view 2/img_n04405907_8_gray.jpg,foreground,left,Experiments/experiment_7/176.jpg,Experiments/experiment_7/177.jpg,Experiments/experiment_7/178.jpg,Experiments/experiment_7/179.jpg,696,1,2023-05-23_22h13.56.572,Occlusion_Psychophysics,2022.1.4,Win32,59.76571838,,,right,"[""right""]",[0.6847000000029766],False,,0.0,0.0,44.0,44.0,44.0,1.0,,,,,,
,,,,,,,,,,,,,,,,,,,,,0.05,,,,,,,,,,Stimuli/psy_fixed_rotation_30_objects_occ0.7_0.9s/images/train/n03001627_8/n03928116_0/img_chair_billiani_doll_b02_piano_2004_gray.jpg,n03001627_8,n03928116_0,fixed,0.716972,n04405907_8,Stimuli/psy_flexible_rotation_30_objects_occ0.7_0.9s/images/train/n04405907_8/n04405907_8/img_stylized_tv_stylized_tv_2004-3_gray.png,random,flexible,n03001627_8,n03928116_0,Stimuli/canonical view 2/img_n03001627_8_gray.jpg,Stimuli/canonical view 2/img_n03928116_0_gray.jpg,foreground,right,Experiments/experiment_7/180.jpg,Experiments/experiment_7/181.jpg,Experiments/experiment_7/182.jpg,Experiments/experiment_7/183.jpg,696,1,2023-05-23_22h13.56.572,Occlusion_Psychophysics,2022.1.4,Win32,59.76571838,,,left,"[""left""]",[0.7065999999940686],False,,0.0,0.0,45.0,45.0,45.0,1.0,,,,,,
,,,,,,,,,,,,,,,,,,,,,0.025,,,,,,,,,,Stimuli/psy_fixed_rotation_30_objects_occ0.7_0.9s/images/train/n02933112_4/n02883344_-1/img_buffet_woven_box_2011_gray.jpg,n02933112_4,n02883344_-1,fixed,0.741726,n04405907_8,Stimuli/psy_fixed_rotation_30_objects_occ0.7_0.9s/images/train/n04256520_4/n04405907_8/img_club_house_italia_nautilus_sofa_stylized_tv_2011-3_gray.png,random,fixed,n02933112_4,n02883344_-1,Stimuli/canonical view 2/img_n02933112_4_gray.jpg,Stimuli/canonical view 2/img_n02883344_-1_gray.jpg,foreground,right,Experiments/experiment_7/184.jpg,Experiments/experiment_7/185.jpg,Experiments/experiment_7/186.jpg,Experiments/experiment_7/187.jpg,696,1,2023-05-23_22h13.56.572,Occlusion_Psychophysics,2022.1.4,Win32,59.76571838,,,right,"[""right""]",[0.7501999999954023],False,,0.0,0.0,46.0,46.0,46.0,1.0,,,,,,
,,,,,,,,,,,,,,,,,,,,,0.05,,,,,,,,,,Stimuli/psy_flexible_rotation_30_objects_occ0.7_0.9s/images/train/n03001627_8/n02883344_0/img_chair_billiani_doll_b03_box_2002_gray.jpg,n03001627_8,n02883344_0,flexible,0.790749,n02883344_0,Stimuli/psy_flexible_rotation_30_objects_occ0.7_0.9s/images/train/n03001627_8/n02883344_0/img_chair_billiani_doll_b03_box_2002-3_gray.png,foreground,same as foreground,n03001627_8,n02818832_0,Stimuli/canonical view 2/img_n03001627_8_gray.jpg,Stimuli/canonical view 2/img_n02818832_0_gray.jpg,random,left,Experiments/experiment_7/188.jpg,Experiments/experiment_7/189.jpg,Experiments/experiment_7/190.jpg,Experiments/experiment_7/191.jpg,696,1,2023-05-23_22h13.56.572,Occlusion_Psychophysics,2022.1.4,Win32,59.76571838,,,left,"[""right""]",[1.1181000000015047],False,,0.0,0.0,47.0,47.0,47.0,1.0,,,,,,
,,,,,,,,,,,,,,,,,,,,,0.05,,,,,,,,,,Stimuli/psy_flexible_rotation_30_objects_occ0.7_0.9s/images/train/n04405907_9/n02818832_3/img_vray_004_b05_ccm_contemporary_bed_max2013_2009_gray.jpg,n04405907_9,n02818832_3,flexible,0.779732,n02818832_3,Stimuli/psy_flexible_rotation_30_objects_occ0.7_0.9s/images/train/n04405907_9/n02818832_3/img_vray_004_b05_ccm_contemporary_bed_max2013_2009-3_gray.png,foreground,same as foreground,n04405907_9,n02818832_3,Stimuli/canonical view 2/img_n04405907_9_gray.jpg,Stimuli/canonical view 2/img_n02818832_3_gray.jpg,foreground,right,Experiments/experiment_7/192.jpg,Experiments/experiment_7/193.jpg,Experiments/experiment_7/194.jpg,Experiments/experiment_7/195.jpg,696,1,2023-05-23_22h13.56.572,Occlusion_Psychophysics,2022.1.4,Win32,59.76571838,,,right,"[""right""]",[0.9131000000015774],False,,0.0,0.0,48.0,48.0,48.0,1.0,,,,,,
,,,,,,,,,,,,,,,,,,,,,0.05,,,,,,,,,,Stimuli/psy_fixed_rotation_30_objects_occ0.7_0.9s/images/train/n04256520_9/n02828884_3/img_napoleon_iii_sofa_b04_wood_metal_park_bench_2011_gray.jpg,n04256520_9,n02828884_3,fixed,0.71384,n04379243_0,Stimuli/psy_fixed_rotation_30_objects_occ0.7_0.9s/images/train/n02883344_15/n04379243_0/img_microwave_box_17th_c._monastery_dining_table_2010_2006-3_gray.png,random,fixed,n04256520_9,n04405907_5,Stimuli/canonical view 2/img_n04256520_9_gray.jpg,Stimuli/canonical view 2/img_n04405907_5_gray.jpg,random,right,Experiments/experiment_7/196.jpg,Experiments/experiment_7/197.jpg,Experiments/experiment_7/198.jpg,Experiments/experiment_7/199.jpg,696,1,2023-05-23_22h13.56.572,Occlusion_Psychophysics,2022.1.4,Win32,59.76571838,,,right,"[""left""]",[0.9956999999958498],True,right,1.0,0.0,49.0,49.0,49.0,1.0,2.325,,,,,
,,,,,,,,,,,,,,,,,,,,,0.025,,,,,,,,,,Stimuli/psy_flexible_rotation_30_objects_occ0.7_0.9s/images/train/n03928116_0/n04405907_5/img_b02_piano_samsung_40_uhd_smart_tv_2011_2007_gray.jpg,n03928116_0,n04405907_5,flexible,0.71541,n04405907_5,Stimuli/psy_flexible_rotation_30_objects_occ0.7_0.9s/images/train/n03928116_0/n04405907_5/img_b02_piano_samsung_40_uhd_smart_tv_2011_2007-3_gray.png,foreground,same as foreground,n03928116_0,n02818832_0,Stimuli/canonical view 2/img_n03928116_0_gray.jpg,Stimuli/canonical view 2/img_n02818832_0_gray.jpg,random,right,Experiments/experiment_7/200.jpg,Experiments/experiment_7/201.jpg,Experiments/experiment_7/202.jpg,Experiments/experiment_7/203.jpg,696,1,2023-05-23_22h13.56.572,Occlusion_Psychophysics,2022.1.4,Win32,59.76571838,,,right,"[""right""]",[0.8109000000058586],False,,0.0,0.0,50.0,50.0,50.0,1.0,,,,,,
,,,,,,,,,,,,,,,,,,,,,0.025,,,,,,,,,,Stimuli/psy_fixed_rotation_30_objects_occ0.7_0.9s/images/train/n02818832_0/n04405907_5/img_b03_the_sofa_and_chair_company_-_stanley_bed_2014_samsung_40_uhd_smart_tv_2011_2008_gray.jpg,n02818832_0,n04405907_5,fixed,0.771066,n04405907_5,Stimuli/psy_fixed_rotation_30_objects_occ0.7_0.9s/images/train/n02818832_0/n04405907_5/img_b03_the_sofa_and_chair_company_-_stanley_bed_2014_samsung_40_uhd_smart_tv_2011_2008-3_gray.png,foreground,same as foreground,n02818832_0,n04405907_5,Stimuli/canonical view 2/img_n02818832_0_gray.jpg,Stimuli/canonical view 2/img_n04405907_5_gray.jpg,foreground,left,Experiments/experiment_7/204.jpg,Experiments/experiment_7/205.jpg,Experiments/experiment_7/206.jpg,Experiments/experiment_7/207.jpg,696,1,2023-05-23_22h13.56.572,Occlusion_Psychophysics,2022.1.4,Win32,59.76571838,,,left,"[""right""]",[1.0070000000000618],False,,0.0,0.0,51.0,51.0,51.0,1.0,,,,,,
,,,,,,,,,,,,,,,,,,,,,0.025,,,,,,,,,,Stimuli/psy_flexible_rotation_30_objects_occ0.7_0.9s/images/train/n02818832_3/n02818832_0/img_b05_ccm_contemporary_bed_max2013_b03_the_sofa_and_chair_company_-_stanley_bed_2014_2005_gray.jpg,n02818832_3,n02818832_0,flexible,0.794671,n02818832_0,Stimuli/psy_flexible_rotation_30_objects_occ0.7_0.9s/images/train/n02818832_3/n02818832_0/img_b05_ccm_contemporary_bed_max2013_b03_the_sofa_and_chair_company_-_stanley_bed_2014_2005-3_gray.png,foreground,same as foreground,n02818832_3,n02818832_0,Stimuli/canonical view 2/img_n02818832_3_gray.jpg,Stimuli/canonical view 2/img_n02818832_0_gray.jpg,foreground,right,Experiments/experiment_7/208.jpg,Experiments/experiment_7/209.jpg,Experiments/experiment_7/210.jpg,Experiments/experiment_7/211.jpg,696,1,2023-05-23_22h13.56.572,Occlusion_Psychophysics,2022.1.4,Win32,59.76571838,,,right,"[""right""]",[1.5391000000013264],True,right,1.0,0.0,52.0,52.0,52.0,1.0,2.5791,,,,,
,,,,,,,,,,,,,,,,,,,,,0.05,,,,,,,,,,Stimuli/psy_flexible_rotation_30_objects_occ0.7_0.9s/images/train/n03928116_0/n03001627_9/img_b02_piano_chair_eames_plastic_armchair_2008_gray.jpg,n03928116_0,n03001627_9,flexible,0.755855,n03001627_9,Stimuli/psy_flexible_rotation_30_objects_occ0.7_0.9s/images/train/n03928116_0/n03001627_9/img_b02_piano_chair_eames_plastic_armchair_2008-3_gray.png,foreground,same as foreground,n03928116_0,n03001627_9,Stimuli/canonical view 2/img_n03928116_0_gray.jpg,Stimuli/canonical view 2/img_n03001627_9_gray.jpg,foreground,right,Experiments/experiment_7/212.jpg,Experiments/experiment_7/213.jpg,Experiments/experiment_7/214.jpg,Experiments/experiment_7/215.jpg,696,1,2023-05-23_22h13.56.572,Occlusion_Psychophysics,2022.1.4,Win32,59.76571838,,,right,"[""right""]",[0.6207000000031258],False,,0.0,0.0,53.0,53.0,53.0,1.0,,,,,,
,,,,,,,,,,,,,,,,,,,,,0.025,,,,,,,,,,Stimuli/psy_fixed_rotation_30_objects_occ0.7_0.9s/images/train/n04379243_8/n04405907_5/img_glass_table_samsung_40_uhd_smart_tv_2011_2008_gray.jpg,n04379243_8,n04405907_5,fixed,0.785154,n04405907_5,Stimuli/psy_fixed_rotation_30_objects_occ0.7_0.9s/images/train/n04379243_8/n04405907_5/img_glass_table_samsung_40_uhd_smart_tv_2011_2008-3_gray.png,foreground,same as foreground,n04379243_8,n03001627_9,Stimuli/canonical view 2/img_n04379243_8_gray.jpg,Stimuli/canonical view 2/img_n03001627_9_gray.jpg,random,right,Experiments/experiment_7/216.jpg,Experiments/experiment_7/217.jpg,Experiments/experiment_7/218.jpg,Experiments/experiment_7/219.jpg,696,1,2023-05-23_22h13.56.572,Occlusion_Psychophysics,2022.1.4,Win32,59.76571838,,,left,"[""left""]",[0.5475000000001273],False,,0.0,0.0,54.0,54.0,54.0,1.0,,,,,,
,,,,,,,,,,,,,,,,,,,,,0.05,,,,,,,,,,Stimuli/psy_fixed_rotation_30_objects_occ0.7_0.9s/images/train/n03928116_0/n04405907_8/img_b02_piano_stylized_tv_2011_gray.jpg,n03928116_0,n04405907_8,fixed,0.864585,n02933112_-2,Stimuli/psy_flexible_rotation_30_objects_occ0.7_0.9s/images/train/n04379243_-7/n02933112_-2/img_quatre_dining_table_sink_base_white_wood_2005-3_gray.png,random,flexible,n03928116_0,n04405907_8,Stimuli/canonical view 2/img_n03928116_0_gray.jpg,Stimuli/canonical view 2/img_n04405907_8_gray.jpg,foreground,right,Experiments/experiment_7/220.jpg,Experiments/experiment_7/221.jpg,Experiments/experiment_7/222.jpg,Experiments/experiment_7/223.jpg,696,1,2023-05-23_22h13.56.572,Occlusion_Psychophysics,2022.1.4,Win32,59.76571838,,,left,"[""left""]",[0.8597999999969943],False,,0.0,0.0,55.0,55.0,55.0,1.0,,,,,,
,,,,,,,,,,,,,,,,,,,,,0.025,,,,,,,,,,Stimuli/psy_flexible_rotation_30_objects_occ0.7_0.9s/images/train/n02818832_0/n02818832_3/img_b03_the_sofa_and_chair_company_-_stanley_bed_2014_b05_ccm_contemporary_bed_max2013_2011_gray.jpg,n02818832_0,n02818832_3,flexible,0.863443,n02883344_15,Stimuli/psy_flexible_rotation_30_objects_occ0.7_0.9s/images/train/n04379243_8/n02883344_15/img_glass_table_microwave_box_2014-3_gray.png,random,flexible,n02818832_0,n03928116_4,Stimuli/canonical view 2/img_n02818832_0_gray.jpg,Stimuli/canonical view 2/img_n03928116_4_gray.jpg,random,left,Experiments/experiment_7/224.jpg,Experiments/experiment_7/225.jpg,Experiments/experiment_7/226.jpg,Experiments/experiment_7/227.jpg,696,1,2023-05-23_22h13.56.572,Occlusion_Psychophysics,2022.1.4,Win32,59.76571838,,,left,"[""left""]",[1.1526000000012573],False,,0.0,0.0,56.0,56.0,56.0,1.0,,,,,,
,,,,,,,,,,,,,,,,,,,,,0.025,,,,,,,,,,Stimuli/psy_flexible_rotation_30_objects_occ0.7_0.9s/images/train/n02828884_3/n04379243_-7/img_b04_wood_metal_park_bench_quatre_dining_table_2012_gray.jpg,n02828884_3,n04379243_-7,flexible,0.709576,n04379243_-7,Stimuli/psy_flexible_rotation_30_objects_occ0.7_0.9s/images/train/n02828884_3/n04379243_-7/img_b04_wood_metal_park_bench_quatre_dining_table_2012-3_gray.png,foreground,same as foreground,n02828884_3,n04379243_-7,Stimuli/canonical view 2/img_n02828884_3_gray.jpg,Stimuli/canonical view 2/img_n04379243_-7_gray.jpg,foreground,left,Experiments/experiment_7/228.jpg,Experiments/experiment_7/229.jpg,Experiments/experiment_7/230.jpg,Experiments/experiment_7/231.jpg,696,1,2023-05-23_22h13.56.572,Occlusion_Psychophysics,2022.1.4,Win32,59.76571838,,,right,"[""right""]",[0.7894999999998618],False,,0.0,0.0,57.0,57.0,57.0,1.0,,,,,,
,,,,,,,,,,,,,,,,,,,,,0.05,,,,,,,,,,Stimuli/psy_fixed_rotation_30_objects_occ0.7_0.9s/images/train/n04256520_4/n02883344_0/img_club_house_italia_nautilus_sofa_b03_box_2008_gray.jpg,n04256520_4,n02883344_0,fixed,0.773754,n03928116_4,Stimuli/psy_flexible_rotation_30_objects_occ0.7_0.9s/images/train/n04379243_8/n03928116_4/img_glass_table_dp_33_b_2013__vray_2007-3_gray.png,random,flexible,n04256520_4,n02828884_9,Stimuli/canonical view 2/img_n04256520_4_gray.jpg,Stimuli/canonical view 2/img_n02828884_9_gray.jpg,random,left,Experiments/experiment_7/232.jpg,Experiments/experiment_7/233.jpg,Experiments/experiment_7/234.jpg,Experiments/experiment_7/235.jpg,696,1,2023-05-23_22h13.56.572,Occlusion_Psychophysics,2022.1.4,Win32,59.76571838,,,right,"[""right""]",[0.871899999998277],False,,0.0,0.0,58.0,58.0,58.0,1.0,,,,,,
,,,,,,,,,,,,,,,,,,,,,0.025,,,,,,,,,,Stimuli/psy_flexible_rotation_30_objects_occ0.7_0.9s/images/train/n02933112_-18/n04405907_5/img_cgaxis_models_48_26_vray_composite_samsung_40_uhd_smart_tv_2011_2005_gray.jpg,n02933112_-18,n04405907_5,flexible,0.843312,n04405907_5,Stimuli/psy_flexible_rotation_30_objects_occ0.7_0.9s/images/train/n02933112_-18/n04405907_5/img_cgaxis_models_48_26_vray_composite_samsung_40_uhd_smart_tv_2011_2005-3_gray.png,foreground,same as foreground,n02933112_-18,n03001627_8,Stimuli/canonical view 2/img_n02933112_-18_gray.jpg,Stimuli/canonical view 2/img_n03001627_8_gray.jpg,random,right,Experiments/experiment_7/236.jpg,Experiments/experiment_7/237.jpg,Experiments/experiment_7/238.jpg,Experiments/experiment_7/239.jpg,696,1,2023-05-23_22h13.56.572,Occlusion_Psychophysics,2022.1.4,Win32,59.76571838,,,right,"[""right""]",[0.9595999999942251],False,,0.0,0.0,59.0,59.0,59.0,1.0,,,,,,
,,,,,,,,,,,,,,,,,,,,,0.025,,,,,,,,,,Stimuli/psy_fixed_rotation_30_objects_occ0.7_0.9s/images/train/n02933112_4/n02828884_3/img_buffet_b04_wood_metal_park_bench_2002_gray.jpg,n02933112_4,n02828884_3,fixed,0.709663,n02828884_3,Stimuli/psy_fixed_rotation_30_objects_occ0.7_0.9s/images/train/n02933112_4/n02828884_3/img_buffet_b04_wood_metal_park_bench_2002-3_gray.png,foreground,same as foreground,n02933112_4,n02828884_3,Stimuli/canonical view 2/img_n02933112_4_gray.jpg,Stimuli/canonical view 2/img_n02828884_3_gray.jpg,foreground,right,Experiments/experiment_7/240.jpg,Experiments/experiment_7/241.jpg,Experiments/experiment_7/242.jpg,Experiments/experiment_7/243.jpg,696,1,2023-05-23_22h13.56.572,Occlusion_Psychophysics,2022.1.4,Win32,59.76571838,,,left,"[""left""]",[1.0839999999998327],False,,0.0,0.0,60.0,60.0,60.0,1.0,,,,,,
,,,,,,,,,,,,,,,,,,,,,0.05,,,,,,,,,,Stimuli/psy_fixed_rotation_30_objects_occ0.7_0.9s/images/train/n04256520_9/n02883344_0/img_napoleon_iii_sofa_b03_box_2008_gray.jpg,n04256520_9,n02883344_0,fixed,0.706093,n02883344_0,Stimuli/psy_fixed_rotation_30_objects_occ0.7_0.9s/images/train/n04256520_9/n02883344_0/img_napoleon_iii_sofa_b03_box_2008-3_gray.png,foreground,same as foreground,n04256520_9,n03928116_4,Stimuli/canonical view 2/img_n04256520_9_gray.jpg,Stimuli/canonical view 2/img_n03928116_4_gray.jpg,random,left,Experiments/experiment_7/244.jpg,Experiments/experiment_7/245.jpg,Experiments/experiment_7/246.jpg,Experiments/experiment_7/247.jpg,696,1,2023-05-23_22h13.56.572,Occlusion_Psychophysics,2022.1.4,Win32,59.76571838,,,right,"[""right""]",[0.6938999999983935],True,right,1.0,0.0,61.0,61.0,61.0,1.0,1.2491,,,,,
,,,,,,,,,,,,,,,,,,,,,0.05,,,,,,,,,,Stimuli/psy_flexible_rotation_30_objects_occ0.7_0.9s/images/train/n03928116_0/n04405907_5/img_b02_piano_samsung_40_uhd_smart_tv_2011_2007_gray.jpg,n03928116_0,n04405907_5,flexible,0.71541,n03928116_10,Stimuli/psy_fixed_rotation_30_objects_occ0.7_0.9s/images/train/n02818832_9/n03928116_10/img_bed01_blue_ydp_103_r_2012__vray_2002-3_gray.png,random,fixed,n03928116_0,n04405907_5,Stimuli/canonical view 2/img_n03928116_0_gray.jpg,Stimuli/canonical view 2/img_n04405907_5_gray.jpg,foreground,right,Experiments/experiment_7/248.jpg,Experiments/experiment_7/249.jpg,Experiments/experiment_7/250.jpg,Experiments/experiment_7/251.jpg,696,1,2023-05-23_22h13.56.572,Occlusion_Psychophysics,2022.1.4,Win32,59.76571838,,,right,"[""right""]",[0.9896000000017011],False,,0.0,0.0,62.0,62.0,62.0,1.0,,,,,,
,,,,,,,,,,,,,,,,,,,,,0.025,,,,,,,,,,Stimuli/psy_fixed_rotation_30_objects_occ0.7_0.9s/images/train/n03928116_10/n03928116_0/img_ydp_103_r_2012__vray_b02_piano_2005_gray.jpg,n03928116_10,n03928116_0,fixed,0.728933,n04379243_0,Stimuli/psy_flexible_rotation_30_objects_occ0.7_0.9s/images/train/n02828884_4/n04379243_0/img_b05_c-5_classic_series_bench-2012_17th_c._monastery_dining_table_2010_2012-3_gray.png,random,flexible,n03928116_10,n03928116_0,Stimuli/canonical view 2/img_n03928116_10_gray.jpg,Stimuli/canonical view 2/img_n03928116_0_gray.jpg,foreground,right,Experiments/experiment_7/252.jpg,Experiments/experiment_7/253.jpg,Experiments/experiment_7/254.jpg,Experiments/experiment_7/255.jpg,696,1,2023-05-23_22h13.56.572,Occlusion_Psychophysics,2022.1.4,Win32,59.76571838,,,left,"[""left""]",[0.6513999999983753],False,,0.0,0.0,63.0,63.0,63.0,1.0,,,,,,
,,,,,,,,,,,,,,,,,,,,,0.05,,,,,,,,,,Stimuli/psy_flexible_rotation_30_objects_occ0.7_0.9s/images/train/n03001627_9/n02933112_-18/img_chair_eames_plastic_armchair_cgaxis_models_48_26_vray_composite_2011_gray.jpg,n03001627_9,n02933112_-18,flexible,0.803632,n02933112_-18,Stimuli/psy_flexible_rotation_30_objects_occ0.7_0.9s/images/train/n03001627_9/n02933112_-18/img_chair_eames_plastic_armchair_cgaxis_models_48_26_vray_composite_2011-3_gray.png,foreground,same as foreground,n03001627_9,n02933112_-18,Stimuli/canonical view 2/img_n03001627_9_gray.jpg,Stimuli/canonical view 2/img_n02933112_-18_gray.jpg,foreground,left,Experiments/experiment_7/256.jpg,Experiments/experiment_7/257.jpg,Experiments/experiment_7/258.jpg,Experiments/experiment_7/259.jpg,696,1,2023-05-23_22h13.56.572,Occlusion_Psychophysics,2022.1.4,Win32,59.76571838,,,right,"[""right""]",[0.6427000000030603],False,,0.0,0.0,64.0,64.0,64.0,1.0,,,,,,
,,,,,,,,,,,,,,,,,,,,,0.05,,,,,,,,,,Stimuli/psy_fixed_rotation_30_objects_occ0.7_0.9s/images/train/n02818832_9/n02883344_15/img_bed01_blue_microwave_box_2007_gray.jpg,n02818832_9,n02883344_15,fixed,0.820587,n02818832_0,Stimuli/psy_fixed_rotation_30_objects_occ0.7_0.9s/images/train/n04379243_-7/n02818832_0/img_quatre_dining_table_b03_the_sofa_and_chair_company_-_stanley_bed_2014_2013-3_gray.png,random,fixed,n02818832_9,n02828884_4,Stimuli/canonical view 2/img_n02818832_9_gray.jpg,Stimuli/canonical view 2/img_n02828884_4_gray.jpg,random,right,Experiments/experiment_7/260.jpg,Experiments/experiment_7/261.jpg,Experiments/experiment_7/262.jpg,Experiments/experiment_7/263.jpg,696,1,2023-05-23_22h13.56.572,Occlusion_Psychophysics,2022.1.4,Win32,59.76571838,,,right,"[""right""]",[0.8114000000059605],False,,0.0,0.0,65.0,65.0,65.0,1.0,,,,,,
,,,,,,,,,,,,,,,,,,,,,0.05,,,,,,,,,,Stimuli/psy_fixed_rotation_30_objects_occ0.7_0.9s/images/train/n04405907_8/n02933112_-2/img_stylized_tv_sink_base_white_wood_2004_gray.jpg,n04405907_8,n02933112_-2,fixed,0.796155,n02883344_15,Stimuli/psy_fixed_rotation_30_objects_occ0.7_0.9s/images/train/n02883344_0/n02883344_15/img_b03_box_microwave_box_2007-3_gray.png,random,fixed,n04405907_8,n02933112_-2,Stimuli/canonical view 2/img_n04405907_8_gray.jpg,Stimuli/canonical view 2/img_n02933112_-2_gray.jpg,foreground,left,Experiments/experiment_7/264.jpg,Experiments/experiment_7/265.jpg,Experiments/experiment_7/266.jpg,Experiments/experiment_7/267.jpg,696,1,2023-05-23_22h13.56.572,Occlusion_Psychophysics,2022.1.4,Win32,59.76571838,,,left,"[""left""]",[0.9446000000011736],False,,0.0,0.0,66.0,66.0,66.0,1.0,,,,,,
,,,,,,,,,,,,,,,,,,,,,0.025,,,,,,,,,,Stimuli/psy_flexible_rotation_30_objects_occ0.7_0.9s/images/train/n02818832_0/n04379243_-7/img_b03_the_sofa_and_chair_company_-_stanley_bed_2014_quatre_dining_table_2007_gray.jpg,n02818832_0,n04379243_-7,flexible,0.778767,n04256520_5,Stimuli/psy_flexible_rotation_30_objects_occ0.7_0.9s/images/train/n03928116_10/n04256520_5/img_ydp_103_r_2012__vray_meridiani_belmondo_bench_sofa_2004-3_gray.png,random,flexible,n02818832_0,n04379243_-7,Stimuli/canonical view 2/img_n02818832_0_gray.jpg,Stimuli/canonical view 2/img_n04379243_-7_gray.jpg,foreground,left,Experiments/experiment_7/268.jpg,Experiments/experiment_7/269.jpg,Experiments/experiment_7/270.jpg,Experiments/experiment_7/271.jpg,696,1,2023-05-23_22h13.56.572,Occlusion_Psychophysics,2022.1.4,Win32,59.76571838,,,right,"[""left""]",[1.230700000003253],False,,0.0,0.0,67.0,67.0,67.0,1.0,,,,,,
,,,,,,,,,,,,,,,,,,,,,0.05,,,,,,,,,,Stimuli/psy_fixed_rotation_30_objects_occ0.7_0.9s/images/train/n03928116_4/n02933112_-2/img_dp_33_b_2013__vray_sink_base_white_wood_2007_gray.jpg,n03928116_4,n02933112_-2,fixed,0.800335,n02933112_-2,Stimuli/psy_fixed_rotation_30_objects_occ0.7_0.9s/images/train/n03928116_4/n02933112_-2/img_dp_33_b_2013__vray_sink_base_white_wood_2007-3_gray.png,foreground,same as foreground,n03928116_4,n02933112_-2,Stimuli/canonical view 2/img_n03928116_4_gray.jpg,Stimuli/canonical view 2/img_n02933112_-2_gray.jpg,foreground,left,Experiments/experiment_7/272.jpg,Experiments/experiment_7/273.jpg,Experiments/experiment_7/274.jpg,Experiments/experiment_7/275.jpg,696,1,2023-05-23_22h13.56.572,Occlusion_Psychophysics,2022.1.4,Win32,59.76571838,,,right,"[""right""]",[0.9445000000000618],False,,0.0,0.0,68.0,68.0,68.0,1.0,,,,,,
,,,,,,,,,,,,,,,,,,,,,0.025,,,,,,,,,,Stimuli/psy_flexible_rotation_30_objects_occ0.7_0.9s/images/train/n02818832_3/n02818832_0/img_b05_ccm_contemporary_bed_max2013_b03_the_sofa_and_chair_company_-_stanley_bed_2014_2005_gray.jpg,n02818832_3,n02818832_0,flexible,0.794671,n02818832_0,Stimuli/psy_flexible_rotation_30_objects_occ0.7_0.9s/images/train/n02818832_3/n02818832_0/img_b05_ccm_contemporary_bed_max2013_b03_the_sofa_and_chair_company_-_stanley_bed_2014_2005-3_gray.png,foreground,same as foreground,n02818832_3,n02818832_0,Stimuli/canonical view 2/img_n02818832_3_gray.jpg,Stimuli/canonical view 2/img_n02818832_0_gray.jpg,foreground,right,Experiments/experiment_7/276.jpg,Experiments/experiment_7/277.jpg,Experiments/experiment_7/278.jpg,Experiments/experiment_7/279.jpg,696,1,2023-05-23_22h13.56.572,Occlusion_Psychophysics,2022.1.4,Win32,59.76571838,,,left,"[""right""]",[1.0025000000000546],False,,0.0,0.0,69.0,69.0,69.0,1.0,,,,,,
,,,,,,,,,,,,,,,,,,,,,0.025,,,,,,,,,,Stimuli/psy_fixed_rotation_30_objects_occ0.7_0.9s/images/train/n04379243_0/n04256520_5/img_17th_c._monastery_dining_table_2010_meridiani_belmondo_bench_sofa_2001_gray.jpg,n04379243_0,n04256520_5,fixed,0.705358,n02828884_4,Stimuli/psy_fixed_rotation_30_objects_occ0.7_0.9s/images/train/n04379243_8/n02828884_4/img_glass_table_b05_c-5_classic_series_bench-2012_2006-3_gray.png,random,fixed,n04379243_0,n04256520_5,Stimuli/canonical view 2/img_n04379243_0_gray.jpg,Stimuli/canonical view 2/img_n04256520_5_gray.jpg,foreground,right,Experiments/experiment_7/280.jpg,Experiments/experiment_7/281.jpg,Experiments/experiment_7/282.jpg,Experiments/experiment_7/283.jpg,696,1,2023-05-23_22h13.56.572,Occlusion_Psychophysics,2022.1.4,Win32,59.76571838,,,right,"[""right""]",[0.7172000000032313],False,,0.0,0.0,70.0,70.0,70.0,1.0,,,,,,
,,,,,,,,,,,,,,,,,,,,,0.025,,,,,,,,,,Stimuli/psy_flexible_rotation_30_objects_occ0.7_0.9s/images/train/n03928116_0/n02933112_-2/img_b02_piano_sink_base_white_wood_2000_gray.jpg,n03928116_0,n02933112_-2,flexible,0.800841,n02933112_-2,Stimuli/psy_flexible_rotation_30_objects_occ0.7_0.9s/images/train/n03928116_0/n02933112_-2/img_b02_piano_sink_base_white_wood_2000-3_gray.png,foreground,same as foreground,n03928116_0,n04379243_0,Stimuli/canonical view 2/img_n03928116_0_gray.jpg,Stimuli/canonical view 2/img_n04379243_0_gray.jpg,random,right,Experiments/experiment_7/284.jpg,Experiments/experiment_7/285.jpg,Experiments/experiment_7/286.jpg,Experiments/experiment_7/287.jpg,696,1,2023-05-23_22h13.56.572,Occlusion_Psychophysics,2022.1.4,Win32,59.76571838,,,left,"[""right""]",[1.329299999997147],False,,0.0,0.0,71.0,71.0,71.0,1.0,,,,,,
,,,,,,,,,,,,,,,,,,,,,0.05,,,,,,,,,,Stimuli/psy_flexible_rotation_30_objects_occ0.7_0.9s/images/train/n02883344_15/n03928116_4/img_microwave_box_dp_33_b_2013__vray_2002_gray.jpg,n02883344_15,n03928116_4,flexible,0.752122,n03928116_4,Stimuli/psy_flexible_rotation_30_objects_occ0.7_0.9s/images/train/n02883344_15/n03928116_4/img_microwave_box_dp_33_b_2013__vray_2002-3_gray.png,foreground,same as foreground,n02883344_15,n02933112_4,Stimuli/canonical view 2/img_n02883344_15_gray.jpg,Stimuli/canonical view 2/img_n02933112_4_gray.jpg,random,right,Experiments/experiment_7/288.jpg,Experiments/experiment_7/289.jpg,Experiments/experiment_7/290.jpg,Experiments/experiment_7/291.jpg,696,1,2023-05-23_22h13.56.572,Occlusion_Psychophysics,2022.1.4,Win32,59.76571838,,,right,"[""left""]",[0.8177000000032422],False,,0.0,0.0,72.0,72.0,72.0,1.0,,,,,,
,,,,,,,,,,,,,,,,,,,,,0.05,,,,,,,,,,Stimuli/psy_fixed_rotation_30_objects_occ0.7_0.9s/images/train/n02933112_4/n02828884_3/img_buffet_b04_wood_metal_park_bench_2013_gray.jpg,n02933112_4,n02828884_3,fixed,0.725734,n02828884_3,Stimuli/psy_fixed_rotation_30_objects_occ0.7_0.9s/images/train/n02933112_4/n02828884_3/img_buffet_b04_wood_metal_park_bench_2013-3_gray.png,foreground,same as foreground,n02933112_4,n04405907_8,Stimuli/canonical view 2/img_n02933112_4_gray.jpg,Stimuli/canonical view 2/img_n04405907_8_gray.jpg,random,left,Experiments/experiment_7/292.jpg,Experiments/experiment_7/293.jpg,Experiments/experiment_7/294.jpg,Experiments/experiment_7/295.jpg,696,1,2023-05-23_22h13.56.572,Occlusion_Psychophysics,2022.1.4,Win32,59.76571838,,,left,"[""right""]",[0.658699999995406],False,,0.0,0.0,73.0,73.0,73.0,1.0,,,,,,
,,,,,,,,,,,,,,,,,,,,,0.05,,,,,,,,,,Stimuli/psy_flexible_rotation_30_objects_occ0.7_0.9s/images/train/n04379243_-7/n04256520_9/img_quatre_dining_table_napoleon_iii_sofa_2008_gray.jpg,n04379243_-7,n04256520_9,flexible,0.735449,n04256520_9,Stimuli/psy_flexible_rotation_30_objects_occ0.7_0.9s/images/train/n04379243_-7/n04256520_9/img_quatre_dining_table_napoleon_iii_sofa_2008-3_gray.png,foreground,same as foreground,n04379243_-7,n04256520_4,Stimuli/canonical view 2/img_n04379243_-7_gray.jpg,Stimuli/canonical view 2/img_n04256520_4_gray.jpg,random,right,Experiments/experiment_7/296.jpg,Experiments/experiment_7/297.jpg,Experiments/experiment_7/298.jpg,Experiments/experiment_7/299.jpg,696,1,2023-05-23_22h13.56.572,Occlusion_Psychophysics,2022.1.4,Win32,59.76571838,,,left,"[""left""]",[0.9259999999999309],False,,0.0,0.0,74.0,74.0,74.0,1.0,,,,,,
,,,,,,,,,,,,,,,,,,,,,0.025,,,,,,,,,,Stimuli/psy_fixed_rotation_30_objects_occ0.7_0.9s/images/train/n04256520_4/n04405907_5/img_club_house_italia_nautilus_sofa_samsung_40_uhd_smart_tv_2011_2006_gray.jpg,n04256520_4,n04405907_5,fixed,0.752104,n04405907_5,Stimuli/psy_fixed_rotation_30_objects_occ0.7_0.9s/images/train/n04256520_4/n04405907_5/img_club_house_italia_nautilus_sofa_samsung_40_uhd_smart_tv_2011_2006-3_gray.png,foreground,same as foreground,n04256520_4,n04405907_5,Stimuli/canonical view 2/img_n04256520_4_gray.jpg,Stimuli/canonical view 2/img_n04405907_5_gray.jpg,foreground,left,Experiments/experiment_7/300.jpg,Experiments/experiment_7/301.jpg,Experiments/experiment_7/302.jpg,Experiments/experiment_7/303.jpg,696,1,2023-05-23_22h13.56.572,Occlusion_Psychophysics,2022.1.4,Win32,59.76571838,,,left,"[""left""]",[0.7791000000015629],True,right,1.0,0.0,75.0,75.0,75.0,1.0,1.2241,,,,,
,,,,,,,,,,,,,,,,,,,,,0.05,,,,,,,,,,Stimuli/psy_flexible_rotation_30_objects_occ0.7_0.9s/images/train/n02818832_0/n02818832_3/img_b03_the_sofa_and_chair_company_-_stanley_bed_2014_b05_ccm_contemporary_bed_max2013_2004_gray.jpg,n02818832_0,n02818832_3,flexible,0.758271,n02818832_3,Stimuli/psy_flexible_rotation_30_objects_occ0.7_0.9s/images/train/n02818832_0/n02818832_3/img_b03_the_sofa_and_chair_company_-_stanley_bed_2014_b05_ccm_contemporary_bed_max2013_2004-3_gray.png,foreground,same as foreground,n02818832_0,n04256520_4,Stimuli/canonical view 2/img_n02818832_0_gray.jpg,Stimuli/canonical view 2/img_n04256520_4_gray.jpg,random,right,Experiments/experiment_7/304.jpg,Experiments/experiment_7/305.jpg,Experiments/experiment_7/306.jpg,Experiments/experiment_7/307.jpg,696,1,2023-05-23_22h13.56.572,Occlusion_Psychophysics,2022.1.4,Win32,59.76571838,,,left,"[""right""]",[0.8522000000029948],False,,0.0,0.0,76.0,76.0,76.0,1.0,,,,,,
,,,,,,,,,,,,,,,,,,,,,0.025,,,,,,,,,,Stimuli/psy_flexible_rotation_30_objects_occ0.7_0.9s/images/train/n03001627_8/n03001627_-2/img_chair_billiani_doll_wood_chair_2012_gray.jpg,n03001627_8,n03001627_-2,flexible,0.788718,n04405907_5,Stimuli/psy_flexible_rotation_30_objects_occ0.7_0.9s/images/train/n02818832_0/n04405907_5/img_b03_the_sofa_and_chair_company_-_stanley_bed_2014_samsung_40_uhd_smart_tv_2011_2003-3_gray.png,random,flexible,n03001627_8,n04379243_8,Stimuli/canonical view 2/img_n03001627_8_gray.jpg,Stimuli/canonical view 2/img_n04379243_8_gray.jpg,random,right,Experiments/experiment_7/308.jpg,Experiments/experiment_7/309.jpg,Experiments/experiment_7/310.jpg,Experiments/experiment_7/311.jpg,696,1,2023-05-23_22h13.56.572,Occlusion_Psychophysics,2022.1.4,Win32,59.76571838,,,right,"[""right""]",[0.9373000000045977],False,,0.0,0.0,77.0,77.0,77.0,1.0,,,,,,
,,,,,,,,,,,,,,,,,,,,,0.025,,,,,,,,,,Stimuli/psy_flexible_rotation_30_objects_occ0.7_0.9s/images/train/n04379243_-7/n04405907_5/img_quatre_dining_table_samsung_40_uhd_smart_tv_2011_2003_gray.jpg,n04379243_-7,n04405907_5,flexible,0.827059,n02883344_0,Stimuli/psy_fixed_rotation_30_objects_occ0.7_0.9s/images/train/n04379243_8/n02883344_0/img_glass_table_b03_box_2014-3_gray.png,random,fixed,n04379243_-7,n04405907_5,Stimuli/canonical view 2/img_n04379243_-7_gray.jpg,Stimuli/canonical view 2/img_n04405907_5_gray.jpg,foreground,right,Experiments/experiment_7/312.jpg,Experiments/experiment_7/313.jpg,Experiments/experiment_7/314.jpg,Experiments/experiment_7/315.jpg,696,1,2023-05-23_22h13.56.572,Occlusion_Psychophysics,2022.1.4,Win32,59.76571838,,,right,"[""right""]",[1.0248000000042339],False,,0.0,0.0,78.0,78.0,78.0,1.0,,,,,,
,,,,,,,,,,,,,,,,,,,,,0.05,,,,,,,,,,Stimuli/psy_fixed_rotation_30_objects_occ0.7_0.9s/images/train/n04379243_0/n02933112_-18/img_17th_c._monastery_dining_table_2010_cgaxis_models_48_26_vray_composite_2015_gray.jpg,n04379243_0,n02933112_-18,fixed,0.844928,n04405907_9,Stimuli/psy_flexible_rotation_30_objects_occ0.7_0.9s/images/train/n04256520_9/n04405907_9/img_napoleon_iii_sofa_vray_004_2011-3_gray.png,random,flexible,n04379243_0,n02933112_-18,Stimuli/canonical view 2/img_n04379243_0_gray.jpg,Stimuli/canonical view 2/img_n02933112_-18_gray.jpg,foreground,left,Experiments/experiment_7/316.jpg,Experiments/experiment_7/317.jpg,Experiments/experiment_7/318.jpg,Experiments/experiment_7/319.jpg,696,1,2023-05-23_22h13.56.572,Occlusion_Psychophysics,2022.1.4,Win32,59.76571838,,,right,"[""right""]",[0.8026999999956388],False,,0.0,0.0,79.0,79.0,79.0,1.0,,,,,,
,,,,,,,,,,,,,,,,,,,,,0.025,,,,,,,,,,Stimuli/psy_flexible_rotation_30_objects_occ0.7_0.9s/images/train/n02828884_9/n02933112_-18/img_cr-96_bench_cgaxis_models_48_26_vray_composite_2007_gray.jpg,n02828884_9,n02933112_-18,flexible,0.768106,n02933112_-18,Stimuli/psy_flexible_rotation_30_objects_occ0.7_0.9s/images/train/n02828884_9/n02933112_-18/img_cr-96_bench_cgaxis_models_48_26_vray_composite_2007-3_gray.png,foreground,same as foreground,n02828884_9,n03928116_4,Stimuli/canonical view 2/img_n02828884_9_gray.jpg,Stimuli/canonical view 2/img_n03928116_4_gray.jpg,random,right,Experiments/experiment_7/320.jpg,Experiments/experiment_7/321.jpg,Experiments/experiment_7/322.jpg,Experiments/experiment_7/323.jpg,696,1,2023-05-23_22h13.56.572,Occlusion_Psychophysics,2022.1.4,Win32,59.76571838,,,left,"[""left""]",[0.8896000000017921],False,,0.0,0.0,80.0,80.0,80.0,1.0,,,,,,
,,,,,,,,,,,,,,,,,,,,,0.05,,,,,,,,,,Stimuli/psy_fixed_rotation_30_objects_occ0.7_0.9s/images/train/n04405907_8/n02818832_9/img_stylized_tv_bed01_blue_2013_gray.jpg,n04405907_8,n02818832_9,fixed,0.76623,n02818832_9,Stimuli/psy_fixed_rotation_30_objects_occ0.7_0.9s/images/train/n04405907_8/n02818832_9/img_stylized_tv_bed01_blue_2013-3_gray.png,foreground,same as foreground,n04405907_8,n02883344_15,Stimuli/canonical view 2/img_n04405907_8_gray.jpg,Stimuli/canonical view 2/img_n02883344_15_gray.jpg,random,left,Experiments/experiment_7/324.jpg,Experiments/experiment_7/325.jpg,Experiments/experiment_7/326.jpg,Experiments/experiment_7/327.jpg,696,1,2023-05-23_22h13.56.572,Occlusion_Psychophysics,2022.1.4,Win32,59.76571838,,,left,"[""right""]",[1.1662000000028456],False,,0.0,0.0,81.0,81.0,81.0,1.0,,,,,,
,,,,,,,,,,,,,,,,,,,,,0.05,,,,,,,,,,Stimuli/psy_fixed_rotation_30_objects_occ0.7_0.9s/images/train/n02933112_-2/n04379243_0/img_sink_base_white_wood_17th_c._monastery_dining_table_2010_2013_gray.jpg,n02933112_-2,n04379243_0,fixed,0.757685,n04379243_0,Stimuli/psy_fixed_rotation_30_objects_occ0.7_0.9s/images/train/n02933112_-2/n04379243_0/img_sink_base_white_wood_17th_c._monastery_dining_table_2010_2013-3_gray.png,foreground,same as foreground,n02933112_-2,n03001627_-2,Stimuli/canonical view 2/img_n02933112_-2_gray.jpg,Stimuli/canonical view 2/img_n03001627_-2_gray.jpg,random,left,Experiments/experiment_7/328.jpg,Experiments/experiment_7/329.jpg,Experiments/experiment_7/330.jpg,Experiments/experiment_7/331.jpg,696,1,2023-05-23_22h13.56.572,Occlusion_Psychophysics,2022.1.4,Win32,59.76571838,,,right,"[""right""]",[0.9397999999969215],True,left,1.0,0.0,82.0,82.0,82.0,1.0,1.292,,,,,
,,,,,,,,,,,,,,,,,,,,,0.025,,,,,,,,,,Stimuli/psy_flexible_rotation_30_objects_occ0.7_0.9s/images/train/n04379243_-7/n02933112_-2/img_quatre_dining_table_sink_base_white_wood_2015_gray.jpg,n04379243_-7,n02933112_-2,flexible,0.725806,n02933112_-2,Stimuli/psy_flexible_rotation_30_objects_occ0.7_0.9s/images/train/n04379243_-7/n02933112_-2/img_quatre_dining_table_sink_base_white_wood_2015-3_gray.png,foreground,same as foreground,n04379243_-7,n02933112_4,Stimuli/canonical view 2/img_n04379243_-7_gray.jpg,Stimuli/canonical view 2/img_n02933112_4_gray.jpg,random,right,Experiments/experiment_7/332.jpg,Experiments/experiment_7/333.jpg,Experiments/experiment_7/334.jpg,Experiments/experiment_7/335.jpg,696,1,2023-05-23_22h13.56.572,Occlusion_Psychophysics,2022.1.4,Win32,59.76571838,,,right,"[""right""]",[0.8183999999982916],False,,0.0,0.0,83.0,83.0,83.0,1.0,,,,,,
,,,,,,,,,,,,,,,,,,,,,0.05,,,,,,,,,,Stimuli/psy_flexible_rotation_30_objects_occ0.7_0.9s/images/train/n02828884_4/n04379243_8/img_b05_c-5_classic_series_bench-2012_glass_table_2010_gray.jpg,n02828884_4,n04379243_8,flexible,0.755283,n04379243_8,Stimuli/psy_flexible_rotation_30_objects_occ0.7_0.9s/images/train/n02828884_4/n04379243_8/img_b05_c-5_classic_series_bench-2012_glass_table_2010-3_gray.png,foreground,same as foreground,n02828884_4,n03928116_10,Stimuli/canonical view 2/img_n02828884_4_gray.jpg,Stimuli/canonical view 2/img_n03928116_10_gray.jpg,random,left,Experiments/experiment_7/336.jpg,Experiments/experiment_7/337.jpg,Experiments/experiment_7/338.jpg,Experiments/experiment_7/339.jpg,696,1,2023-05-23_22h13.56.572,Occlusion_Psychophysics,2022.1.4,Win32,59.76571838,,,right,"[""right""]",[0.7539999999999054],False,,0.0,0.0,84.0,84.0,84.0,1.0,,,,,,
,,,,,,,,,,,,,,,,,,,,,0.05,,,,,,,,,,Stimuli/psy_fixed_rotation_30_objects_occ0.7_0.9s/images/train/n02883344_-1/n02883344_15/img_woven_box_microwave_box_2010_gray.jpg,n02883344_-1,n02883344_15,fixed,0.751916,n02883344_15,Stimuli/psy_fixed_rotation_30_objects_occ0.7_0.9s/images/train/n02883344_-1/n02883344_15/img_woven_box_microwave_box_2010-3_gray.png,foreground,same as foreground,n02883344_-1,n02883344_15,Stimuli/canonical view 2/img_n02883344_-1_gray.jpg,Stimuli/canonical view 2/img_n02883344_15_gray.jpg,foreground,right,Experiments/experiment_7/340.jpg,Experiments/experiment_7/341.jpg,Experiments/experiment_7/342.jpg,Experiments/experiment_7/343.jpg,696,1,2023-05-23_22h13.56.572,Occlusion_Psychophysics,2022.1.4,Win32,59.76571838,,,right,"[""right""]",[0.7240999999939959],False,,0.0,0.0,85.0,85.0,85.0,1.0,,,,,,
,,,,,,,,,,,,,,,,,,,,,0.05,,,,,,,,,,Stimuli/psy_fixed_rotation_30_objects_occ0.7_0.9s/images/train/n04405907_5/n03928116_0/img_samsung_40_uhd_smart_tv_2011_b02_piano_2014_gray.jpg,n04405907_5,n03928116_0,fixed,0.721297,n03928116_0,Stimuli/psy_fixed_rotation_30_objects_occ0.7_0.9s/images/train/n04405907_5/n03928116_0/img_samsung_40_uhd_smart_tv_2011_b02_piano_2014-3_gray.png,foreground,same as foreground,n04405907_5,n04379243_-7,Stimuli/canonical view 2/img_n04405907_5_gray.jpg,Stimuli/canonical view 2/img_n04379243_-7_gray.jpg,random,right,Experiments/experiment_7/344.jpg,Experiments/experiment_7/345.jpg,Experiments/experiment_7/346.jpg,Experiments/experiment_7/347.jpg,696,1,2023-05-23_22h13.56.572,Occlusion_Psychophysics,2022.1.4,Win32,59.76571838,,,right,"[""left""]",[0.7343000000041684],False,,0.0,0.0,86.0,86.0,86.0,1.0,,,,,,
,,,,,,,,,,,,,,,,,,,,,0.05,,,,,,,,,,Stimuli/psy_fixed_rotation_30_objects_occ0.7_0.9s/images/train/n03001627_-2/n04405907_8/img_wood_chair_stylized_tv_2000_gray.jpg,n03001627_-2,n04405907_8,fixed,0.841176,n02828884_3,Stimuli/psy_fixed_rotation_30_objects_occ0.7_0.9s/images/train/n02828884_4/n02828884_3/img_b05_c-5_classic_series_bench-2012_b04_wood_metal_park_bench_2000-3_gray.png,random,fixed,n03001627_-2,n04405907_8,Stimuli/canonical view 2/img_n03001627_-2_gray.jpg,Stimuli/canonical view 2/img_n04405907_8_gray.jpg,foreground,right,Experiments/experiment_7/348.jpg,Experiments/experiment_7/349.jpg,Experiments/experiment_7/350.jpg,Experiments/experiment_7/351.jpg,696,1,2023-05-23_22h13.56.572,Occlusion_Psychophysics,2022.1.4,Win32,59.76571838,,,right,"[""right""]",[0.7441000000017084],False,,0.0,0.0,87.0,87.0,87.0,1.0,,,,,,
,,,,,,,,,,,,,,,,,,,,,0.05,,,,,,,,,,Stimuli/psy_fixed_rotation_30_objects_occ0.7_0.9s/images/train/n02883344_-1/n04379243_0/img_woven_box_17th_c._monastery_dining_table_2010_2013_gray.jpg,n02883344_-1,n04379243_0,fixed,0.70304,n02883344_15,Stimuli/psy_fixed_rotation_30_objects_occ0.7_0.9s/images/train/n02828884_4/n02883344_15/img_b05_c-5_classic_series_bench-2012_microwave_box_2012-3_gray.png,random,fixed,n02883344_-1,n04379243_0,Stimuli/canonical view 2/img_n02883344_-1_gray.jpg,Stimuli/canonical view 2/img_n04379243_0_gray.jpg,foreground,right,Experiments/experiment_7/352.jpg,Experiments/experiment_7/353.jpg,Experiments/experiment_7/354.jpg,Experiments/experiment_7/355.jpg,696,1,2023-05-23_22h13.56.572,Occlusion_Psychophysics,2022.1.4,Win32,59.76571838,,,left,"[""right""]",[0.877400000005764],False,,0.0,0.0,88.0,88.0,88.0,1.0,,,,,,
,,,,,,,,,,,,,,,,,,,,,0.05,,,,,,,,,,Stimuli/psy_fixed_rotation_30_objects_occ0.7_0.9s/images/train/n03928116_4/n04379243_-7/img_dp_33_b_2013__vray_quatre_dining_table_2010_gray.jpg,n03928116_4,n04379243_-7,fixed,0.757836,n02933112_4,Stimuli/psy_fixed_rotation_30_objects_occ0.7_0.9s/images/train/n02818832_0/n02933112_4/img_b03_the_sofa_and_chair_company_-_stanley_bed_2014_buffet_2005-3_gray.png,random,fixed,n03928116_4,n04256520_9,Stimuli/canonical view 2/img_n03928116_4_gray.jpg,Stimuli/canonical view 2/img_n04256520_9_gray.jpg,random,left,Experiments/experiment_7/356.jpg,Experiments/experiment_7/357.jpg,Experiments/experiment_7/358.jpg,Experiments/experiment_7/359.jpg,696,1,2023-05-23_22h13.56.572,Occlusion_Psychophysics,2022.1.4,Win32,59.76571838,,,left,"[""right""]",[0.974799999996776],False,,0.0,0.0,89.0,89.0,89.0,1.0,,,,,,
,,,,,,,,,,,,,,,,,,,,,0.05,,,,,,,,,,Stimuli/psy_flexible_rotation_30_objects_occ0.7_0.9s/images/train/n02828884_4/n02828884_3/img_b05_c-5_classic_series_bench-2012_b04_wood_metal_park_bench_2008_gray.jpg,n02828884_4,n02828884_3,flexible,0.741737,n04405907_5,Stimuli/psy_fixed_rotation_30_objects_occ0.7_0.9s/images/train/n02828884_3/n04405907_5/img_b04_wood_metal_park_bench_samsung_40_uhd_smart_tv_2011_2003-3_gray.png,random,fixed,n02828884_4,n02828884_3,Stimuli/canonical view 2/img_n02828884_4_gray.jpg,Stimuli/canonical view 2/img_n02828884_3_gray.jpg,foreground,right,Experiments/experiment_7/360.jpg,Experiments/experiment_7/361.jpg,Experiments/experiment_7/362.jpg,Experiments/experiment_7/363.jpg,696,1,2023-05-23_22h13.56.572,Occlusion_Psychophysics,2022.1.4,Win32,59.76571838,,,right,"[""right""]",[0.954799999997249],False,,0.0,0.0,90.0,90.0,90.0,1.0,,,,,,
,,,,,,,,,,,,,,,,,,,,,0.025,,,,,,,,,,Stimuli/psy_fixed_rotation_30_objects_occ0.7_0.9s/images/train/n04405907_8/n04379243_0/img_stylized_tv_17th_c._monastery_dining_table_2010_2012_gray.jpg,n04405907_8,n04379243_0,fixed,0.727298,n04379243_0,Stimuli/psy_fixed_rotation_30_objects_occ0.7_0.9s/images/train/n04405907_8/n04379243_0/img_stylized_tv_17th_c._monastery_dining_table_2010_2012-3_gray.png,foreground,same as foreground,n04405907_8,n04379243_0,Stimuli/canonical view 2/img_n04405907_8_gray.jpg,Stimuli/canonical view 2/img_n04379243_0_gray.jpg,foreground,left,Experiments/experiment_7/364.jpg,Experiments/experiment_7/365.jpg,Experiments/experiment_7/366.jpg,Experiments/experiment_7/367.jpg,696,1,2023-05-23_22h13.56.572,Occlusion_Psychophysics,2022.1.4,Win32,59.76571838,,,right,"[""right""]",[0.7140999999942323],True,right,1.0,0.0,91.0,91.0,91.0,1.0,1.9245,,,,,
,,,,,,,,,,,,,,,,,,,,,0.025,,,,,,,,,,Stimuli/psy_flexible_rotation_30_objects_occ0.7_0.9s/images/train/n03928116_0/n04256520_4/img_b02_piano_club_house_italia_nautilus_sofa_2002_gray.jpg,n03928116_0,n04256520_4,flexible,0.726218,n03928116_10,Stimuli/psy_fixed_rotation_30_objects_occ0.7_0.9s/images/train/n04405907_8/n03928116_10/img_stylized_tv_ydp_103_r_2012__vray_2012-3_gray.png,random,fixed,n03928116_0,n02883344_0,Stimuli/canonical view 2/img_n03928116_0_gray.jpg,Stimuli/canonical view 2/img_n02883344_0_gray.jpg,random,left,Experiments/experiment_7/368.jpg,Experiments/experiment_7/369.jpg,Experiments/experiment_7/370.jpg,Experiments/experiment_7/371.jpg,696,1,2023-05-23_22h13.56.572,Occlusion_Psychophysics,2022.1.4,Win32,59.76571838,,,right,"[""right""]",[0.7352999999970962],False,,0.0,0.0,92.0,92.0,92.0,1.0,,,,,,
,,,,,,,,,,,,,,,,,,,,,0.025,,,,,,,,,,Stimuli/psy_fixed_rotation_30_objects_occ0.7_0.9s/images/train/n03928116_10/n03928116_0/img_ydp_103_r_2012__vray_b02_piano_2010_gray.jpg,n03928116_10,n03928116_0,fixed,0.736691,n03928116_0,Stimuli/psy_fixed_rotation_30_objects_occ0.7_0.9s/images/train/n03928116_10/n03928116_0/img_ydp_103_r_2012__vray_b02_piano_2010-3_gray.png,foreground,same as foreground,n03928116_10,n02828884_9,Stimuli/canonical view 2/img_n03928116_10_gray.jpg,Stimuli/canonical view 2/img_n02828884_9_gray.jpg,random,left,Experiments/experiment_7/372.jpg,Experiments/experiment_7/373.jpg,Experiments/experiment_7/374.jpg,Experiments/experiment_7/375.jpg,696,1,2023-05-23_22h13.56.572,Occlusion_Psychophysics,2022.1.4,Win32,59.76571838,,,left,"[""right""]",[1.0779999999999745],False,,0.0,0.0,93.0,93.0,93.0,1.0,,,,,,
,,,,,,,,,,,,,,,,,,,,,0.025,,,,,,,,,,Stimuli/psy_flexible_rotation_30_objects_occ0.7_0.9s/images/train/n02933112_-18/n04405907_5/img_cgaxis_models_48_26_vray_composite_samsung_40_uhd_smart_tv_2011_2015_gray.jpg,n02933112_-18,n04405907_5,flexible,0.716528,n04405907_5,Stimuli/psy_flexible_rotation_30_objects_occ0.7_0.9s/images/train/n02933112_-18/n04405907_5/img_cgaxis_models_48_26_vray_composite_samsung_40_uhd_smart_tv_2011_2015-3_gray.png,foreground,same as foreground,n02933112_-18,n04405907_5,Stimuli/canonical view 2/img_n02933112_-18_gray.jpg,Stimuli/canonical view 2/img_n04405907_5_gray.jpg,foreground,left,Experiments/experiment_7/376.jpg,Experiments/experiment_7/377.jpg,Experiments/experiment_7/378.jpg,Experiments/experiment_7/379.jpg,696,1,2023-05-23_22h13.56.572,Occlusion_Psychophysics,2022.1.4,Win32,59.76571838,,,left,"[""left""]",[0.6149999999997817],False,,0.0,0.0,94.0,94.0,94.0,1.0,,,,,,
,,,,,,,,,,,,,,,,,,,,,0.025,,,,,,,,,,Stimuli/psy_fixed_rotation_30_objects_occ0.7_0.9s/images/train/n02828884_9/n04256520_4/img_cr-96_bench_club_house_italia_nautilus_sofa_2015_gray.jpg,n02828884_9,n04256520_4,fixed,0.742055,n04256520_4,Stimuli/psy_fixed_rotation_30_objects_occ0.7_0.9s/images/train/n02828884_9/n04256520_4/img_cr-96_bench_club_house_italia_nautilus_sofa_2015-3_gray.png,foreground,same as foreground,n02828884_9,n03001627_8,Stimuli/canonical view 2/img_n02828884_9_gray.jpg,Stimuli/canonical view 2/img_n03001627_8_gray.jpg,random,left,Experiments/experiment_7/380.jpg,Experiments/experiment_7/381.jpg,Experiments/experiment_7/382.jpg,Experiments/experiment_7/383.jpg,696,1,2023-05-23_22h13.56.572,Occlusion_Psychophysics,2022.1.4,Win32,59.76571838,,,right,"[""right""]",[1.019700000003013],False,,0.0,0.0,95.0,95.0,95.0,1.0,,,,,,
,,,,,,,,,,,,,,,,,,,,,0.05,,,,,,,,,,Stimuli/psy_flexible_rotation_30_objects_occ0.7_0.9s/images/train/n02818832_9/n02933112_-2/img_bed01_blue_sink_base_white_wood_2002_gray.jpg,n02818832_9,n02933112_-2,flexible,0.756002,n02933112_-2,Stimuli/psy_flexible_rotation_30_objects_occ0.7_0.9s/images/train/n02818832_9/n02933112_-2/img_bed01_blue_sink_base_white_wood_2002-3_gray.png,foreground,same as foreground,n02818832_9,n02933112_-2,Stimuli/canonical view 2/img_n02818832_9_gray.jpg,Stimuli/canonical view 2/img_n02933112_-2_gray.jpg,foreground,left,Experiments/experiment_7/384.jpg,Experiments/experiment_7/385.jpg,Experiments/experiment_7/386.jpg,Experiments/experiment_7/387.jpg,696,1,2023-05-23_22h13.56.572,Occlusion_Psychophysics,2022.1.4,Win32,59.76571838,,,left,"[""left""]",[0.6343000000042593],False,,0.0,0.0,96.0,96.0,96.0,1.0,,,,,,
,,,,,,,,,,,,,,,,,,,,,0.05,,,,,,,,,,Stimuli/psy_flexible_rotation_30_objects_occ0.7_0.9s/images/train/n04256520_9/n04405907_5/img_napoleon_iii_sofa_samsung_40_uhd_smart_tv_2011_2006_gray.jpg,n04256520_9,n04405907_5,flexible,0.834423,n04405907_5,Stimuli/psy_flexible_rotation_30_objects_occ0.7_0.9s/images/train/n04256520_9/n04405907_5/img_napoleon_iii_sofa_samsung_40_uhd_smart_tv_2011_2006-3_gray.png,foreground,same as foreground,n04256520_9,n04405907_5,Stimuli/canonical view 2/img_n04256520_9_gray.jpg,Stimuli/canonical view 2/img_n04405907_5_gray.jpg,foreground,left,Experiments/experiment_7/388.jpg,Experiments/experiment_7/389.jpg,Experiments/experiment_7/390.jpg,Experiments/experiment_7/391.jpg,696,1,2023-05-23_22h13.56.572,Occlusion_Psychophysics,2022.1.4,Win32,59.76571838,,,right,"[""right""]",[0.9229000000059386],False,,0.0,0.0,97.0,97.0,97.0,1.0,,,,,,
,,,,,,,,,,,,,,,,,,,,,0.05,,,,,,,,,,Stimuli/psy_fixed_rotation_30_objects_occ0.7_0.9s/images/train/n03928116_4/n02933112_-2/img_dp_33_b_2013__vray_sink_base_white_wood_2004_gray.jpg,n03928116_4,n02933112_-2,fixed,0.753278,n03001627_9,Stimuli/psy_flexible_rotation_30_objects_occ0.7_0.9s/images/train/n03928116_0/n03001627_9/img_b02_piano_chair_eames_plastic_armchair_2001-3_gray.png,random,flexible,n03928116_4,n02933112_-2,Stimuli/canonical view 2/img_n03928116_4_gray.jpg,Stimuli/canonical view 2/img_n02933112_-2_gray.jpg,foreground,right,Experiments/experiment_7/392.jpg,Experiments/experiment_7/393.jpg,Experiments/experiment_7/394.jpg,Experiments/experiment_7/395.jpg,696,1,2023-05-23_22h13.56.572,Occlusion_Psychophysics,2022.1.4,Win32,59.76571838,,,right,"[""left""]",[1.1832999999969616],False,,0.0,0.0,98.0,98.0,98.0,1.0,,,,,,
,,,,,,,,,,,,,,,,,,,,,0.05,,,,,,,,,,Stimuli/psy_fixed_rotation_30_objects_occ0.7_0.9s/images/train/n02818832_9/n02883344_-1/img_bed01_blue_woven_box_2012_gray.jpg,n02818832_9,n02883344_-1,fixed,0.772183,n03928116_10,Stimuli/psy_fixed_rotation_30_objects_occ0.7_0.9s/images/train/n03001627_9/n03928116_10/img_chair_eames_plastic_armchair_ydp_103_r_2012__vray_2007-3_gray.png,random,fixed,n02818832_9,n02883344_-1,Stimuli/canonical view 2/img_n02818832_9_gray.jpg,Stimuli/canonical view 2/img_n02883344_-1_gray.jpg,foreground,right,Experiments/experiment_7/396.jpg,Experiments/experiment_7/397.jpg,Experiments/experiment_7/398.jpg,Experiments/experiment_7/399.jpg,696,1,2023-05-23_22h13.56.572,Occlusion_Psychophysics,2022.1.4,Win32,59.76571838,,,right,"[""right""]",[0.7534999999998035],False,,0.0,0.0,99.0,99.0,99.0,1.0,,,,,,
,,,,,,,,,,,,,,,,,,,,,,,,,,,,,,,,,,,,,,,,,,,,,,,,,,696,1,2023-05-23_22h13.56.572,Occlusion_Psychophysics,2022.1.4,Win32,59.76571838,,,,,,,,,,,,,,,0.0,0.0,0.0,0.0,1.0
,,,,,,,,,,,,,,,,,,,,,0.025,,,,,,,,,,Stimuli/psy_flexible_rotation_30_objects_occ0.7_0.9s/images/train/n04256520_9/n04405907_9/img_napoleon_iii_sofa_vray_004_2008_gray.jpg,n04256520_9,n04405907_9,flexible,0.710712,n04405907_9,Stimuli/psy_flexible_rotation_30_objects_occ0.7_0.9s/images/train/n04256520_9/n04405907_9/img_napoleon_iii_sofa_vray_004_2008-3_gray.png,foreground,same as foreground,n04256520_9,n03001627_8,Stimuli/canonical view 2/img_n04256520_9_gray.jpg,Stimuli/canonical view 2/img_n03001627_8_gray.jpg,random,right,Experiments/experiment_7/400.jpg,Experiments/experiment_7/401.jpg,Experiments/experiment_7/402.jpg,Experiments/experiment_7/403.jpg,696,1,2023-05-23_22h13.56.572,Occlusion_Psychophysics,2022.1.4,Win32,59.76571838,,,right,"[""right""]",[0.7042999999966923],False,,0.0,0.0,0.0,0.0,0.0,1.0,,,,,,
,,,,,,,,,,,,,,,,,,,,,0.05,,,,,,,,,,Stimuli/psy_flexible_rotation_30_objects_occ0.7_0.9s/images/train/n02883344_-1/n03928116_4/img_woven_box_dp_33_b_2013__vray_2008_gray.jpg,n02883344_-1,n03928116_4,flexible,0.721351,n03928116_4,Stimuli/psy_flexible_rotation_30_objects_occ0.7_0.9s/images/train/n02883344_-1/n03928116_4/img_woven_box_dp_33_b_2013__vray_2008-3_gray.png,foreground,same as foreground,n02883344_-1,n03928116_4,Stimuli/canonical view 2/img_n02883344_-1_gray.jpg,Stimuli/canonical view 2/img_n03928116_4_gray.jpg,foreground,left,Experiments/experiment_7/404.jpg,Experiments/experiment_7/405.jpg,Experiments/experiment_7/406.jpg,Experiments/experiment_7/407.jpg,696,1,2023-05-23_22h13.56.572,Occlusion_Psychophysics,2022.1.4,Win32,59.76571838,,,left,"[""left""]",[0.8977999999970052],False,,0.0,0.0,1.0,1.0,1.0,1.0,,,,,,
,,,,,,,,,,,,,,,,,,,,,0.025,,,,,,,,,,Stimuli/psy_fixed_rotation_30_objects_occ0.7_0.9s/images/train/n04405907_5/n02818832_0/img_samsung_40_uhd_smart_tv_2011_b03_the_sofa_and_chair_company_-_stanley_bed_2014_2014_gray.jpg,n04405907_5,n02818832_0,fixed,0.701734,n02818832_0,Stimuli/psy_fixed_rotation_30_objects_occ0.7_0.9s/images/train/n04405907_5/n02818832_0/img_samsung_40_uhd_smart_tv_2011_b03_the_sofa_and_chair_company_-_stanley_bed_2014_2014-3_gray.png,foreground,same as foreground,n04405907_5,n04379243_-7,Stimuli/canonical view 2/img_n04405907_5_gray.jpg,Stimuli/canonical view 2/img_n04379243_-7_gray.jpg,random,left,Experiments/experiment_7/408.jpg,Experiments/experiment_7/409.jpg,Experiments/experiment_7/410.jpg,Experiments/experiment_7/411.jpg,696,1,2023-05-23_22h13.56.572,Occlusion_Psychophysics,2022.1.4,Win32,59.76571838,,,right,"[""right""]",[0.7519999999999527],False,,0.0,0.0,2.0,2.0,2.0,1.0,,,,,,
,,,,,,,,,,,,,,,,,,,,,0.05,,,,,,,,,,Stimuli/psy_flexible_rotation_30_objects_occ0.7_0.9s/images/train/n04379243_0/n03928116_10/img_17th_c._monastery_dining_table_2010_ydp_103_r_2012__vray_2014_gray.jpg,n04379243_0,n03928116_10,flexible,0.77289,n03928116_10,Stimuli/psy_flexible_rotation_30_objects_occ0.7_0.9s/images/train/n04379243_0/n03928116_10/img_17th_c._monastery_dining_table_2010_ydp_103_r_2012__vray_2014-3_gray.png,foreground,same as foreground,n04379243_0,n02933112_-18,Stimuli/canonical view 2/img_n04379243_0_gray.jpg,Stimuli/canonical view 2/img_n02933112_-18_gray.jpg,random,left,Experiments/experiment_7/412.jpg,Experiments/experiment_7/413.jpg,Experiments/experiment_7/414.jpg,Experiments/experiment_7/415.jpg,696,1,2023-05-23_22h13.56.572,Occlusion_Psychophysics,2022.1.4,Win32,59.76571838,,,right,"[""right""]",[0.6008999999985463],False,,0.0,0.0,3.0,3.0,3.0,1.0,,,,,,
,,,,,,,,,,,,,,,,,,,,,0.025,,,,,,,,,,Stimuli/psy_flexible_rotation_30_objects_occ0.7_0.9s/images/train/n04405907_8/n04379243_-7/img_stylized_tv_quatre_dining_table_2000_gray.jpg,n04405907_8,n04379243_-7,flexible,0.701437,n04256520_4,Stimuli/psy_fixed_rotation_30_objects_occ0.7_0.9s/images/train/n04405907_5/n04256520_4/img_samsung_40_uhd_smart_tv_2011_club_house_italia_nautilus_sofa_2000-3_gray.png,random,fixed,n04405907_8,n04379243_-7,Stimuli/canonical view 2/img_n04405907_8_gray.jpg,Stimuli/canonical view 2/img_n04379243_-7_gray.jpg,foreground,right,Experiments/experiment_7/416.jpg,Experiments/experiment_7/417.jpg,Experiments/experiment_7/418.jpg,Experiments/experiment_7/419.jpg,696,1,2023-05-23_22h13.56.572,Occlusion_Psychophysics,2022.1.4,Win32,59.76571838,,,right,"[""right""]",[0.8433999999983826],False,,0.0,0.0,4.0,4.0,4.0,1.0,,,,,,
,,,,,,,,,,,,,,,,,,,,,0.05,,,,,,,,,,Stimuli/psy_flexible_rotation_30_objects_occ0.7_0.9s/images/train/n02883344_0/n02883344_15/img_b03_box_microwave_box_2014_gray.jpg,n02883344_0,n02883344_15,flexible,0.815387,n04379243_0,Stimuli/psy_fixed_rotation_30_objects_occ0.7_0.9s/images/train/n02818832_0/n04379243_0/img_b03_the_sofa_and_chair_company_-_stanley_bed_2014_17th_c._monastery_dining_table_2010_2015-3_gray.png,random,fixed,n02883344_0,n02883344_15,Stimuli/canonical view 2/img_n02883344_0_gray.jpg,Stimuli/canonical view 2/img_n02883344_15_gray.jpg,foreground,left,Experiments/experiment_7/420.jpg,Experiments/experiment_7/421.jpg,Experiments/experiment_7/422.jpg,Experiments/experiment_7/423.jpg,696,1,2023-05-23_22h13.56.572,Occlusion_Psychophysics,2022.1.4,Win32,59.76571838,,,left,"[""left""]",[1.1136999999953332],False,,0.0,0.0,5.0,5.0,5.0,1.0,,,,,,
,,,,,,,,,,,,,,,,,,,,,0.025,,,,,,,,,,Stimuli/psy_fixed_rotation_30_objects_occ0.7_0.9s/images/train/n02828884_3/n04405907_5/img_b04_wood_metal_park_bench_samsung_40_uhd_smart_tv_2011_2000_gray.jpg,n02828884_3,n04405907_5,fixed,0.719942,n04405907_5,Stimuli/psy_fixed_rotation_30_objects_occ0.7_0.9s/images/train/n02828884_3/n04405907_5/img_b04_wood_metal_park_bench_samsung_40_uhd_smart_tv_2011_2000-3_gray.png,foreground,same as foreground,n02828884_3,n04405907_5,Stimuli/canonical view 2/img_n02828884_3_gray.jpg,Stimuli/canonical view 2/img_n04405907_5_gray.jpg,foreground,right,Experiments/experiment_7/424.jpg,Experiments/experiment_7/425.jpg,Experiments/experiment_7/426.jpg,Experiments/experiment_7/427.jpg,696,1,2023-05-23_22h13.56.572,Occlusion_Psychophysics,2022.1.4,Win32,59.76571838,,,right,"[""right""]",[0.6811000000016065],False,,0.0,0.0,6.0,6.0,6.0,1.0,,,,,,
,,,,,,,,,,,,,,,,,,,,,0.025,,,,,,,,,,Stimuli/psy_flexible_rotation_30_objects_occ0.7_0.9s/images/train/n02883344_-1/n04256520_4/img_woven_box_club_house_italia_nautilus_sofa_2015_gray.jpg,n02883344_-1,n04256520_4,flexible,0.726564,n04256520_4,Stimuli/psy_flexible_rotation_30_objects_occ0.7_0.9s/images/train/n02883344_-1/n04256520_4/img_woven_box_club_house_italia_nautilus_sofa_2015-3_gray.png,foreground,same as foreground,n02883344_-1,n04405907_9,Stimuli/canonical view 2/img_n02883344_-1_gray.jpg,Stimuli/canonical view 2/img_n04405907_9_gray.jpg,random,right,Experiments/experiment_7/428.jpg,Experiments/experiment_7/429.jpg,Experiments/experiment_7/430.jpg,Experiments/experiment_7/431.jpg,696,1,2023-05-23_22h13.56.572,Occlusion_Psychophysics,2022.1.4,Win32,59.76571838,,,right,"[""right""]",[1.0858999999986736],False,,0.0,0.0,7.0,7.0,7.0,1.0,,,,,,
,,,,,,,,,,,,,,,,,,,,,0.05,,,,,,,,,,Stimuli/psy_fixed_rotation_30_objects_occ0.7_0.9s/images/train/n03928116_0/n04405907_8/img_b02_piano_stylized_tv_2012_gray.jpg,n03928116_0,n04405907_8,fixed,0.776366,n04405907_9,Stimuli/psy_flexible_rotation_30_objects_occ0.7_0.9s/images/train/n03928116_4/n04405907_9/img_dp_33_b_2013__vray_vray_004_2000-3_gray.png,random,flexible,n03928116_0,n04405907_8,Stimuli/canonical view 2/img_n03928116_0_gray.jpg,Stimuli/canonical view 2/img_n04405907_8_gray.jpg,foreground,right,Experiments/experiment_7/432.jpg,Experiments/experiment_7/433.jpg,Experiments/experiment_7/434.jpg,Experiments/experiment_7/435.jpg,696,1,2023-05-23_22h13.56.572,Occlusion_Psychophysics,2022.1.4,Win32,59.76571838,,,left,"[""left""]",[1.0397999999972853],False,,0.0,0.0,8.0,8.0,8.0,1.0,,,,,,
,,,,,,,,,,,,,,,,,,,,,0.025,,,,,,,,,,Stimuli/psy_flexible_rotation_30_objects_occ0.7_0.9s/images/train/n02828884_3/n02933112_-2/img_b04_wood_metal_park_bench_sink_base_white_wood_2009_gray.jpg,n02828884_3,n02933112_-2,flexible,0.780194,n02933112_-2,Stimuli/psy_flexible_rotation_30_objects_occ0.7_0.9s/images/train/n02828884_3/n02933112_-2/img_b04_wood_metal_park_bench_sink_base_white_wood_2009-3_gray.png,foreground,same as foreground,n02828884_3,n02828884_9,Stimuli/canonical view 2/img_n02828884_3_gray.jpg,Stimuli/canonical view 2/img_n02828884_9_gray.jpg,random,left,Experiments/experiment_7/436.jpg,Experiments/experiment_7/437.jpg,Experiments/experiment_7/438.jpg,Experiments/experiment_7/439.jpg,696,1,2023-05-23_22h13.56.572,Occlusion_Psychophysics,2022.1.4,Win32,59.76571838,,,right,"[""right""]",[0.6591999999955078],False,,0.0,0.0,9.0,9.0,9.0,1.0,,,,,,
,,,,,,,,,,,,,,,,,,,,,0.025,,,,,,,,,,Stimuli/psy_fixed_rotation_30_objects_occ0.7_0.9s/images/train/n02828884_4/n04379243_-7/img_b05_c-5_classic_series_bench-2012_quatre_dining_table_2005_gray.jpg,n02828884_4,n04379243_-7,fixed,0.787763,n02818832_9,Stimuli/psy_flexible_rotation_30_objects_occ0.7_0.9s/images/train/n04256520_4/n02818832_9/img_club_house_italia_nautilus_sofa_bed01_blue_2014-3_gray.png,random,flexible,n02828884_4,n04379243_-7,Stimuli/canonical view 2/img_n02828884_4_gray.jpg,Stimuli/canonical view 2/img_n04379243_-7_gray.jpg,foreground,right,Experiments/experiment_7/440.jpg,Experiments/experiment_7/441.jpg,Experiments/experiment_7/442.jpg,Experiments/experiment_7/443.jpg,696,1,2023-05-23_22h13.56.572,Occlusion_Psychophysics,2022.1.4,Win32,59.76571838,,,left,"[""right""]",[1.3519999999998618],False,,0.0,0.0,10.0,10.0,10.0,1.0,,,,,,
