in_color,Instructions_key.keys,Instructions_key.rt,Tutorial_instruction_key.keys,Tutorial_instruction_key.rt,Tutorial_fixation_ley.keys,Tutorial_fixation_ley.rt,Tutorial_single_img_key.keys,Tutorial_single_img_key.rt,Tutorial_intra_trial_fixation_key.keys,Tutorial_intra_trial_fixation_key.rt,Tutorial_stimulus_key.keys,Tutorial_stimulus_key.rt,Tutorial_response_key.keys,Tutorial_response_key.rt,Tutorial_attention_check_key.keys,Tutorial_attention_check_key.rt,advance_or_repeat.keys,advance_or_repeat.rt,Practice_instructions_key.keys,Practice_instructions_key.rt,intra_trial_duration,Practice_key_response.keys,Practice_key_response.rt,Practice_react_key.keys,Practice_react_key.rt,Practice_loop.thisRepN,Practice_loop.thisTrialN,Practice_loop.thisN,Practice_loop.thisIndex,Practice_loop.ran,multi_object_filepath,background_id,foreground_id,multi_object_rotation,occlusion_level,single_object_id,single_object_filepath,single_is_foreground_or_random,single_object_rotation,background_choice_id,alt_choice_id,background_option_filepath,alternative_option_filepath,alternative_is_foreground_or_random,location_of_correct_answer,multi_object_exp_filename,single_object_exp_filename,background_option_exp_filename,alternative_option_exp_filename,participant,session,date,expName,psychopyVersion,OS,frameRate,Practice_end_key.keys,Practice_end_key.rt,correct_answer,Input_selection.keys,Input_selection.rt,Was_attention_check,Attention_check.keys,Attention_check.corr,Attention_check.rt,Each_session_loop.thisRepN,Each_session_loop.thisTrialN,Each_session_loop.thisN,Each_session_loop.thisIndex,Each_session_loop.ran,Num_sessions.thisRepN,Num_sessions.thisTrialN,Num_sessions.thisN,Num_sessions.thisIndex,Num_sessions.ran
False,space,41.843,right,16.262,right,3.653,right,3.867,right,2.148,right,7.293,right,1.869,right,5.428,a,5.826,right,3.327,0.025,right,1.616,a,3.705,0.0,0.0,0.0,0.0,1.0,Stimuli/psy_fixed_rotation_30_objects_occ0.7_0.9s/images/train/n04405907_9/n02933112_4/img_vray_004_buffet_2008_gray.jpg,n04405907_9,n02933112_4,fixed,0.706715,n04405907_8,Stimuli/psy_fixed_rotation_30_objects_occ0.7_0.9s/images/train/n02933112_4/n04405907_8/img_buffet_stylized_tv_2012-3_gray.png,random,fixed,n04405907_9,n04256520_4,Stimuli/canonical view 2/img_n04405907_9_gray.jpg,Stimuli/canonical view 2/img_n04256520_4_gray.jpg,random,left,Experiments/experiment_2/1000.jpg,Experiments/experiment_2/1001.jpg,Experiments/experiment_2/1002.jpg,Experiments/experiment_2/1003.jpg,719,1,2023-09-17_11h35.20.895,Occlusion_Psychophysics,2022.1.4,Win32,59.95203837,,,,,,,,,,,,,,,,,,,
,,,,,,,,,,,,,,,,,,,,,0.05,,,,,,,,,,Stimuli/psy_flexible_rotation_30_objects_occ0.7_0.9s/images/train/n04379243_0/n02818832_3/img_17th_c._monastery_dining_table_2010_b05_ccm_contemporary_bed_max2013_2001_gray.jpg,n04379243_0,n02818832_3,flexible,0.721131,n04379243_-7,Stimuli/psy_fixed_rotation_30_objects_occ0.7_0.9s/images/train/n02933112_-18/n04379243_-7/img_cgaxis_models_48_26_vray_composite_quatre_dining_table_2012-3_gray.png,random,fixed,n04379243_0,n02818832_3,Stimuli/canonical view 2/img_n04379243_0_gray.jpg,Stimuli/canonical view 2/img_n02818832_3_gray.jpg,foreground,left,Experiments/experiment_2/0.jpg,Experiments/experiment_2/1.jpg,Experiments/experiment_2/2.jpg,Experiments/experiment_2/3.jpg,719,1,2023-09-17_11h35.20.895,Occlusion_Psychophysics,2022.1.4,Win32,59.95203837,right,2.962,left,"[""left""]",[1.5300000000000296],True,right,1.0,1.327,0.0,0.0,0.0,0.0,1.0,,,,,
,,,,,,,,,,,,,,,,,,,,,0.05,,,,,,,,,,Stimuli/psy_flexible_rotation_30_objects_occ0.7_0.9s/images/train/n02828884_4/n04379243_-7/img_b05_c-5_classic_series_bench-2012_quatre_dining_table_2004_gray.jpg,n02828884_4,n04379243_-7,flexible,0.700029,n04256520_9,Stimuli/psy_fixed_rotation_30_objects_occ0.7_0.9s/images/train/n02933112_4/n04256520_9/img_buffet_napoleon_iii_sofa_2012-3_gray.png,random,fixed,n02828884_4,n03001627_-2,Stimuli/canonical view 2/img_n02828884_4_gray.jpg,Stimuli/canonical view 2/img_n03001627_-2_gray.jpg,random,left,Experiments/experiment_2/4.jpg,Experiments/experiment_2/5.jpg,Experiments/experiment_2/6.jpg,Experiments/experiment_2/7.jpg,719,1,2023-09-17_11h35.20.895,Occlusion_Psychophysics,2022.1.4,Win32,59.95203837,,,left,"[""left""]",[1.4560000000000173],False,,0.0,,0.0,1.0,1.0,1.0,1.0,,,,,
,,,,,,,,,,,,,,,,,,,,,0.05,,,,,,,,,,Stimuli/psy_flexible_rotation_30_objects_occ0.7_0.9s/images/train/n02883344_-1/n02828884_3/img_woven_box_b04_wood_metal_park_bench_2007_gray.jpg,n02883344_-1,n02828884_3,flexible,0.807646,n02828884_3,Stimuli/psy_flexible_rotation_30_objects_occ0.7_0.9s/images/train/n02883344_-1/n02828884_3/img_woven_box_b04_wood_metal_park_bench_2007-3_gray.png,foreground,same as foreground,n02883344_-1,n02828884_4,Stimuli/canonical view 2/img_n02883344_-1_gray.jpg,Stimuli/canonical view 2/img_n02828884_4_gray.jpg,random,left,Experiments/experiment_2/8.jpg,Experiments/experiment_2/9.jpg,Experiments/experiment_2/10.jpg,Experiments/experiment_2/11.jpg,719,1,2023-09-17_11h35.20.895,Occlusion_Psychophysics,2022.1.4,Win32,59.95203837,,,left,"[""left""]",[1.3909999999999627],False,,0.0,,0.0,2.0,2.0,2.0,1.0,,,,,
,,,,,,,,,,,,,,,,,,,,,0.05,,,,,,,,,,Stimuli/psy_flexible_rotation_30_objects_occ0.7_0.9s/images/train/n03001627_8/n04405907_5/img_chair_billiani_doll_samsung_40_uhd_smart_tv_2011_2004_gray.jpg,n03001627_8,n04405907_5,flexible,0.712209,n02883344_-1,Stimuli/psy_fixed_rotation_30_objects_occ0.7_0.9s/images/train/n04379243_0/n02883344_-1/img_17th_c._monastery_dining_table_2010_woven_box_2002-3_gray.png,random,fixed,n03001627_8,n04405907_5,Stimuli/canonical view 2/img_n03001627_8_gray.jpg,Stimuli/canonical view 2/img_n04405907_5_gray.jpg,foreground,left,Experiments/experiment_2/12.jpg,Experiments/experiment_2/13.jpg,Experiments/experiment_2/14.jpg,Experiments/experiment_2/15.jpg,719,1,2023-09-17_11h35.20.895,Occlusion_Psychophysics,2022.1.4,Win32,59.95203837,,,right,"[""right""]",[1.2090000000000032],False,,0.0,,0.0,3.0,3.0,3.0,1.0,,,,,
,,,,,,,,,,,,,,,,,,,,,0.05,,,,,,,,,,Stimuli/psy_flexible_rotation_30_objects_occ0.7_0.9s/images/train/n04379243_0/n02883344_-1/img_17th_c._monastery_dining_table_2010_woven_box_2002_gray.jpg,n04379243_0,n02883344_-1,flexible,0.815443,n04256520_9,Stimuli/psy_flexible_rotation_30_objects_occ0.7_0.9s/images/train/n03928116_4/n04256520_9/img_dp_33_b_2013__vray_napoleon_iii_sofa_2013-3_gray.png,random,flexible,n04379243_0,n02828884_4,Stimuli/canonical view 2/img_n04379243_0_gray.jpg,Stimuli/canonical view 2/img_n02828884_4_gray.jpg,random,left,Experiments/experiment_2/16.jpg,Experiments/experiment_2/17.jpg,Experiments/experiment_2/18.jpg,Experiments/experiment_2/19.jpg,719,1,2023-09-17_11h35.20.895,Occlusion_Psychophysics,2022.1.4,Win32,59.95203837,,,right,"[""right""]",[1.0440000000000396],False,,0.0,,0.0,4.0,4.0,4.0,1.0,,,,,
,,,,,,,,,,,,,,,,,,,,,0.025,,,,,,,,,,Stimuli/psy_fixed_rotation_30_objects_occ0.7_0.9s/images/train/n04405907_9/n04256520_4/img_vray_004_club_house_italia_nautilus_sofa_2009_gray.jpg,n04405907_9,n04256520_4,fixed,0.888142,n04256520_4,Stimuli/psy_fixed_rotation_30_objects_occ0.7_0.9s/images/train/n04405907_9/n04256520_4/img_vray_004_club_house_italia_nautilus_sofa_2009-3_gray.png,foreground,same as foreground,n04405907_9,n04256520_4,Stimuli/canonical view 2/img_n04405907_9_gray.jpg,Stimuli/canonical view 2/img_n04256520_4_gray.jpg,foreground,left,Experiments/experiment_2/20.jpg,Experiments/experiment_2/21.jpg,Experiments/experiment_2/22.jpg,Experiments/experiment_2/23.jpg,719,1,2023-09-17_11h35.20.895,Occlusion_Psychophysics,2022.1.4,Win32,59.95203837,,,left,"[""left""]",[1.5389999999999873],False,,0.0,,0.0,5.0,5.0,5.0,1.0,,,,,
,,,,,,,,,,,,,,,,,,,,,0.025,,,,,,,,,,Stimuli/psy_flexible_rotation_30_objects_occ0.7_0.9s/images/train/n02883344_-1/n02828884_3/img_woven_box_b04_wood_metal_park_bench_2009_gray.jpg,n02883344_-1,n02828884_3,flexible,0.749726,n02883344_-1,Stimuli/psy_fixed_rotation_30_objects_occ0.7_0.9s/images/train/n03001627_9/n02883344_-1/img_chair_eames_plastic_armchair_woven_box_2013-3_gray.png,random,fixed,n02883344_-1,n02828884_3,Stimuli/canonical view 2/img_n02883344_-1_gray.jpg,Stimuli/canonical view 2/img_n02828884_3_gray.jpg,foreground,right,Experiments/experiment_2/24.jpg,Experiments/experiment_2/25.jpg,Experiments/experiment_2/26.jpg,Experiments/experiment_2/27.jpg,719,1,2023-09-17_11h35.20.895,Occlusion_Psychophysics,2022.1.4,Win32,59.95203837,,,right,"[""right""]",[1.0879999999999654],False,,0.0,,0.0,6.0,6.0,6.0,1.0,,,,,
,,,,,,,,,,,,,,,,,,,,,0.05,,,,,,,,,,Stimuli/psy_fixed_rotation_30_objects_occ0.7_0.9s/images/train/n04379243_0/n04379243_8/img_17th_c._monastery_dining_table_2010_glass_table_2012_gray.jpg,n04379243_0,n04379243_8,fixed,0.732309,n04379243_8,Stimuli/psy_fixed_rotation_30_objects_occ0.7_0.9s/images/train/n04379243_0/n04379243_8/img_17th_c._monastery_dining_table_2010_glass_table_2012-3_gray.png,foreground,same as foreground,n04379243_0,n03001627_9,Stimuli/canonical view 2/img_n04379243_0_gray.jpg,Stimuli/canonical view 2/img_n03001627_9_gray.jpg,random,right,Experiments/experiment_2/28.jpg,Experiments/experiment_2/29.jpg,Experiments/experiment_2/30.jpg,Experiments/experiment_2/31.jpg,719,1,2023-09-17_11h35.20.895,Occlusion_Psychophysics,2022.1.4,Win32,59.95203837,,,right,"[""right""]",[0.9960000000000377],False,,0.0,,0.0,7.0,7.0,7.0,1.0,,,,,
,,,,,,,,,,,,,,,,,,,,,0.05,,,,,,,,,,Stimuli/psy_flexible_rotation_30_objects_occ0.7_0.9s/images/train/n04379243_0/n04256520_5/img_17th_c._monastery_dining_table_2010_meridiani_belmondo_bench_sofa_2001_gray.jpg,n04379243_0,n04256520_5,flexible,0.764505,n04256520_5,Stimuli/psy_flexible_rotation_30_objects_occ0.7_0.9s/images/train/n04379243_0/n04256520_5/img_17th_c._monastery_dining_table_2010_meridiani_belmondo_bench_sofa_2001-3_gray.png,foreground,same as foreground,n04379243_0,n02883344_-1,Stimuli/canonical view 2/img_n04379243_0_gray.jpg,Stimuli/canonical view 2/img_n02883344_-1_gray.jpg,random,left,Experiments/experiment_2/32.jpg,Experiments/experiment_2/33.jpg,Experiments/experiment_2/34.jpg,Experiments/experiment_2/35.jpg,719,1,2023-09-17_11h35.20.895,Occlusion_Psychophysics,2022.1.4,Win32,59.95203837,,,right,"[""right""]",[0.7879999999999541],False,,0.0,,0.0,8.0,8.0,8.0,1.0,,,,,
,,,,,,,,,,,,,,,,,,,,,0.05,,,,,,,,,,Stimuli/psy_fixed_rotation_30_objects_occ0.7_0.9s/images/train/n04379243_-7/n04405907_8/img_quatre_dining_table_stylized_tv_2013_gray.jpg,n04379243_-7,n04405907_8,fixed,0.793701,n02818832_0,Stimuli/psy_fixed_rotation_30_objects_occ0.7_0.9s/images/train/n02828884_4/n02818832_0/img_b05_c-5_classic_series_bench-2012_b03_the_sofa_and_chair_company_-_stanley_bed_2014_2001-3_gray.png,random,fixed,n04379243_-7,n02828884_9,Stimuli/canonical view 2/img_n04379243_-7_gray.jpg,Stimuli/canonical view 2/img_n02828884_9_gray.jpg,random,right,Experiments/experiment_2/36.jpg,Experiments/experiment_2/37.jpg,Experiments/experiment_2/38.jpg,Experiments/experiment_2/39.jpg,719,1,2023-09-17_11h35.20.895,Occlusion_Psychophysics,2022.1.4,Win32,59.95203837,,,left,"[""left""]",[0.9560000000000173],False,,0.0,,0.0,9.0,9.0,9.0,1.0,,,,,
,,,,,,,,,,,,,,,,,,,,,0.05,,,,,,,,,,Stimuli/psy_flexible_rotation_30_objects_occ0.7_0.9s/images/train/n04379243_-7/n03928116_10/img_quatre_dining_table_ydp_103_r_2012__vray_2014_gray.jpg,n04379243_-7,n03928116_10,flexible,0.728332,n03928116_10,Stimuli/psy_flexible_rotation_30_objects_occ0.7_0.9s/images/train/n04379243_-7/n03928116_10/img_quatre_dining_table_ydp_103_r_2012__vray_2014-3_gray.png,foreground,same as foreground,n04379243_-7,n03928116_10,Stimuli/canonical view 2/img_n04379243_-7_gray.jpg,Stimuli/canonical view 2/img_n03928116_10_gray.jpg,foreground,left,Experiments/experiment_2/40.jpg,Experiments/experiment_2/41.jpg,Experiments/experiment_2/42.jpg,Experiments/experiment_2/43.jpg,719,1,2023-09-17_11h35.20.895,Occlusion_Psychophysics,2022.1.4,Win32,59.95203837,,,right,"[""right""]",[0.9619999999999891],False,,0.0,,0.0,10.0,10.0,10.0,1.0,,,,,
,,,,,,,,,,,,,,,,,,,,,0.025,,,,,,,,,,Stimuli/psy_flexible_rotation_30_objects_occ0.7_0.9s/images/train/n04405907_9/n04405907_8/img_vray_004_stylized_tv_2003_gray.jpg,n04405907_9,n04405907_8,flexible,0.715511,n02818832_3,Stimuli/psy_fixed_rotation_30_objects_occ0.7_0.9s/images/train/n02933112_-2/n02818832_3/img_sink_base_white_wood_b05_ccm_contemporary_bed_max2013_2014-3_gray.png,random,fixed,n04405907_9,n04405907_8,Stimuli/canonical view 2/img_n04405907_9_gray.jpg,Stimuli/canonical view 2/img_n04405907_8_gray.jpg,foreground,right,Experiments/experiment_2/44.jpg,Experiments/experiment_2/45.jpg,Experiments/experiment_2/46.jpg,Experiments/experiment_2/47.jpg,719,1,2023-09-17_11h35.20.895,Occlusion_Psychophysics,2022.1.4,Win32,59.95203837,,,left,"[""right""]",[1.3950000000000387],False,,0.0,,0.0,11.0,11.0,11.0,1.0,,,,,
,,,,,,,,,,,,,,,,,,,,,0.025,,,,,,,,,,Stimuli/psy_flexible_rotation_30_objects_occ0.7_0.9s/images/train/n04405907_9/n02818832_3/img_vray_004_b05_ccm_contemporary_bed_max2013_2012_gray.jpg,n04405907_9,n02818832_3,flexible,0.759311,n02818832_3,Stimuli/psy_flexible_rotation_30_objects_occ0.7_0.9s/images/train/n04405907_9/n02818832_3/img_vray_004_b05_ccm_contemporary_bed_max2013_2012-3_gray.png,foreground,same as foreground,n04405907_9,n02818832_3,Stimuli/canonical view 2/img_n04405907_9_gray.jpg,Stimuli/canonical view 2/img_n02818832_3_gray.jpg,foreground,right,Experiments/experiment_2/48.jpg,Experiments/experiment_2/49.jpg,Experiments/experiment_2/50.jpg,Experiments/experiment_2/51.jpg,719,1,2023-09-17_11h35.20.895,Occlusion_Psychophysics,2022.1.4,Win32,59.95203837,,,left,"[""right""]",[1.386000000000024],False,,0.0,,0.0,12.0,12.0,12.0,1.0,,,,,
,,,,,,,,,,,,,,,,,,,,,0.05,,,,,,,,,,Stimuli/psy_fixed_rotation_30_objects_occ0.7_0.9s/images/train/n02883344_-1/n02883344_15/img_woven_box_microwave_box_2000_gray.jpg,n02883344_-1,n02883344_15,fixed,0.737366,n02818832_3,Stimuli/psy_flexible_rotation_30_objects_occ0.7_0.9s/images/train/n02883344_-1/n02818832_3/img_woven_box_b05_ccm_contemporary_bed_max2013_2003-3_gray.png,random,flexible,n02883344_-1,n03928116_0,Stimuli/canonical view 2/img_n02883344_-1_gray.jpg,Stimuli/canonical view 2/img_n03928116_0_gray.jpg,random,right,Experiments/experiment_2/52.jpg,Experiments/experiment_2/53.jpg,Experiments/experiment_2/54.jpg,Experiments/experiment_2/55.jpg,719,1,2023-09-17_11h35.20.895,Occlusion_Psychophysics,2022.1.4,Win32,59.95203837,,,left,"[""left""]",[1.073000000000036],True,left,1.0,1.087,0.0,13.0,13.0,13.0,1.0,,,,,
,,,,,,,,,,,,,,,,,,,,,0.025,,,,,,,,,,Stimuli/psy_fixed_rotation_30_objects_occ0.7_0.9s/images/train/n04379243_-7/n02933112_-2/img_quatre_dining_table_sink_base_white_wood_2010_gray.jpg,n04379243_-7,n02933112_-2,fixed,0.735829,n04256520_5,Stimuli/psy_fixed_rotation_30_objects_occ0.7_0.9s/images/train/n02818832_9/n04256520_5/img_bed01_blue_meridiani_belmondo_bench_sofa_2000-3_gray.png,random,fixed,n04379243_-7,n02933112_-2,Stimuli/canonical view 2/img_n04379243_-7_gray.jpg,Stimuli/canonical view 2/img_n02933112_-2_gray.jpg,foreground,right,Experiments/experiment_2/56.jpg,Experiments/experiment_2/57.jpg,Experiments/experiment_2/58.jpg,Experiments/experiment_2/59.jpg,719,1,2023-09-17_11h35.20.895,Occlusion_Psychophysics,2022.1.4,Win32,59.95203837,,,right,"[""right""]",[0.7540000000000191],False,,0.0,,0.0,14.0,14.0,14.0,1.0,,,,,
,,,,,,,,,,,,,,,,,,,,,0.025,,,,,,,,,,Stimuli/psy_fixed_rotation_30_objects_occ0.7_0.9s/images/train/n03001627_-2/n02933112_4/img_wood_chair_buffet_2005_gray.jpg,n03001627_-2,n02933112_4,fixed,0.767951,n03928116_0,Stimuli/psy_flexible_rotation_30_objects_occ0.7_0.9s/images/train/n03928116_4/n03928116_0/img_dp_33_b_2013__vray_b02_piano_2006-3_gray.png,random,flexible,n03001627_-2,n04379243_-7,Stimuli/canonical view 2/img_n03001627_-2_gray.jpg,Stimuli/canonical view 2/img_n04379243_-7_gray.jpg,random,left,Experiments/experiment_2/60.jpg,Experiments/experiment_2/61.jpg,Experiments/experiment_2/62.jpg,Experiments/experiment_2/63.jpg,719,1,2023-09-17_11h35.20.895,Occlusion_Psychophysics,2022.1.4,Win32,59.95203837,,,right,"[""right""]",[1.532000000000039],False,,0.0,,0.0,15.0,15.0,15.0,1.0,,,,,
,,,,,,,,,,,,,,,,,,,,,0.025,,,,,,,,,,Stimuli/psy_flexible_rotation_30_objects_occ0.7_0.9s/images/train/n02818832_9/n02933112_-18/img_bed01_blue_cgaxis_models_48_26_vray_composite_2011_gray.jpg,n02818832_9,n02933112_-18,flexible,0.857433,n02828884_3,Stimuli/psy_flexible_rotation_30_objects_occ0.7_0.9s/images/train/n02818832_3/n02828884_3/img_b05_ccm_contemporary_bed_max2013_b04_wood_metal_park_bench_2005-3_gray.png,random,flexible,n02818832_9,n03928116_10,Stimuli/canonical view 2/img_n02818832_9_gray.jpg,Stimuli/canonical view 2/img_n03928116_10_gray.jpg,random,right,Experiments/experiment_2/64.jpg,Experiments/experiment_2/65.jpg,Experiments/experiment_2/66.jpg,Experiments/experiment_2/67.jpg,719,1,2023-09-17_11h35.20.895,Occlusion_Psychophysics,2022.1.4,Win32,59.95203837,,,left,"[""left""]",[1.1580000000000155],False,,0.0,,0.0,16.0,16.0,16.0,1.0,,,,,
,,,,,,,,,,,,,,,,,,,,,0.025,,,,,,,,,,Stimuli/psy_flexible_rotation_30_objects_occ0.7_0.9s/images/train/n04256520_9/n02818832_9/img_napoleon_iii_sofa_bed01_blue_2013_gray.jpg,n04256520_9,n02818832_9,flexible,0.721399,n02933112_-2,Stimuli/psy_fixed_rotation_30_objects_occ0.7_0.9s/images/train/n02828884_9/n02933112_-2/img_cr-96_bench_sink_base_white_wood_2009-3_gray.png,random,fixed,n04256520_9,n02818832_9,Stimuli/canonical view 2/img_n04256520_9_gray.jpg,Stimuli/canonical view 2/img_n02818832_9_gray.jpg,foreground,right,Experiments/experiment_2/68.jpg,Experiments/experiment_2/69.jpg,Experiments/experiment_2/70.jpg,Experiments/experiment_2/71.jpg,719,1,2023-09-17_11h35.20.895,Occlusion_Psychophysics,2022.1.4,Win32,59.95203837,,,right,"[""left""]",[1.322999999999979],False,,0.0,,0.0,17.0,17.0,17.0,1.0,,,,,
,,,,,,,,,,,,,,,,,,,,,0.025,,,,,,,,,,Stimuli/psy_flexible_rotation_30_objects_occ0.7_0.9s/images/train/n02933112_4/n03928116_0/img_buffet_b02_piano_2007_gray.jpg,n02933112_4,n03928116_0,flexible,0.753165,n02883344_15,Stimuli/psy_fixed_rotation_30_objects_occ0.7_0.9s/images/train/n04405907_8/n02883344_15/img_stylized_tv_microwave_box_2010-3_gray.png,random,fixed,n02933112_4,n03928116_0,Stimuli/canonical view 2/img_n02933112_4_gray.jpg,Stimuli/canonical view 2/img_n03928116_0_gray.jpg,foreground,left,Experiments/experiment_2/72.jpg,Experiments/experiment_2/73.jpg,Experiments/experiment_2/74.jpg,Experiments/experiment_2/75.jpg,719,1,2023-09-17_11h35.20.895,Occlusion_Psychophysics,2022.1.4,Win32,59.95203837,,,right,"[""right""]",[0.6659999999999968],False,,0.0,,0.0,18.0,18.0,18.0,1.0,,,,,
,,,,,,,,,,,,,,,,,,,,,0.025,,,,,,,,,,Stimuli/psy_fixed_rotation_30_objects_occ0.7_0.9s/images/train/n02828884_4/n02828884_3/img_b05_c-5_classic_series_bench-2012_b04_wood_metal_park_bench_2007_gray.jpg,n02828884_4,n02828884_3,fixed,0.713395,n04256520_4,Stimuli/psy_fixed_rotation_30_objects_occ0.7_0.9s/images/train/n02883344_0/n04256520_4/img_b03_box_club_house_italia_nautilus_sofa_2013-3_gray.png,random,fixed,n02828884_4,n02828884_3,Stimuli/canonical view 2/img_n02828884_4_gray.jpg,Stimuli/canonical view 2/img_n02828884_3_gray.jpg,foreground,right,Experiments/experiment_2/76.jpg,Experiments/experiment_2/77.jpg,Experiments/experiment_2/78.jpg,Experiments/experiment_2/79.jpg,719,1,2023-09-17_11h35.20.895,Occlusion_Psychophysics,2022.1.4,Win32,59.95203837,,,right,"[""right""]",[0.9370000000000118],False,,0.0,,0.0,19.0,19.0,19.0,1.0,,,,,
,,,,,,,,,,,,,,,,,,,,,0.05,,,,,,,,,,Stimuli/psy_fixed_rotation_30_objects_occ0.7_0.9s/images/train/n02828884_4/n03928116_0/img_b05_c-5_classic_series_bench-2012_b02_piano_2003_gray.jpg,n02828884_4,n03928116_0,fixed,0.711563,n04256520_5,Stimuli/psy_fixed_rotation_30_objects_occ0.7_0.9s/images/train/n02933112_-2/n04256520_5/img_sink_base_white_wood_meridiani_belmondo_bench_sofa_2010-3_gray.png,random,fixed,n02828884_4,n03928116_0,Stimuli/canonical view 2/img_n02828884_4_gray.jpg,Stimuli/canonical view 2/img_n03928116_0_gray.jpg,foreground,left,Experiments/experiment_2/80.jpg,Experiments/experiment_2/81.jpg,Experiments/experiment_2/82.jpg,Experiments/experiment_2/83.jpg,719,1,2023-09-17_11h35.20.895,Occlusion_Psychophysics,2022.1.4,Win32,59.95203837,,,left,"[""left""]",[1.2930000000000064],False,,0.0,,0.0,20.0,20.0,20.0,1.0,,,,,
,,,,,,,,,,,,,,,,,,,,,0.05,,,,,,,,,,Stimuli/psy_fixed_rotation_30_objects_occ0.7_0.9s/images/train/n04405907_5/n04379243_-7/img_samsung_40_uhd_smart_tv_2011_quatre_dining_table_2008_gray.jpg,n04405907_5,n04379243_-7,fixed,0.773048,n03001627_9,Stimuli/psy_fixed_rotation_30_objects_occ0.7_0.9s/images/train/n04405907_8/n03001627_9/img_stylized_tv_chair_eames_plastic_armchair_2004-3_gray.png,random,fixed,n04405907_5,n04379243_-7,Stimuli/canonical view 2/img_n04405907_5_gray.jpg,Stimuli/canonical view 2/img_n04379243_-7_gray.jpg,foreground,left,Experiments/experiment_2/84.jpg,Experiments/experiment_2/85.jpg,Experiments/experiment_2/86.jpg,Experiments/experiment_2/87.jpg,719,1,2023-09-17_11h35.20.895,Occlusion_Psychophysics,2022.1.4,Win32,59.95203837,,,left,"[""right""]",[1.4610000000000127],False,,0.0,,0.0,21.0,21.0,21.0,1.0,,,,,
,,,,,,,,,,,,,,,,,,,,,0.05,,,,,,,,,,Stimuli/psy_fixed_rotation_30_objects_occ0.7_0.9s/images/train/n04405907_9/n04256520_5/img_vray_004_meridiani_belmondo_bench_sofa_2007_gray.jpg,n04405907_9,n04256520_5,fixed,0.781073,n04256520_5,Stimuli/psy_fixed_rotation_30_objects_occ0.7_0.9s/images/train/n04405907_9/n04256520_5/img_vray_004_meridiani_belmondo_bench_sofa_2007-3_gray.png,foreground,same as foreground,n04405907_9,n04256520_5,Stimuli/canonical view 2/img_n04405907_9_gray.jpg,Stimuli/canonical view 2/img_n04256520_5_gray.jpg,foreground,left,Experiments/experiment_2/88.jpg,Experiments/experiment_2/89.jpg,Experiments/experiment_2/90.jpg,Experiments/experiment_2/91.jpg,719,1,2023-09-17_11h35.20.895,Occlusion_Psychophysics,2022.1.4,Win32,59.95203837,,,left,"[""left""]",[1.43100000000004],False,,0.0,,0.0,22.0,22.0,22.0,1.0,,,,,
,,,,,,,,,,,,,,,,,,,,,0.025,,,,,,,,,,Stimuli/psy_flexible_rotation_30_objects_occ0.7_0.9s/images/train/n02828884_4/n02818832_0/img_b05_c-5_classic_series_bench-2012_b03_the_sofa_and_chair_company_-_stanley_bed_2014_2010_gray.jpg,n02828884_4,n02818832_0,flexible,0.759001,n02818832_0,Stimuli/psy_flexible_rotation_30_objects_occ0.7_0.9s/images/train/n02828884_4/n02818832_0/img_b05_c-5_classic_series_bench-2012_b03_the_sofa_and_chair_company_-_stanley_bed_2014_2010-3_gray.png,foreground,same as foreground,n02828884_4,n02818832_0,Stimuli/canonical view 2/img_n02828884_4_gray.jpg,Stimuli/canonical view 2/img_n02818832_0_gray.jpg,foreground,right,Experiments/experiment_2/92.jpg,Experiments/experiment_2/93.jpg,Experiments/experiment_2/94.jpg,Experiments/experiment_2/95.jpg,719,1,2023-09-17_11h35.20.895,Occlusion_Psychophysics,2022.1.4,Win32,59.95203837,,,left,"[""left""]",[0.9950000000000045],False,,0.0,,0.0,23.0,23.0,23.0,1.0,,,,,
,,,,,,,,,,,,,,,,,,,,,0.05,,,,,,,,,,Stimuli/psy_fixed_rotation_30_objects_occ0.7_0.9s/images/train/n04405907_5/n02883344_15/img_samsung_40_uhd_smart_tv_2011_microwave_box_2015_gray.jpg,n04405907_5,n02883344_15,fixed,0.789582,n02818832_3,Stimuli/psy_fixed_rotation_30_objects_occ0.7_0.9s/images/train/n04379243_8/n02818832_3/img_glass_table_b05_ccm_contemporary_bed_max2013_2013-3_gray.png,random,fixed,n04405907_5,n02933112_-2,Stimuli/canonical view 2/img_n04405907_5_gray.jpg,Stimuli/canonical view 2/img_n02933112_-2_gray.jpg,random,left,Experiments/experiment_2/96.jpg,Experiments/experiment_2/97.jpg,Experiments/experiment_2/98.jpg,Experiments/experiment_2/99.jpg,719,1,2023-09-17_11h35.20.895,Occlusion_Psychophysics,2022.1.4,Win32,59.95203837,,,right,"[""right""]",[0.7810000000000059],False,,0.0,,0.0,24.0,24.0,24.0,1.0,,,,,
,,,,,,,,,,,,,,,,,,,,,0.025,,,,,,,,,,Stimuli/psy_flexible_rotation_30_objects_occ0.7_0.9s/images/train/n02818832_3/n02818832_0/img_b05_ccm_contemporary_bed_max2013_b03_the_sofa_and_chair_company_-_stanley_bed_2014_2006_gray.jpg,n02818832_3,n02818832_0,flexible,0.705063,n04379243_-7,Stimuli/psy_flexible_rotation_30_objects_occ0.7_0.9s/images/train/n02818832_0/n04379243_-7/img_b03_the_sofa_and_chair_company_-_stanley_bed_2014_quatre_dining_table_2006-3_gray.png,random,flexible,n02818832_3,n02828884_9,Stimuli/canonical view 2/img_n02818832_3_gray.jpg,Stimuli/canonical view 2/img_n02828884_9_gray.jpg,random,right,Experiments/experiment_2/100.jpg,Experiments/experiment_2/101.jpg,Experiments/experiment_2/102.jpg,Experiments/experiment_2/103.jpg,719,1,2023-09-17_11h35.20.895,Occlusion_Psychophysics,2022.1.4,Win32,59.95203837,,,right,"[""left""]",[1.589999999999975],False,,0.0,,0.0,25.0,25.0,25.0,1.0,,,,,
,,,,,,,,,,,,,,,,,,,,,0.05,,,,,,,,,,Stimuli/psy_flexible_rotation_30_objects_occ0.7_0.9s/images/train/n02818832_9/n02818832_0/img_bed01_blue_b03_the_sofa_and_chair_company_-_stanley_bed_2014_2009_gray.jpg,n02818832_9,n02818832_0,flexible,0.831648,n02818832_0,Stimuli/psy_flexible_rotation_30_objects_occ0.7_0.9s/images/train/n02818832_9/n02818832_0/img_bed01_blue_b03_the_sofa_and_chair_company_-_stanley_bed_2014_2009-3_gray.png,foreground,same as foreground,n02818832_9,n02818832_0,Stimuli/canonical view 2/img_n02818832_9_gray.jpg,Stimuli/canonical view 2/img_n02818832_0_gray.jpg,foreground,left,Experiments/experiment_2/104.jpg,Experiments/experiment_2/105.jpg,Experiments/experiment_2/106.jpg,Experiments/experiment_2/107.jpg,719,1,2023-09-17_11h35.20.895,Occlusion_Psychophysics,2022.1.4,Win32,59.95203837,,,left,"[""left""]",[1.2800000000000296],False,,0.0,,0.0,26.0,26.0,26.0,1.0,,,,,
,,,,,,,,,,,,,,,,,,,,,0.025,,,,,,,,,,Stimuli/psy_flexible_rotation_30_objects_occ0.7_0.9s/images/train/n04379243_0/n04379243_8/img_17th_c._monastery_dining_table_2010_glass_table_2005_gray.jpg,n04379243_0,n04379243_8,flexible,0.708227,n04405907_5,Stimuli/psy_fixed_rotation_30_objects_occ0.7_0.9s/images/train/n04379243_8/n04405907_5/img_glass_table_samsung_40_uhd_smart_tv_2011_2006-3_gray.png,random,fixed,n04379243_0,n04379243_8,Stimuli/canonical view 2/img_n04379243_0_gray.jpg,Stimuli/canonical view 2/img_n04379243_8_gray.jpg,foreground,right,Experiments/experiment_2/108.jpg,Experiments/experiment_2/109.jpg,Experiments/experiment_2/110.jpg,Experiments/experiment_2/111.jpg,719,1,2023-09-17_11h35.20.895,Occlusion_Psychophysics,2022.1.4,Win32,59.95203837,,,left,"[""left""]",[1.0090000000000146],False,,0.0,,0.0,27.0,27.0,27.0,1.0,,,,,
,,,,,,,,,,,,,,,,,,,,,0.025,,,,,,,,,,Stimuli/psy_flexible_rotation_30_objects_occ0.7_0.9s/images/train/n03001627_8/n03928116_0/img_chair_billiani_doll_b02_piano_2007_gray.jpg,n03001627_8,n03928116_0,flexible,0.765391,n03928116_10,Stimuli/psy_fixed_rotation_30_objects_occ0.7_0.9s/images/train/n04379243_-7/n03928116_10/img_quatre_dining_table_ydp_103_r_2012__vray_2002-3_gray.png,random,fixed,n03001627_8,n03928116_0,Stimuli/canonical view 2/img_n03001627_8_gray.jpg,Stimuli/canonical view 2/img_n03928116_0_gray.jpg,foreground,left,Experiments/experiment_2/112.jpg,Experiments/experiment_2/113.jpg,Experiments/experiment_2/114.jpg,Experiments/experiment_2/115.jpg,719,1,2023-09-17_11h35.20.895,Occlusion_Psychophysics,2022.1.4,Win32,59.95203837,,,right,"[""right""]",[0.8279999999999745],False,,0.0,,0.0,28.0,28.0,28.0,1.0,,,,,
,,,,,,,,,,,,,,,,,,,,,0.05,,,,,,,,,,Stimuli/psy_fixed_rotation_30_objects_occ0.7_0.9s/images/train/n02828884_9/n04405907_8/img_cr-96_bench_stylized_tv_2011_gray.jpg,n02828884_9,n04405907_8,fixed,0.717777,n04405907_8,Stimuli/psy_fixed_rotation_30_objects_occ0.7_0.9s/images/train/n02828884_9/n04405907_8/img_cr-96_bench_stylized_tv_2011-3_gray.png,foreground,same as foreground,n02828884_9,n04405907_8,Stimuli/canonical view 2/img_n02828884_9_gray.jpg,Stimuli/canonical view 2/img_n04405907_8_gray.jpg,foreground,right,Experiments/experiment_2/116.jpg,Experiments/experiment_2/117.jpg,Experiments/experiment_2/118.jpg,Experiments/experiment_2/119.jpg,719,1,2023-09-17_11h35.20.895,Occlusion_Psychophysics,2022.1.4,Win32,59.95203837,,,right,"[""right""]",[0.9619999999999891],True,right,1.0,1.343,0.0,29.0,29.0,29.0,1.0,,,,,
,,,,,,,,,,,,,,,,,,,,,0.05,,,,,,,,,,Stimuli/psy_fixed_rotation_30_objects_occ0.7_0.9s/images/train/n02818832_9/n02883344_15/img_bed01_blue_microwave_box_2003_gray.jpg,n02818832_9,n02883344_15,fixed,0.746603,n02883344_-1,Stimuli/psy_fixed_rotation_30_objects_occ0.7_0.9s/images/train/n04070727_0/n02883344_-1/img_b03_ka90ivi20r_2013__vray_woven_box_2008-3_gray.png,random,fixed,n02818832_9,n02933112_4,Stimuli/canonical view 2/img_n02818832_9_gray.jpg,Stimuli/canonical view 2/img_n02933112_4_gray.jpg,random,left,Experiments/experiment_2/120.jpg,Experiments/experiment_2/121.jpg,Experiments/experiment_2/122.jpg,Experiments/experiment_2/123.jpg,719,1,2023-09-17_11h35.20.895,Occlusion_Psychophysics,2022.1.4,Win32,59.95203837,,,right,"[""right""]",[1.2240000000000464],False,,0.0,,0.0,30.0,30.0,30.0,1.0,,,,,
,,,,,,,,,,,,,,,,,,,,,0.025,,,,,,,,,,Stimuli/psy_fixed_rotation_30_objects_occ0.7_0.9s/images/train/n02883344_-1/n02883344_0/img_woven_box_b03_box_2012_gray.jpg,n02883344_-1,n02883344_0,fixed,0.797798,n02883344_15,Stimuli/psy_fixed_rotation_30_objects_occ0.7_0.9s/images/train/n04405907_8/n02883344_15/img_stylized_tv_microwave_box_2008-3_gray.png,random,fixed,n02883344_-1,n02883344_0,Stimuli/canonical view 2/img_n02883344_-1_gray.jpg,Stimuli/canonical view 2/img_n02883344_0_gray.jpg,foreground,right,Experiments/experiment_2/124.jpg,Experiments/experiment_2/125.jpg,Experiments/experiment_2/126.jpg,Experiments/experiment_2/127.jpg,719,1,2023-09-17_11h35.20.895,Occlusion_Psychophysics,2022.1.4,Win32,59.95203837,,,left,"[""left""]",[1.3319999999999936],False,,0.0,,0.0,31.0,31.0,31.0,1.0,,,,,
,,,,,,,,,,,,,,,,,,,,,0.025,,,,,,,,,,Stimuli/psy_flexible_rotation_30_objects_occ0.7_0.9s/images/train/n04379243_0/n03001627_8/img_17th_c._monastery_dining_table_2010_chair_billiani_doll_2007_gray.jpg,n04379243_0,n03001627_8,flexible,0.735523,n03001627_8,Stimuli/psy_flexible_rotation_30_objects_occ0.7_0.9s/images/train/n04379243_0/n03001627_8/img_17th_c._monastery_dining_table_2010_chair_billiani_doll_2007-3_gray.png,foreground,same as foreground,n04379243_0,n03001627_8,Stimuli/canonical view 2/img_n04379243_0_gray.jpg,Stimuli/canonical view 2/img_n03001627_8_gray.jpg,foreground,left,Experiments/experiment_2/128.jpg,Experiments/experiment_2/129.jpg,Experiments/experiment_2/130.jpg,Experiments/experiment_2/131.jpg,719,1,2023-09-17_11h35.20.895,Occlusion_Psychophysics,2022.1.4,Win32,59.95203837,,,right,"[""right""]",[0.7400000000000091],False,,0.0,,0.0,32.0,32.0,32.0,1.0,,,,,
,,,,,,,,,,,,,,,,,,,,,0.025,,,,,,,,,,Stimuli/psy_fixed_rotation_30_objects_occ0.7_0.9s/images/train/n02818832_0/n04256520_9/img_b03_the_sofa_and_chair_company_-_stanley_bed_2014_napoleon_iii_sofa_2002_gray.jpg,n02818832_0,n04256520_9,fixed,0.800609,n04256520_9,Stimuli/psy_fixed_rotation_30_objects_occ0.7_0.9s/images/train/n02818832_0/n04256520_9/img_b03_the_sofa_and_chair_company_-_stanley_bed_2014_napoleon_iii_sofa_2002-3_gray.png,foreground,same as foreground,n02818832_0,n04256520_9,Stimuli/canonical view 2/img_n02818832_0_gray.jpg,Stimuli/canonical view 2/img_n04256520_9_gray.jpg,foreground,right,Experiments/experiment_2/132.jpg,Experiments/experiment_2/133.jpg,Experiments/experiment_2/134.jpg,Experiments/experiment_2/135.jpg,719,1,2023-09-17_11h35.20.895,Occlusion_Psychophysics,2022.1.4,Win32,59.95203837,,,left,"[""left""]",[1.08299999999997],False,,0.0,,0.0,33.0,33.0,33.0,1.0,,,,,
,,,,,,,,,,,,,,,,,,,,,0.05,,,,,,,,,,Stimuli/psy_fixed_rotation_30_objects_occ0.7_0.9s/images/train/n02828884_4/n04256520_5/img_b05_c-5_classic_series_bench-2012_meridiani_belmondo_bench_sofa_2001_gray.jpg,n02828884_4,n04256520_5,fixed,0.71461,n04256520_5,Stimuli/psy_fixed_rotation_30_objects_occ0.7_0.9s/images/train/n02828884_4/n04256520_5/img_b05_c-5_classic_series_bench-2012_meridiani_belmondo_bench_sofa_2001-3_gray.png,foreground,same as foreground,n02828884_4,n04256520_5,Stimuli/canonical view 2/img_n02828884_4_gray.jpg,Stimuli/canonical view 2/img_n04256520_5_gray.jpg,foreground,left,Experiments/experiment_2/136.jpg,Experiments/experiment_2/137.jpg,Experiments/experiment_2/138.jpg,Experiments/experiment_2/139.jpg,719,1,2023-09-17_11h35.20.895,Occlusion_Psychophysics,2022.1.4,Win32,59.95203837,,,right,"[""left""]",[1.1399999999999864],False,,0.0,,0.0,34.0,34.0,34.0,1.0,,,,,
,,,,,,,,,,,,,,,,,,,,,0.025,,,,,,,,,,Stimuli/psy_fixed_rotation_30_objects_occ0.7_0.9s/images/train/n04256520_9/n04256520_4/img_napoleon_iii_sofa_club_house_italia_nautilus_sofa_2010_gray.jpg,n04256520_9,n04256520_4,fixed,0.719205,n02818832_3,Stimuli/psy_flexible_rotation_30_objects_occ0.7_0.9s/images/train/n04070727_5/n02818832_3/img_b05_db_apps_tech_06_13_composite_b05_ccm_contemporary_bed_max2013_2004-3_gray.png,random,flexible,n04256520_9,n04256520_4,Stimuli/canonical view 2/img_n04256520_9_gray.jpg,Stimuli/canonical view 2/img_n04256520_4_gray.jpg,foreground,left,Experiments/experiment_2/140.jpg,Experiments/experiment_2/141.jpg,Experiments/experiment_2/142.jpg,Experiments/experiment_2/143.jpg,719,1,2023-09-17_11h35.20.895,Occlusion_Psychophysics,2022.1.4,Win32,59.95203837,,,right,"[""right""]",[0.7230000000000132],False,,0.0,,0.0,35.0,35.0,35.0,1.0,,,,,
,,,,,,,,,,,,,,,,,,,,,0.025,,,,,,,,,,Stimuli/psy_flexible_rotation_30_objects_occ0.7_0.9s/images/train/n04256520_9/n04379243_-7/img_napoleon_iii_sofa_quatre_dining_table_2015_gray.jpg,n04256520_9,n04379243_-7,flexible,0.723796,n02818832_9,Stimuli/psy_flexible_rotation_30_objects_occ0.7_0.9s/images/train/n02818832_0/n02818832_9/img_b03_the_sofa_and_chair_company_-_stanley_bed_2014_bed01_blue_2012-3_gray.png,random,flexible,n04256520_9,n04379243_-7,Stimuli/canonical view 2/img_n04256520_9_gray.jpg,Stimuli/canonical view 2/img_n04379243_-7_gray.jpg,foreground,right,Experiments/experiment_2/144.jpg,Experiments/experiment_2/145.jpg,Experiments/experiment_2/146.jpg,Experiments/experiment_2/147.jpg,719,1,2023-09-17_11h35.20.895,Occlusion_Psychophysics,2022.1.4,Win32,59.95203837,,,left,"[""left""]",[0.7560000000000286],False,,0.0,,0.0,36.0,36.0,36.0,1.0,,,,,
,,,,,,,,,,,,,,,,,,,,,0.025,,,,,,,,,,Stimuli/psy_fixed_rotation_30_objects_occ0.7_0.9s/images/train/n04405907_8/n02933112_-2/img_stylized_tv_sink_base_white_wood_2009_gray.jpg,n04405907_8,n02933112_-2,fixed,0.856405,n02828884_4,Stimuli/psy_fixed_rotation_30_objects_occ0.7_0.9s/images/train/n04256520_4/n02828884_4/img_club_house_italia_nautilus_sofa_b05_c-5_classic_series_bench-2012_2004-3_gray.png,random,fixed,n04405907_8,n02933112_-2,Stimuli/canonical view 2/img_n04405907_8_gray.jpg,Stimuli/canonical view 2/img_n02933112_-2_gray.jpg,foreground,right,Experiments/experiment_2/148.jpg,Experiments/experiment_2/149.jpg,Experiments/experiment_2/150.jpg,Experiments/experiment_2/151.jpg,719,1,2023-09-17_11h35.20.895,Occlusion_Psychophysics,2022.1.4,Win32,59.95203837,,,left,"[""left""]",[0.8530000000000086],False,,0.0,,0.0,37.0,37.0,37.0,1.0,,,,,
,,,,,,,,,,,,,,,,,,,,,0.025,,,,,,,,,,Stimuli/psy_flexible_rotation_30_objects_occ0.7_0.9s/images/train/n03001627_8/n03001627_9/img_chair_billiani_doll_chair_eames_plastic_armchair_2013_gray.jpg,n03001627_8,n03001627_9,flexible,0.701168,n02818832_9,Stimuli/psy_fixed_rotation_30_objects_occ0.7_0.9s/images/train/n02933112_-2/n02818832_9/img_sink_base_white_wood_bed01_blue_2010-3_gray.png,random,fixed,n03001627_8,n03001627_9,Stimuli/canonical view 2/img_n03001627_8_gray.jpg,Stimuli/canonical view 2/img_n03001627_9_gray.jpg,foreground,left,Experiments/experiment_2/152.jpg,Experiments/experiment_2/153.jpg,Experiments/experiment_2/154.jpg,Experiments/experiment_2/155.jpg,719,1,2023-09-17_11h35.20.895,Occlusion_Psychophysics,2022.1.4,Win32,59.95203837,,,left,"[""left""]",[1.2230000000000132],False,,0.0,,0.0,38.0,38.0,38.0,1.0,,,,,
,,,,,,,,,,,,,,,,,,,,,0.05,,,,,,,,,,Stimuli/psy_flexible_rotation_30_objects_occ0.7_0.9s/images/train/n04405907_8/n02933112_-2/img_stylized_tv_sink_base_white_wood_2011_gray.jpg,n04405907_8,n02933112_-2,flexible,0.729461,n02933112_-2,Stimuli/psy_flexible_rotation_30_objects_occ0.7_0.9s/images/train/n04405907_8/n02933112_-2/img_stylized_tv_sink_base_white_wood_2011-3_gray.png,foreground,same as foreground,n04405907_8,n04379243_0,Stimuli/canonical view 2/img_n04405907_8_gray.jpg,Stimuli/canonical view 2/img_n04379243_0_gray.jpg,random,right,Experiments/experiment_2/156.jpg,Experiments/experiment_2/157.jpg,Experiments/experiment_2/158.jpg,Experiments/experiment_2/159.jpg,719,1,2023-09-17_11h35.20.895,Occlusion_Psychophysics,2022.1.4,Win32,59.95203837,,,left,"[""left""]",[0.8070000000000164],False,,0.0,,0.0,39.0,39.0,39.0,1.0,,,,,
,,,,,,,,,,,,,,,,,,,,,0.025,,,,,,,,,,Stimuli/psy_flexible_rotation_30_objects_occ0.7_0.9s/images/train/n02883344_0/n02828884_9/img_b03_box_cr-96_bench_2003_gray.jpg,n02883344_0,n02828884_9,flexible,0.722154,n02818832_3,Stimuli/psy_fixed_rotation_30_objects_occ0.7_0.9s/images/train/n04070727_3/n02818832_3/img_b05_db_apps_tech_06_02_2_composite_b05_ccm_contemporary_bed_max2013_2014-3_gray.png,random,fixed,n02883344_0,n02828884_9,Stimuli/canonical view 2/img_n02883344_0_gray.jpg,Stimuli/canonical view 2/img_n02828884_9_gray.jpg,foreground,left,Experiments/experiment_2/160.jpg,Experiments/experiment_2/161.jpg,Experiments/experiment_2/162.jpg,Experiments/experiment_2/163.jpg,719,1,2023-09-17_11h35.20.895,Occlusion_Psychophysics,2022.1.4,Win32,59.95203837,,,right,"[""left""]",[1.1759999999999877],False,,0.0,,0.0,40.0,40.0,40.0,1.0,,,,,
,,,,,,,,,,,,,,,,,,,,,0.05,,,,,,,,,,Stimuli/psy_fixed_rotation_30_objects_occ0.7_0.9s/images/train/n04379243_-7/n02828884_4/img_quatre_dining_table_b05_c-5_classic_series_bench-2012_2002_gray.jpg,n04379243_-7,n02828884_4,fixed,0.723731,n02828884_4,Stimuli/psy_fixed_rotation_30_objects_occ0.7_0.9s/images/train/n04379243_-7/n02828884_4/img_quatre_dining_table_b05_c-5_classic_series_bench-2012_2002-3_gray.png,foreground,same as foreground,n04379243_-7,n02828884_4,Stimuli/canonical view 2/img_n04379243_-7_gray.jpg,Stimuli/canonical view 2/img_n02828884_4_gray.jpg,foreground,right,Experiments/experiment_2/164.jpg,Experiments/experiment_2/165.jpg,Experiments/experiment_2/166.jpg,Experiments/experiment_2/167.jpg,719,1,2023-09-17_11h35.20.895,Occlusion_Psychophysics,2022.1.4,Win32,59.95203837,,,right,"[""right""]",[0.9429999999999836],False,,0.0,,0.0,41.0,41.0,41.0,1.0,,,,,
,,,,,,,,,,,,,,,,,,,,,0.025,,,,,,,,,,Stimuli/psy_flexible_rotation_30_objects_occ0.7_0.9s/images/train/n02883344_15/n04379243_0/img_microwave_box_17th_c._monastery_dining_table_2010_2012_gray.jpg,n02883344_15,n04379243_0,flexible,0.739586,n04379243_0,Stimuli/psy_flexible_rotation_30_objects_occ0.7_0.9s/images/train/n02883344_15/n04379243_0/img_microwave_box_17th_c._monastery_dining_table_2010_2012-3_gray.png,foreground,same as foreground,n02883344_15,n04405907_9,Stimuli/canonical view 2/img_n02883344_15_gray.jpg,Stimuli/canonical view 2/img_n04405907_9_gray.jpg,random,right,Experiments/experiment_2/168.jpg,Experiments/experiment_2/169.jpg,Experiments/experiment_2/170.jpg,Experiments/experiment_2/171.jpg,719,1,2023-09-17_11h35.20.895,Occlusion_Psychophysics,2022.1.4,Win32,59.95203837,,,right,"[""left""]",[0.9570000000000505],False,,0.0,,0.0,42.0,42.0,42.0,1.0,,,,,
,,,,,,,,,,,,,,,,,,,,,0.05,,,,,,,,,,Stimuli/psy_flexible_rotation_30_objects_occ0.7_0.9s/images/train/n04379243_8/n02883344_-1/img_glass_table_woven_box_2011_gray.jpg,n04379243_8,n02883344_-1,flexible,0.735322,n02883344_-1,Stimuli/psy_flexible_rotation_30_objects_occ0.7_0.9s/images/train/n04379243_8/n02883344_-1/img_glass_table_woven_box_2011-3_gray.png,foreground,same as foreground,n04379243_8,n02883344_-1,Stimuli/canonical view 2/img_n04379243_8_gray.jpg,Stimuli/canonical view 2/img_n02883344_-1_gray.jpg,foreground,right,Experiments/experiment_2/172.jpg,Experiments/experiment_2/173.jpg,Experiments/experiment_2/174.jpg,Experiments/experiment_2/175.jpg,719,1,2023-09-17_11h35.20.895,Occlusion_Psychophysics,2022.1.4,Win32,59.95203837,,,left,"[""left""]",[0.7930000000000064],False,,0.0,,0.0,43.0,43.0,43.0,1.0,,,,,
,,,,,,,,,,,,,,,,,,,,,0.025,,,,,,,,,,Stimuli/psy_flexible_rotation_30_objects_occ0.7_0.9s/images/train/n02883344_15/n03928116_0/img_microwave_box_b02_piano_2000_gray.jpg,n02883344_15,n03928116_0,flexible,0.793994,n02933112_4,Stimuli/psy_flexible_rotation_30_objects_occ0.7_0.9s/images/train/n03001627_9/n02933112_4/img_chair_eames_plastic_armchair_buffet_2003-3_gray.png,random,flexible,n02883344_15,n03928116_0,Stimuli/canonical view 2/img_n02883344_15_gray.jpg,Stimuli/canonical view 2/img_n03928116_0_gray.jpg,foreground,right,Experiments/experiment_2/176.jpg,Experiments/experiment_2/177.jpg,Experiments/experiment_2/178.jpg,Experiments/experiment_2/179.jpg,719,1,2023-09-17_11h35.20.895,Occlusion_Psychophysics,2022.1.4,Win32,59.95203837,,,left,"[""left""]",[1.0400000000000205],False,,0.0,,0.0,44.0,44.0,44.0,1.0,,,,,
,,,,,,,,,,,,,,,,,,,,,0.05,,,,,,,,,,Stimuli/psy_flexible_rotation_30_objects_occ0.7_0.9s/images/train/n04379243_-7/n04256520_9/img_quatre_dining_table_napoleon_iii_sofa_2015_gray.jpg,n04379243_-7,n04256520_9,flexible,0.741797,n04256520_9,Stimuli/psy_flexible_rotation_30_objects_occ0.7_0.9s/images/train/n04379243_-7/n04256520_9/img_quatre_dining_table_napoleon_iii_sofa_2015-3_gray.png,foreground,same as foreground,n04379243_-7,n04405907_8,Stimuli/canonical view 2/img_n04379243_-7_gray.jpg,Stimuli/canonical view 2/img_n04405907_8_gray.jpg,random,right,Experiments/experiment_2/180.jpg,Experiments/experiment_2/181.jpg,Experiments/experiment_2/182.jpg,Experiments/experiment_2/183.jpg,719,1,2023-09-17_11h35.20.895,Occlusion_Psychophysics,2022.1.4,Win32,59.95203837,,,right,"[""right""]",[1.031000000000006],False,,0.0,,0.0,45.0,45.0,45.0,1.0,,,,,
,,,,,,,,,,,,,,,,,,,,,0.05,,,,,,,,,,Stimuli/psy_flexible_rotation_30_objects_occ0.7_0.9s/images/train/n04256520_4/n02818832_3/img_club_house_italia_nautilus_sofa_b05_ccm_contemporary_bed_max2013_2004_gray.jpg,n04256520_4,n02818832_3,flexible,0.828173,n04405907_9,Stimuli/psy_flexible_rotation_30_objects_occ0.7_0.9s/images/train/n02828884_3/n04405907_9/img_b04_wood_metal_park_bench_vray_004_2013-3_gray.png,random,flexible,n04256520_4,n02818832_3,Stimuli/canonical view 2/img_n04256520_4_gray.jpg,Stimuli/canonical view 2/img_n02818832_3_gray.jpg,foreground,left,Experiments/experiment_2/184.jpg,Experiments/experiment_2/185.jpg,Experiments/experiment_2/186.jpg,Experiments/experiment_2/187.jpg,719,1,2023-09-17_11h35.20.895,Occlusion_Psychophysics,2022.1.4,Win32,59.95203837,,,right,"[""left""]",[1.2129999999999654],False,,0.0,,0.0,46.0,46.0,46.0,1.0,,,,,
,,,,,,,,,,,,,,,,,,,,,0.05,,,,,,,,,,Stimuli/psy_fixed_rotation_30_objects_occ0.7_0.9s/images/train/n03928116_10/n04256520_5/img_ydp_103_r_2012__vray_meridiani_belmondo_bench_sofa_2009_gray.jpg,n03928116_10,n04256520_5,fixed,0.738078,n04256520_5,Stimuli/psy_fixed_rotation_30_objects_occ0.7_0.9s/images/train/n03928116_10/n04256520_5/img_ydp_103_r_2012__vray_meridiani_belmondo_bench_sofa_2009-3_gray.png,foreground,same as foreground,n03928116_10,n02818832_9,Stimuli/canonical view 2/img_n03928116_10_gray.jpg,Stimuli/canonical view 2/img_n02818832_9_gray.jpg,random,right,Experiments/experiment_2/188.jpg,Experiments/experiment_2/189.jpg,Experiments/experiment_2/190.jpg,Experiments/experiment_2/191.jpg,719,1,2023-09-17_11h35.20.895,Occlusion_Psychophysics,2022.1.4,Win32,59.95203837,,,left,"[""right""]",[1.8289999999999509],False,,0.0,,0.0,47.0,47.0,47.0,1.0,,,,,
,,,,,,,,,,,,,,,,,,,,,0.025,,,,,,,,,,Stimuli/psy_fixed_rotation_30_objects_occ0.7_0.9s/images/train/n02933112_-18/n04405907_8/img_cgaxis_models_48_26_vray_composite_stylized_tv_2009_gray.jpg,n02933112_-18,n04405907_8,fixed,0.839479,n02818832_3,Stimuli/psy_fixed_rotation_30_objects_occ0.7_0.9s/images/train/n02883344_-1/n02818832_3/img_woven_box_b05_ccm_contemporary_bed_max2013_2000-3_gray.png,random,fixed,n02933112_-18,n04405907_8,Stimuli/canonical view 2/img_n02933112_-18_gray.jpg,Stimuli/canonical view 2/img_n04405907_8_gray.jpg,foreground,right,Experiments/experiment_2/192.jpg,Experiments/experiment_2/193.jpg,Experiments/experiment_2/194.jpg,Experiments/experiment_2/195.jpg,719,1,2023-09-17_11h35.20.895,Occlusion_Psychophysics,2022.1.4,Win32,59.95203837,,,right,"[""right""]",[1.224999999999966],False,,0.0,,0.0,48.0,48.0,48.0,1.0,,,,,
,,,,,,,,,,,,,,,,,,,,,0.025,,,,,,,,,,Stimuli/psy_flexible_rotation_30_objects_occ0.7_0.9s/images/train/n02828884_3/n04256520_9/img_b04_wood_metal_park_bench_napoleon_iii_sofa_2010_gray.jpg,n02828884_3,n04256520_9,flexible,0.755232,n04379243_0,Stimuli/psy_fixed_rotation_30_objects_occ0.7_0.9s/images/train/n02818832_9/n04379243_0/img_bed01_blue_17th_c._monastery_dining_table_2010_2002-3_gray.png,random,fixed,n02828884_3,n02883344_0,Stimuli/canonical view 2/img_n02828884_3_gray.jpg,Stimuli/canonical view 2/img_n02883344_0_gray.jpg,random,left,Experiments/experiment_2/196.jpg,Experiments/experiment_2/197.jpg,Experiments/experiment_2/198.jpg,Experiments/experiment_2/199.jpg,719,1,2023-09-17_11h35.20.895,Occlusion_Psychophysics,2022.1.4,Win32,59.95203837,,,left,"[""left""]",[1.2059999999999604],False,,0.0,,0.0,49.0,49.0,49.0,1.0,,,,,
,,,,,,,,,,,,,,,,,,,,,0.05,,,,,,,,,,Stimuli/psy_flexible_rotation_30_objects_occ0.7_0.9s/images/train/n02818832_9/n02883344_15/img_bed01_blue_microwave_box_2009_gray.jpg,n02818832_9,n02883344_15,flexible,0.884597,n02883344_0,Stimuli/psy_fixed_rotation_30_objects_occ0.7_0.9s/images/train/n02883344_-1/n02883344_0/img_woven_box_b03_box_2014-3_gray.png,random,fixed,n02818832_9,n02883344_15,Stimuli/canonical view 2/img_n02818832_9_gray.jpg,Stimuli/canonical view 2/img_n02883344_15_gray.jpg,foreground,right,Experiments/experiment_2/200.jpg,Experiments/experiment_2/201.jpg,Experiments/experiment_2/202.jpg,Experiments/experiment_2/203.jpg,719,1,2023-09-17_11h35.20.895,Occlusion_Psychophysics,2022.1.4,Win32,59.95203837,,,right,"[""left""]",[1.2210000000000036],True,left,1.0,1.352,0.0,50.0,50.0,50.0,1.0,,,,,
,,,,,,,,,,,,,,,,,,,,,0.025,,,,,,,,,,Stimuli/psy_flexible_rotation_30_objects_occ0.7_0.9s/images/train/n02933112_-2/n02883344_-1/img_sink_base_white_wood_woven_box_2009_gray.jpg,n02933112_-2,n02883344_-1,flexible,0.837348,n02933112_-2,Stimuli/psy_flexible_rotation_30_objects_occ0.7_0.9s/images/train/n03001627_8/n02933112_-2/img_chair_billiani_doll_sink_base_white_wood_2009-3_gray.png,random,flexible,n02933112_-2,n03928116_0,Stimuli/canonical view 2/img_n02933112_-2_gray.jpg,Stimuli/canonical view 2/img_n03928116_0_gray.jpg,random,left,Experiments/experiment_2/204.jpg,Experiments/experiment_2/205.jpg,Experiments/experiment_2/206.jpg,Experiments/experiment_2/207.jpg,719,1,2023-09-17_11h35.20.895,Occlusion_Psychophysics,2022.1.4,Win32,59.95203837,,,right,"[""right""]",[1.2439999999999714],False,,0.0,,0.0,51.0,51.0,51.0,1.0,,,,,
,,,,,,,,,,,,,,,,,,,,,0.05,,,,,,,,,,Stimuli/psy_flexible_rotation_30_objects_occ0.7_0.9s/images/train/n02818832_9/n02883344_-1/img_bed01_blue_woven_box_2014_gray.jpg,n02818832_9,n02883344_-1,flexible,0.763115,n04405907_5,Stimuli/psy_flexible_rotation_30_objects_occ0.7_0.9s/images/train/n03928116_0/n04405907_5/img_b02_piano_samsung_40_uhd_smart_tv_2011_2012-3_gray.png,random,flexible,n02818832_9,n04379243_-7,Stimuli/canonical view 2/img_n02818832_9_gray.jpg,Stimuli/canonical view 2/img_n04379243_-7_gray.jpg,random,right,Experiments/experiment_2/208.jpg,Experiments/experiment_2/209.jpg,Experiments/experiment_2/210.jpg,Experiments/experiment_2/211.jpg,719,1,2023-09-17_11h35.20.895,Occlusion_Psychophysics,2022.1.4,Win32,59.95203837,,,left,"[""left""]",[1.4279999999999973],False,,0.0,,0.0,52.0,52.0,52.0,1.0,,,,,
,,,,,,,,,,,,,,,,,,,,,0.05,,,,,,,,,,Stimuli/psy_fixed_rotation_30_objects_occ0.7_0.9s/images/train/n04379243_0/n04405907_8/img_17th_c._monastery_dining_table_2010_stylized_tv_2013_gray.jpg,n04379243_0,n04405907_8,fixed,0.7794,n04405907_8,Stimuli/psy_fixed_rotation_30_objects_occ0.7_0.9s/images/train/n04379243_0/n04405907_8/img_17th_c._monastery_dining_table_2010_stylized_tv_2013-3_gray.png,foreground,same as foreground,n04379243_0,n04405907_8,Stimuli/canonical view 2/img_n04379243_0_gray.jpg,Stimuli/canonical view 2/img_n04405907_8_gray.jpg,foreground,left,Experiments/experiment_2/212.jpg,Experiments/experiment_2/213.jpg,Experiments/experiment_2/214.jpg,Experiments/experiment_2/215.jpg,719,1,2023-09-17_11h35.20.895,Occlusion_Psychophysics,2022.1.4,Win32,59.95203837,,,left,"[""left""]",[0.6749999999999545],False,,0.0,,0.0,53.0,53.0,53.0,1.0,,,,,
,,,,,,,,,,,,,,,,,,,,,0.025,,,,,,,,,,Stimuli/psy_flexible_rotation_30_objects_occ0.7_0.9s/images/train/n03928116_0/n02883344_15/img_b02_piano_microwave_box_2015_gray.jpg,n03928116_0,n02883344_15,flexible,0.736789,n02883344_15,Stimuli/psy_flexible_rotation_30_objects_occ0.7_0.9s/images/train/n03928116_0/n02883344_15/img_b02_piano_microwave_box_2015-3_gray.png,foreground,same as foreground,n03928116_0,n02883344_15,Stimuli/canonical view 2/img_n03928116_0_gray.jpg,Stimuli/canonical view 2/img_n02883344_15_gray.jpg,foreground,right,Experiments/experiment_2/216.jpg,Experiments/experiment_2/217.jpg,Experiments/experiment_2/218.jpg,Experiments/experiment_2/219.jpg,719,1,2023-09-17_11h35.20.895,Occlusion_Psychophysics,2022.1.4,Win32,59.95203837,,,left,"[""left""]",[0.8249999999999318],False,,0.0,,0.0,54.0,54.0,54.0,1.0,,,,,
,,,,,,,,,,,,,,,,,,,,,0.025,,,,,,,,,,Stimuli/psy_flexible_rotation_30_objects_occ0.7_0.9s/images/train/n04256520_5/n02818832_9/img_meridiani_belmondo_bench_sofa_bed01_blue_2013_gray.jpg,n04256520_5,n02818832_9,flexible,0.700035,n04405907_5,Stimuli/psy_fixed_rotation_30_objects_occ0.7_0.9s/images/train/n02883344_-1/n04405907_5/img_woven_box_samsung_40_uhd_smart_tv_2011_2003-3_gray.png,random,fixed,n04256520_5,n04405907_9,Stimuli/canonical view 2/img_n04256520_5_gray.jpg,Stimuli/canonical view 2/img_n04405907_9_gray.jpg,random,right,Experiments/experiment_2/220.jpg,Experiments/experiment_2/221.jpg,Experiments/experiment_2/222.jpg,Experiments/experiment_2/223.jpg,719,1,2023-09-17_11h35.20.895,Occlusion_Psychophysics,2022.1.4,Win32,59.95203837,,,right,"[""right""]",[1.2490000000000236],False,,0.0,,0.0,55.0,55.0,55.0,1.0,,,,,
,,,,,,,,,,,,,,,,,,,,,0.025,,,,,,,,,,Stimuli/psy_flexible_rotation_30_objects_occ0.7_0.9s/images/train/n02883344_15/n04405907_8/img_microwave_box_stylized_tv_2000_gray.jpg,n02883344_15,n04405907_8,flexible,0.737343,n04405907_8,Stimuli/psy_flexible_rotation_30_objects_occ0.7_0.9s/images/train/n02883344_15/n04405907_8/img_microwave_box_stylized_tv_2000-3_gray.png,foreground,same as foreground,n02883344_15,n04405907_8,Stimuli/canonical view 2/img_n02883344_15_gray.jpg,Stimuli/canonical view 2/img_n04405907_8_gray.jpg,foreground,left,Experiments/experiment_2/224.jpg,Experiments/experiment_2/225.jpg,Experiments/experiment_2/226.jpg,Experiments/experiment_2/227.jpg,719,1,2023-09-17_11h35.20.895,Occlusion_Psychophysics,2022.1.4,Win32,59.95203837,,,right,"[""right""]",[1.0049999999999955],False,,0.0,,0.0,56.0,56.0,56.0,1.0,,,,,
,,,,,,,,,,,,,,,,,,,,,0.025,,,,,,,,,,Stimuli/psy_flexible_rotation_30_objects_occ0.7_0.9s/images/train/n02883344_-1/n04379243_0/img_woven_box_17th_c._monastery_dining_table_2010_2011_gray.jpg,n02883344_-1,n04379243_0,flexible,0.859837,n04379243_0,Stimuli/psy_flexible_rotation_30_objects_occ0.7_0.9s/images/train/n02883344_-1/n04379243_0/img_woven_box_17th_c._monastery_dining_table_2010_2011-3_gray.png,foreground,same as foreground,n02883344_-1,n04379243_0,Stimuli/canonical view 2/img_n02883344_-1_gray.jpg,Stimuli/canonical view 2/img_n04379243_0_gray.jpg,foreground,right,Experiments/experiment_2/228.jpg,Experiments/experiment_2/229.jpg,Experiments/experiment_2/230.jpg,Experiments/experiment_2/231.jpg,719,1,2023-09-17_11h35.20.895,Occlusion_Psychophysics,2022.1.4,Win32,59.95203837,,,left,"[""left""]",[0.8220000000000027],False,,0.0,,0.0,57.0,57.0,57.0,1.0,,,,,
,,,,,,,,,,,,,,,,,,,,,0.05,,,,,,,,,,Stimuli/psy_fixed_rotation_30_objects_occ0.7_0.9s/images/train/n02883344_0/n04256520_4/img_b03_box_club_house_italia_nautilus_sofa_2012_gray.jpg,n02883344_0,n04256520_4,fixed,0.726584,n04405907_8,Stimuli/psy_flexible_rotation_30_objects_occ0.7_0.9s/images/train/n04070727_0/n04405907_8/img_b03_ka90ivi20r_2013__vray_stylized_tv_2007-3_gray.png,random,flexible,n02883344_0,n02818832_0,Stimuli/canonical view 2/img_n02883344_0_gray.jpg,Stimuli/canonical view 2/img_n02818832_0_gray.jpg,random,left,Experiments/experiment_2/232.jpg,Experiments/experiment_2/233.jpg,Experiments/experiment_2/234.jpg,Experiments/experiment_2/235.jpg,719,1,2023-09-17_11h35.20.895,Occlusion_Psychophysics,2022.1.4,Win32,59.95203837,,,left,"[""left""]",[1.01400000000001],True,left,1.0,1.034,0.0,58.0,58.0,58.0,1.0,,,,,
,,,,,,,,,,,,,,,,,,,,,0.025,,,,,,,,,,Stimuli/psy_flexible_rotation_30_objects_occ0.7_0.9s/images/train/n03001627_9/n04405907_8/img_chair_eames_plastic_armchair_stylized_tv_2001_gray.jpg,n03001627_9,n04405907_8,flexible,0.888978,n04405907_8,Stimuli/psy_flexible_rotation_30_objects_occ0.7_0.9s/images/train/n03001627_9/n04405907_8/img_chair_eames_plastic_armchair_stylized_tv_2001-3_gray.png,foreground,same as foreground,n03001627_9,n03928116_4,Stimuli/canonical view 2/img_n03001627_9_gray.jpg,Stimuli/canonical view 2/img_n03928116_4_gray.jpg,random,left,Experiments/experiment_2/236.jpg,Experiments/experiment_2/237.jpg,Experiments/experiment_2/238.jpg,Experiments/experiment_2/239.jpg,719,1,2023-09-17_11h35.20.895,Occlusion_Psychophysics,2022.1.4,Win32,59.95203837,,,left,"[""left""]",[0.7970000000000255],False,,0.0,,0.0,59.0,59.0,59.0,1.0,,,,,
,,,,,,,,,,,,,,,,,,,,,0.025,,,,,,,,,,Stimuli/psy_fixed_rotation_30_objects_occ0.7_0.9s/images/train/n02818832_9/n02933112_-2/img_bed01_blue_sink_base_white_wood_2001_gray.jpg,n02818832_9,n02933112_-2,fixed,0.896566,n02933112_-2,Stimuli/psy_fixed_rotation_30_objects_occ0.7_0.9s/images/train/n02818832_9/n02933112_-2/img_bed01_blue_sink_base_white_wood_2001-3_gray.png,foreground,same as foreground,n02818832_9,n03928116_4,Stimuli/canonical view 2/img_n02818832_9_gray.jpg,Stimuli/canonical view 2/img_n03928116_4_gray.jpg,random,left,Experiments/experiment_2/240.jpg,Experiments/experiment_2/241.jpg,Experiments/experiment_2/242.jpg,Experiments/experiment_2/243.jpg,719,1,2023-09-17_11h35.20.895,Occlusion_Psychophysics,2022.1.4,Win32,59.95203837,,,right,"[""left""]",[1.3430000000000746],False,,0.0,,0.0,60.0,60.0,60.0,1.0,,,,,
,,,,,,,,,,,,,,,,,,,,,0.05,,,,,,,,,,Stimuli/psy_fixed_rotation_30_objects_occ0.7_0.9s/images/train/n04256520_4/n02933112_-2/img_club_house_italia_nautilus_sofa_sink_base_white_wood_2014_gray.jpg,n04256520_4,n02933112_-2,fixed,0.872421,n02933112_-2,Stimuli/psy_fixed_rotation_30_objects_occ0.7_0.9s/images/train/n04256520_4/n02933112_-2/img_club_house_italia_nautilus_sofa_sink_base_white_wood_2014-3_gray.png,foreground,same as foreground,n04256520_4,n02933112_4,Stimuli/canonical view 2/img_n04256520_4_gray.jpg,Stimuli/canonical view 2/img_n02933112_4_gray.jpg,random,right,Experiments/experiment_2/244.jpg,Experiments/experiment_2/245.jpg,Experiments/experiment_2/246.jpg,Experiments/experiment_2/247.jpg,719,1,2023-09-17_11h35.20.895,Occlusion_Psychophysics,2022.1.4,Win32,59.95203837,,,right,"[""right""]",[0.9120000000000346],False,,0.0,,0.0,61.0,61.0,61.0,1.0,,,,,
,,,,,,,,,,,,,,,,,,,,,0.025,,,,,,,,,,Stimuli/psy_flexible_rotation_30_objects_occ0.7_0.9s/images/train/n04405907_9/n02883344_-1/img_vray_004_woven_box_2002_gray.jpg,n04405907_9,n02883344_-1,flexible,0.741765,n04256520_9,Stimuli/psy_fixed_rotation_30_objects_occ0.7_0.9s/images/train/n02828884_4/n04256520_9/img_b05_c-5_classic_series_bench-2012_napoleon_iii_sofa_2012-3_gray.png,random,fixed,n04405907_9,n04405907_8,Stimuli/canonical view 2/img_n04405907_9_gray.jpg,Stimuli/canonical view 2/img_n04405907_8_gray.jpg,random,right,Experiments/experiment_2/248.jpg,Experiments/experiment_2/249.jpg,Experiments/experiment_2/250.jpg,Experiments/experiment_2/251.jpg,719,1,2023-09-17_11h35.20.895,Occlusion_Psychophysics,2022.1.4,Win32,59.95203837,,,right,"[""right""]",[0.8240000000000691],False,,0.0,,0.0,62.0,62.0,62.0,1.0,,,,,
,,,,,,,,,,,,,,,,,,,,,0.05,,,,,,,,,,Stimuli/psy_flexible_rotation_30_objects_occ0.7_0.9s/images/train/n04379243_0/n04405907_8/img_17th_c._monastery_dining_table_2010_stylized_tv_2003_gray.jpg,n04379243_0,n04405907_8,flexible,0.893862,n04256520_9,Stimuli/psy_flexible_rotation_30_objects_occ0.7_0.9s/images/train/n04405907_9/n04256520_9/img_vray_004_napoleon_iii_sofa_2007-3_gray.png,random,flexible,n04379243_0,n04405907_8,Stimuli/canonical view 2/img_n04379243_0_gray.jpg,Stimuli/canonical view 2/img_n04405907_8_gray.jpg,foreground,right,Experiments/experiment_2/252.jpg,Experiments/experiment_2/253.jpg,Experiments/experiment_2/254.jpg,Experiments/experiment_2/255.jpg,719,1,2023-09-17_11h35.20.895,Occlusion_Psychophysics,2022.1.4,Win32,59.95203837,,,left,"[""right""]",[1.3129999999999882],False,,0.0,,0.0,63.0,63.0,63.0,1.0,,,,,
,,,,,,,,,,,,,,,,,,,,,0.025,,,,,,,,,,Stimuli/psy_flexible_rotation_30_objects_occ0.7_0.9s/images/train/n02818832_0/n04405907_8/img_b03_the_sofa_and_chair_company_-_stanley_bed_2014_stylized_tv_2011_gray.jpg,n02818832_0,n04405907_8,flexible,0.756106,n04379243_-7,Stimuli/psy_flexible_rotation_30_objects_occ0.7_0.9s/images/train/n04070727_5/n04379243_-7/img_b05_db_apps_tech_06_13_composite_quatre_dining_table_2013-3_gray.png,random,flexible,n02818832_0,n03001627_8,Stimuli/canonical view 2/img_n02818832_0_gray.jpg,Stimuli/canonical view 2/img_n03001627_8_gray.jpg,random,right,Experiments/experiment_2/256.jpg,Experiments/experiment_2/257.jpg,Experiments/experiment_2/258.jpg,Experiments/experiment_2/259.jpg,719,1,2023-09-17_11h35.20.895,Occlusion_Psychophysics,2022.1.4,Win32,59.95203837,,,right,"[""right""]",[1.2630000000000337],False,,0.0,,0.0,64.0,64.0,64.0,1.0,,,,,
,,,,,,,,,,,,,,,,,,,,,0.025,,,,,,,,,,Stimuli/psy_flexible_rotation_30_objects_occ0.7_0.9s/images/train/n02883344_-1/n03928116_0/img_woven_box_b02_piano_2001_gray.jpg,n02883344_-1,n03928116_0,flexible,0.710277,n02933112_-18,Stimuli/psy_fixed_rotation_30_objects_occ0.7_0.9s/images/train/n02818832_9/n02933112_-18/img_bed01_blue_cgaxis_models_48_26_vray_composite_2001-3_gray.png,random,fixed,n02883344_-1,n02883344_0,Stimuli/canonical view 2/img_n02883344_-1_gray.jpg,Stimuli/canonical view 2/img_n02883344_0_gray.jpg,random,left,Experiments/experiment_2/260.jpg,Experiments/experiment_2/261.jpg,Experiments/experiment_2/262.jpg,Experiments/experiment_2/263.jpg,719,1,2023-09-17_11h35.20.895,Occlusion_Psychophysics,2022.1.4,Win32,59.95203837,,,left,"[""left""]",[0.9209999999999354],False,,0.0,,0.0,65.0,65.0,65.0,1.0,,,,,
,,,,,,,,,,,,,,,,,,,,,0.025,,,,,,,,,,Stimuli/psy_fixed_rotation_30_objects_occ0.7_0.9s/images/train/n02818832_0/n02933112_4/img_b03_the_sofa_and_chair_company_-_stanley_bed_2014_buffet_2002_gray.jpg,n02818832_0,n02933112_4,fixed,0.780205,n02933112_4,Stimuli/psy_fixed_rotation_30_objects_occ0.7_0.9s/images/train/n02818832_0/n02933112_4/img_b03_the_sofa_and_chair_company_-_stanley_bed_2014_buffet_2002-3_gray.png,foreground,same as foreground,n02818832_0,n03928116_4,Stimuli/canonical view 2/img_n02818832_0_gray.jpg,Stimuli/canonical view 2/img_n03928116_4_gray.jpg,random,left,Experiments/experiment_2/264.jpg,Experiments/experiment_2/265.jpg,Experiments/experiment_2/266.jpg,Experiments/experiment_2/267.jpg,719,1,2023-09-17_11h35.20.895,Occlusion_Psychophysics,2022.1.4,Win32,59.95203837,,,left,"[""left""]",[1.1879999999999882],False,,0.0,,0.0,66.0,66.0,66.0,1.0,,,,,
,,,,,,,,,,,,,,,,,,,,,0.025,,,,,,,,,,Stimuli/psy_flexible_rotation_30_objects_occ0.7_0.9s/images/train/n03928116_0/n04379243_-7/img_b02_piano_quatre_dining_table_2006_gray.jpg,n03928116_0,n04379243_-7,flexible,0.789764,n02883344_15,Stimuli/psy_fixed_rotation_30_objects_occ0.7_0.9s/images/train/n03001627_9/n02883344_15/img_chair_eames_plastic_armchair_microwave_box_2007-3_gray.png,random,fixed,n03928116_0,n04379243_-7,Stimuli/canonical view 2/img_n03928116_0_gray.jpg,Stimuli/canonical view 2/img_n04379243_-7_gray.jpg,foreground,right,Experiments/experiment_2/268.jpg,Experiments/experiment_2/269.jpg,Experiments/experiment_2/270.jpg,Experiments/experiment_2/271.jpg,719,1,2023-09-17_11h35.20.895,Occlusion_Psychophysics,2022.1.4,Win32,59.95203837,,,left,"[""left""]",[1.3460000000000036],False,,0.0,,0.0,67.0,67.0,67.0,1.0,,,,,
,,,,,,,,,,,,,,,,,,,,,0.025,,,,,,,,,,Stimuli/psy_flexible_rotation_30_objects_occ0.7_0.9s/images/train/n02883344_15/n04405907_8/img_microwave_box_stylized_tv_2015_gray.jpg,n02883344_15,n04405907_8,flexible,0.838467,n02818832_0,Stimuli/psy_fixed_rotation_30_objects_occ0.7_0.9s/images/train/n02828884_3/n02818832_0/img_b04_wood_metal_park_bench_b03_the_sofa_and_chair_company_-_stanley_bed_2014_2003-3_gray.png,random,fixed,n02883344_15,n04405907_8,Stimuli/canonical view 2/img_n02883344_15_gray.jpg,Stimuli/canonical view 2/img_n04405907_8_gray.jpg,foreground,left,Experiments/experiment_2/272.jpg,Experiments/experiment_2/273.jpg,Experiments/experiment_2/274.jpg,Experiments/experiment_2/275.jpg,719,1,2023-09-17_11h35.20.895,Occlusion_Psychophysics,2022.1.4,Win32,59.95203837,,,left,"[""left""]",[1.08299999999997],False,,0.0,,0.0,68.0,68.0,68.0,1.0,,,,,
,,,,,,,,,,,,,,,,,,,,,0.025,,,,,,,,,,Stimuli/psy_fixed_rotation_30_objects_occ0.7_0.9s/images/train/n02933112_-18/n04405907_5/img_cgaxis_models_48_26_vray_composite_samsung_40_uhd_smart_tv_2011_2005_gray.jpg,n02933112_-18,n04405907_5,fixed,0.729717,n04405907_5,Stimuli/psy_fixed_rotation_30_objects_occ0.7_0.9s/images/train/n02933112_-18/n04405907_5/img_cgaxis_models_48_26_vray_composite_samsung_40_uhd_smart_tv_2011_2005-3_gray.png,foreground,same as foreground,n02933112_-18,n02818832_3,Stimuli/canonical view 2/img_n02933112_-18_gray.jpg,Stimuli/canonical view 2/img_n02818832_3_gray.jpg,random,right,Experiments/experiment_2/276.jpg,Experiments/experiment_2/277.jpg,Experiments/experiment_2/278.jpg,Experiments/experiment_2/279.jpg,719,1,2023-09-17_11h35.20.895,Occlusion_Psychophysics,2022.1.4,Win32,59.95203837,,,right,"[""right""]",[1.3220000000000027],True,left,1.0,1.101,0.0,69.0,69.0,69.0,1.0,,,,,
,,,,,,,,,,,,,,,,,,,,,0.025,,,,,,,,,,Stimuli/psy_flexible_rotation_30_objects_occ0.7_0.9s/images/train/n04405907_5/n02828884_3/img_samsung_40_uhd_smart_tv_2011_b04_wood_metal_park_bench_2009_gray.jpg,n04405907_5,n02828884_3,flexible,0.768906,n02883344_15,Stimuli/psy_fixed_rotation_30_objects_occ0.7_0.9s/images/train/n02933112_-2/n02883344_15/img_sink_base_white_wood_microwave_box_2000-3_gray.png,random,fixed,n04405907_5,n02828884_3,Stimuli/canonical view 2/img_n04405907_5_gray.jpg,Stimuli/canonical view 2/img_n02828884_3_gray.jpg,foreground,right,Experiments/experiment_2/280.jpg,Experiments/experiment_2/281.jpg,Experiments/experiment_2/282.jpg,Experiments/experiment_2/283.jpg,719,1,2023-09-17_11h35.20.895,Occlusion_Psychophysics,2022.1.4,Win32,59.95203837,,,right,"[""right""]",[1.5249999999999773],False,,0.0,,0.0,70.0,70.0,70.0,1.0,,,,,
,,,,,,,,,,,,,,,,,,,,,0.025,,,,,,,,,,Stimuli/psy_fixed_rotation_30_objects_occ0.7_0.9s/images/train/n02828884_3/n02933112_-18/img_b04_wood_metal_park_bench_cgaxis_models_48_26_vray_composite_2003_gray.jpg,n02828884_3,n02933112_-18,fixed,0.776795,n02933112_-18,Stimuli/psy_fixed_rotation_30_objects_occ0.7_0.9s/images/train/n02828884_3/n02933112_-18/img_b04_wood_metal_park_bench_cgaxis_models_48_26_vray_composite_2003-3_gray.png,foreground,same as foreground,n02828884_3,n02933112_-18,Stimuli/canonical view 2/img_n02828884_3_gray.jpg,Stimuli/canonical view 2/img_n02933112_-18_gray.jpg,foreground,right,Experiments/experiment_2/284.jpg,Experiments/experiment_2/285.jpg,Experiments/experiment_2/286.jpg,Experiments/experiment_2/287.jpg,719,1,2023-09-17_11h35.20.895,Occlusion_Psychophysics,2022.1.4,Win32,59.95203837,,,left,"[""left""]",[0.9759999999999991],False,,0.0,,0.0,71.0,71.0,71.0,1.0,,,,,
,,,,,,,,,,,,,,,,,,,,,0.025,,,,,,,,,,Stimuli/psy_flexible_rotation_30_objects_occ0.7_0.9s/images/train/n02818832_3/n02818832_0/img_b05_ccm_contemporary_bed_max2013_b03_the_sofa_and_chair_company_-_stanley_bed_2014_2011_gray.jpg,n02818832_3,n02818832_0,flexible,0.703963,n02818832_0,Stimuli/psy_flexible_rotation_30_objects_occ0.7_0.9s/images/train/n02818832_3/n02818832_0/img_b05_ccm_contemporary_bed_max2013_b03_the_sofa_and_chair_company_-_stanley_bed_2014_2011-3_gray.png,foreground,same as foreground,n02818832_3,n02933112_-2,Stimuli/canonical view 2/img_n02818832_3_gray.jpg,Stimuli/canonical view 2/img_n02933112_-2_gray.jpg,random,left,Experiments/experiment_2/288.jpg,Experiments/experiment_2/289.jpg,Experiments/experiment_2/290.jpg,Experiments/experiment_2/291.jpg,719,1,2023-09-17_11h35.20.895,Occlusion_Psychophysics,2022.1.4,Win32,59.95203837,,,left,"[""left""]",[0.91599999999994],False,,0.0,,0.0,72.0,72.0,72.0,1.0,,,,,
,,,,,,,,,,,,,,,,,,,,,0.025,,,,,,,,,,Stimuli/psy_fixed_rotation_30_objects_occ0.7_0.9s/images/train/n04256520_9/n02818832_3/img_napoleon_iii_sofa_b05_ccm_contemporary_bed_max2013_2001_gray.jpg,n04256520_9,n02818832_3,fixed,0.738576,n02818832_3,Stimuli/psy_fixed_rotation_30_objects_occ0.7_0.9s/images/train/n04256520_9/n02818832_3/img_napoleon_iii_sofa_b05_ccm_contemporary_bed_max2013_2001-3_gray.png,foreground,same as foreground,n04256520_9,n02818832_3,Stimuli/canonical view 2/img_n04256520_9_gray.jpg,Stimuli/canonical view 2/img_n02818832_3_gray.jpg,foreground,right,Experiments/experiment_2/292.jpg,Experiments/experiment_2/293.jpg,Experiments/experiment_2/294.jpg,Experiments/experiment_2/295.jpg,719,1,2023-09-17_11h35.20.895,Occlusion_Psychophysics,2022.1.4,Win32,59.95203837,,,left,"[""left""]",[1.0950000000000273],False,,0.0,,0.0,73.0,73.0,73.0,1.0,,,,,
,,,,,,,,,,,,,,,,,,,,,0.025,,,,,,,,,,Stimuli/psy_fixed_rotation_30_objects_occ0.7_0.9s/images/train/n02883344_0/n02818832_9/img_b03_box_bed01_blue_2005_gray.jpg,n02883344_0,n02818832_9,fixed,0.84197,n02883344_15,Stimuli/psy_fixed_rotation_30_objects_occ0.7_0.9s/images/train/n04379243_8/n02883344_15/img_glass_table_microwave_box_2005-3_gray.png,random,fixed,n02883344_0,n02818832_9,Stimuli/canonical view 2/img_n02883344_0_gray.jpg,Stimuli/canonical view 2/img_n02818832_9_gray.jpg,foreground,right,Experiments/experiment_2/296.jpg,Experiments/experiment_2/297.jpg,Experiments/experiment_2/298.jpg,Experiments/experiment_2/299.jpg,719,1,2023-09-17_11h35.20.895,Occlusion_Psychophysics,2022.1.4,Win32,59.95203837,,,left,"[""left""]",[1.9660000000000082],False,,0.0,,0.0,74.0,74.0,74.0,1.0,,,,,
,,,,,,,,,,,,,,,,,,,,,0.025,,,,,,,,,,Stimuli/psy_fixed_rotation_30_objects_occ0.7_0.9s/images/train/n02933112_4/n02933112_-2/img_buffet_sink_base_white_wood_2008_gray.jpg,n02933112_4,n02933112_-2,fixed,0.797115,n04379243_-7,Stimuli/psy_fixed_rotation_30_objects_occ0.7_0.9s/images/train/n03928116_0/n04379243_-7/img_b02_piano_quatre_dining_table_2008-3_gray.png,random,fixed,n02933112_4,n02933112_-2,Stimuli/canonical view 2/img_n02933112_4_gray.jpg,Stimuli/canonical view 2/img_n02933112_-2_gray.jpg,foreground,left,Experiments/experiment_2/300.jpg,Experiments/experiment_2/301.jpg,Experiments/experiment_2/302.jpg,Experiments/experiment_2/303.jpg,719,1,2023-09-17_11h35.20.895,Occlusion_Psychophysics,2022.1.4,Win32,59.95203837,,,right,"[""left""]",[1.1870000000000118],False,,0.0,,0.0,75.0,75.0,75.0,1.0,,,,,
,,,,,,,,,,,,,,,,,,,,,0.05,,,,,,,,,,Stimuli/psy_fixed_rotation_30_objects_occ0.7_0.9s/images/train/n04405907_9/n04405907_8/img_vray_004_stylized_tv_2003_gray.jpg,n04405907_9,n04405907_8,fixed,0.732239,n03928116_0,Stimuli/psy_fixed_rotation_30_objects_occ0.7_0.9s/images/train/n03928116_10/n03928116_0/img_ydp_103_r_2012__vray_b02_piano_2007-3_gray.png,random,fixed,n04405907_9,n04405907_8,Stimuli/canonical view 2/img_n04405907_9_gray.jpg,Stimuli/canonical view 2/img_n04405907_8_gray.jpg,foreground,left,Experiments/experiment_2/304.jpg,Experiments/experiment_2/305.jpg,Experiments/experiment_2/306.jpg,Experiments/experiment_2/307.jpg,719,1,2023-09-17_11h35.20.895,Occlusion_Psychophysics,2022.1.4,Win32,59.95203837,,,right,"[""right""]",[1.2239999999999327],True,left,1.0,0.968,0.0,76.0,76.0,76.0,1.0,,,,,
,,,,,,,,,,,,,,,,,,,,,0.05,,,,,,,,,,Stimuli/psy_fixed_rotation_30_objects_occ0.7_0.9s/images/train/n04256520_5/n04256520_4/img_meridiani_belmondo_bench_sofa_club_house_italia_nautilus_sofa_2015_gray.jpg,n04256520_5,n04256520_4,fixed,0.815825,n02828884_3,Stimuli/psy_fixed_rotation_30_objects_occ0.7_0.9s/images/train/n02818832_9/n02828884_3/img_bed01_blue_b04_wood_metal_park_bench_2003-3_gray.png,random,fixed,n04256520_5,n02828884_4,Stimuli/canonical view 2/img_n04256520_5_gray.jpg,Stimuli/canonical view 2/img_n02828884_4_gray.jpg,random,left,Experiments/experiment_2/308.jpg,Experiments/experiment_2/309.jpg,Experiments/experiment_2/310.jpg,Experiments/experiment_2/311.jpg,719,1,2023-09-17_11h35.20.895,Occlusion_Psychophysics,2022.1.4,Win32,59.95203837,,,right,"[""left""]",[1.4420000000000073],False,,0.0,,0.0,77.0,77.0,77.0,1.0,,,,,
,,,,,,,,,,,,,,,,,,,,,0.025,,,,,,,,,,Stimuli/psy_flexible_rotation_30_objects_occ0.7_0.9s/images/train/n04256520_9/n02933112_4/img_napoleon_iii_sofa_buffet_2014_gray.jpg,n04256520_9,n02933112_4,flexible,0.718642,n04405907_5,Stimuli/psy_fixed_rotation_30_objects_occ0.7_0.9s/images/train/n04256520_4/n04405907_5/img_club_house_italia_nautilus_sofa_samsung_40_uhd_smart_tv_2011_2005-3_gray.png,random,fixed,n04256520_9,n02883344_15,Stimuli/canonical view 2/img_n04256520_9_gray.jpg,Stimuli/canonical view 2/img_n02883344_15_gray.jpg,random,right,Experiments/experiment_2/312.jpg,Experiments/experiment_2/313.jpg,Experiments/experiment_2/314.jpg,Experiments/experiment_2/315.jpg,719,1,2023-09-17_11h35.20.895,Occlusion_Psychophysics,2022.1.4,Win32,59.95203837,,,left,"[""left""]",[1.2089999999999463],False,,0.0,,0.0,78.0,78.0,78.0,1.0,,,,,
,,,,,,,,,,,,,,,,,,,,,0.05,,,,,,,,,,Stimuli/psy_fixed_rotation_30_objects_occ0.7_0.9s/images/train/n02933112_-18/n04405907_9/img_cgaxis_models_48_26_vray_composite_vray_004_2000_gray.jpg,n02933112_-18,n04405907_9,fixed,0.756977,n04405907_9,Stimuli/psy_fixed_rotation_30_objects_occ0.7_0.9s/images/train/n02933112_-18/n04405907_9/img_cgaxis_models_48_26_vray_composite_vray_004_2000-3_gray.png,foreground,same as foreground,n02933112_-18,n03928116_0,Stimuli/canonical view 2/img_n02933112_-18_gray.jpg,Stimuli/canonical view 2/img_n03928116_0_gray.jpg,random,left,Experiments/experiment_2/316.jpg,Experiments/experiment_2/317.jpg,Experiments/experiment_2/318.jpg,Experiments/experiment_2/319.jpg,719,1,2023-09-17_11h35.20.895,Occlusion_Psychophysics,2022.1.4,Win32,59.95203837,,,right,"[""right""]",[1.106999999999971],False,,0.0,,0.0,79.0,79.0,79.0,1.0,,,,,
,,,,,,,,,,,,,,,,,,,,,0.025,,,,,,,,,,Stimuli/psy_flexible_rotation_30_objects_occ0.7_0.9s/images/train/n02828884_3/n02883344_15/img_b04_wood_metal_park_bench_microwave_box_2010_gray.jpg,n02828884_3,n02883344_15,flexible,0.715882,n02883344_-1,Stimuli/psy_fixed_rotation_30_objects_occ0.7_0.9s/images/train/n04379243_8/n02883344_-1/img_glass_table_woven_box_2015-3_gray.png,random,fixed,n02828884_3,n02883344_15,Stimuli/canonical view 2/img_n02828884_3_gray.jpg,Stimuli/canonical view 2/img_n02883344_15_gray.jpg,foreground,right,Experiments/experiment_2/320.jpg,Experiments/experiment_2/321.jpg,Experiments/experiment_2/322.jpg,Experiments/experiment_2/323.jpg,719,1,2023-09-17_11h35.20.895,Occlusion_Psychophysics,2022.1.4,Win32,59.95203837,,,left,"[""left""]",[0.7959999999999354],False,,0.0,,0.0,80.0,80.0,80.0,1.0,,,,,
,,,,,,,,,,,,,,,,,,,,,0.025,,,,,,,,,,Stimuli/psy_flexible_rotation_30_objects_occ0.7_0.9s/images/train/n03001627_9/n02933112_4/img_chair_eames_plastic_armchair_buffet_2000_gray.jpg,n03001627_9,n02933112_4,flexible,0.729382,n04379243_8,Stimuli/psy_fixed_rotation_30_objects_occ0.7_0.9s/images/train/n04405907_9/n04379243_8/img_vray_004_glass_table_2010-3_gray.png,random,fixed,n03001627_9,n02933112_4,Stimuli/canonical view 2/img_n03001627_9_gray.jpg,Stimuli/canonical view 2/img_n02933112_4_gray.jpg,foreground,right,Experiments/experiment_2/324.jpg,Experiments/experiment_2/325.jpg,Experiments/experiment_2/326.jpg,Experiments/experiment_2/327.jpg,719,1,2023-09-17_11h35.20.895,Occlusion_Psychophysics,2022.1.4,Win32,59.95203837,,,left,"[""right""]",[1.1730000000000018],False,,0.0,,0.0,81.0,81.0,81.0,1.0,,,,,
,,,,,,,,,,,,,,,,,,,,,0.05,,,,,,,,,,Stimuli/psy_flexible_rotation_30_objects_occ0.7_0.9s/images/train/n04405907_5/n02883344_0/img_samsung_40_uhd_smart_tv_2011_b03_box_2012_gray.jpg,n04405907_5,n02883344_0,flexible,0.75188,n02883344_0,Stimuli/psy_flexible_rotation_30_objects_occ0.7_0.9s/images/train/n04405907_5/n02883344_0/img_samsung_40_uhd_smart_tv_2011_b03_box_2012-3_gray.png,foreground,same as foreground,n04405907_5,n04256520_9,Stimuli/canonical view 2/img_n04405907_5_gray.jpg,Stimuli/canonical view 2/img_n04256520_9_gray.jpg,random,right,Experiments/experiment_2/328.jpg,Experiments/experiment_2/329.jpg,Experiments/experiment_2/330.jpg,Experiments/experiment_2/331.jpg,719,1,2023-09-17_11h35.20.895,Occlusion_Psychophysics,2022.1.4,Win32,59.95203837,,,left,"[""left""]",[0.7580000000000382],False,,0.0,,0.0,82.0,82.0,82.0,1.0,,,,,
,,,,,,,,,,,,,,,,,,,,,0.025,,,,,,,,,,Stimuli/psy_flexible_rotation_30_objects_occ0.7_0.9s/images/train/n03928116_10/n04379243_-7/img_ydp_103_r_2012__vray_quatre_dining_table_2015_gray.jpg,n03928116_10,n04379243_-7,flexible,0.727156,n04379243_-7,Stimuli/psy_flexible_rotation_30_objects_occ0.7_0.9s/images/train/n03928116_10/n04379243_-7/img_ydp_103_r_2012__vray_quatre_dining_table_2015-3_gray.png,foreground,same as foreground,n03928116_10,n02828884_3,Stimuli/canonical view 2/img_n03928116_10_gray.jpg,Stimuli/canonical view 2/img_n02828884_3_gray.jpg,random,left,Experiments/experiment_2/332.jpg,Experiments/experiment_2/333.jpg,Experiments/experiment_2/334.jpg,Experiments/experiment_2/335.jpg,719,1,2023-09-17_11h35.20.895,Occlusion_Psychophysics,2022.1.4,Win32,59.95203837,,,right,"[""right""]",[1.4580000000000837],False,,0.0,,0.0,83.0,83.0,83.0,1.0,,,,,
,,,,,,,,,,,,,,,,,,,,,0.05,,,,,,,,,,Stimuli/psy_fixed_rotation_30_objects_occ0.7_0.9s/images/train/n03928116_0/n02883344_15/img_b02_piano_microwave_box_2002_gray.jpg,n03928116_0,n02883344_15,fixed,0.720586,n04379243_8,Stimuli/psy_fixed_rotation_30_objects_occ0.7_0.9s/images/train/n02818832_9/n04379243_8/img_bed01_blue_glass_table_2012-3_gray.png,random,fixed,n03928116_0,n02883344_15,Stimuli/canonical view 2/img_n03928116_0_gray.jpg,Stimuli/canonical view 2/img_n02883344_15_gray.jpg,foreground,left,Experiments/experiment_2/336.jpg,Experiments/experiment_2/337.jpg,Experiments/experiment_2/338.jpg,Experiments/experiment_2/339.jpg,719,1,2023-09-17_11h35.20.895,Occlusion_Psychophysics,2022.1.4,Win32,59.95203837,,,right,"[""right""]",[0.94399999999996],False,,0.0,,0.0,84.0,84.0,84.0,1.0,,,,,
,,,,,,,,,,,,,,,,,,,,,0.05,,,,,,,,,,Stimuli/psy_flexible_rotation_30_objects_occ0.7_0.9s/images/train/n02818832_0/n02883344_-1/img_b03_the_sofa_and_chair_company_-_stanley_bed_2014_woven_box_2012_gray.jpg,n02818832_0,n02883344_-1,flexible,0.795707,n04379243_-7,Stimuli/psy_flexible_rotation_30_objects_occ0.7_0.9s/images/train/n04256520_9/n04379243_-7/img_napoleon_iii_sofa_quatre_dining_table_2013-3_gray.png,random,flexible,n02818832_0,n02818832_3,Stimuli/canonical view 2/img_n02818832_0_gray.jpg,Stimuli/canonical view 2/img_n02818832_3_gray.jpg,random,left,Experiments/experiment_2/340.jpg,Experiments/experiment_2/341.jpg,Experiments/experiment_2/342.jpg,Experiments/experiment_2/343.jpg,719,1,2023-09-17_11h35.20.895,Occlusion_Psychophysics,2022.1.4,Win32,59.95203837,,,right,"[""right""]",[1.2559999999999718],False,,0.0,,0.0,85.0,85.0,85.0,1.0,,,,,
,,,,,,,,,,,,,,,,,,,,,0.05,,,,,,,,,,Stimuli/psy_fixed_rotation_30_objects_occ0.7_0.9s/images/train/n04379243_-7/n02883344_-1/img_quatre_dining_table_woven_box_2006_gray.jpg,n04379243_-7,n02883344_-1,fixed,0.847952,n04256520_5,Stimuli/psy_flexible_rotation_30_objects_occ0.7_0.9s/images/train/n04379243_-7/n04256520_5/img_quatre_dining_table_meridiani_belmondo_bench_sofa_2005-3_gray.png,random,flexible,n04379243_-7,n04379243_0,Stimuli/canonical view 2/img_n04379243_-7_gray.jpg,Stimuli/canonical view 2/img_n04379243_0_gray.jpg,random,right,Experiments/experiment_2/344.jpg,Experiments/experiment_2/345.jpg,Experiments/experiment_2/346.jpg,Experiments/experiment_2/347.jpg,719,1,2023-09-17_11h35.20.895,Occlusion_Psychophysics,2022.1.4,Win32,59.95203837,,,left,"[""right""]",[1.0769999999999982],False,,0.0,,0.0,86.0,86.0,86.0,1.0,,,,,
,,,,,,,,,,,,,,,,,,,,,0.05,,,,,,,,,,Stimuli/psy_flexible_rotation_30_objects_occ0.7_0.9s/images/train/n04405907_8/n02818832_9/img_stylized_tv_bed01_blue_2003_gray.jpg,n04405907_8,n02818832_9,flexible,0.760462,n02818832_9,Stimuli/psy_flexible_rotation_30_objects_occ0.7_0.9s/images/train/n04405907_8/n02818832_9/img_stylized_tv_bed01_blue_2003-3_gray.png,foreground,same as foreground,n04405907_8,n04256520_9,Stimuli/canonical view 2/img_n04405907_8_gray.jpg,Stimuli/canonical view 2/img_n04256520_9_gray.jpg,random,right,Experiments/experiment_2/348.jpg,Experiments/experiment_2/349.jpg,Experiments/experiment_2/350.jpg,Experiments/experiment_2/351.jpg,719,1,2023-09-17_11h35.20.895,Occlusion_Psychophysics,2022.1.4,Win32,59.95203837,,,left,"[""right""]",[1.2779999999999063],False,,0.0,,0.0,87.0,87.0,87.0,1.0,,,,,
,,,,,,,,,,,,,,,,,,,,,0.05,,,,,,,,,,Stimuli/psy_fixed_rotation_30_objects_occ0.7_0.9s/images/train/n04405907_9/n04379243_8/img_vray_004_glass_table_2000_gray.jpg,n04405907_9,n04379243_8,fixed,0.807367,n04405907_9,Stimuli/psy_flexible_rotation_30_objects_occ0.7_0.9s/images/train/n04405907_9/n04405907_9/img_vray_004_vray_004_2009-3_gray.png,random,flexible,n04405907_9,n04379243_-7,Stimuli/canonical view 2/img_n04405907_9_gray.jpg,Stimuli/canonical view 2/img_n04379243_-7_gray.jpg,random,left,Experiments/experiment_2/352.jpg,Experiments/experiment_2/353.jpg,Experiments/experiment_2/354.jpg,Experiments/experiment_2/355.jpg,719,1,2023-09-17_11h35.20.895,Occlusion_Psychophysics,2022.1.4,Win32,59.95203837,,,left,"[""left""]",[1.0430000000000064],False,,0.0,,0.0,88.0,88.0,88.0,1.0,,,,,
,,,,,,,,,,,,,,,,,,,,,0.05,,,,,,,,,,Stimuli/psy_fixed_rotation_30_objects_occ0.7_0.9s/images/train/n02933112_-2/n04405907_5/img_sink_base_white_wood_samsung_40_uhd_smart_tv_2011_2002_gray.jpg,n02933112_-2,n04405907_5,fixed,0.732265,n03001627_9,Stimuli/psy_fixed_rotation_30_objects_occ0.7_0.9s/images/train/n03001627_9/n03001627_9/img_chair_eames_plastic_armchair_chair_eames_plastic_armchair_2010-3_gray.png,random,fixed,n02933112_-2,n04405907_5,Stimuli/canonical view 2/img_n02933112_-2_gray.jpg,Stimuli/canonical view 2/img_n04405907_5_gray.jpg,foreground,left,Experiments/experiment_2/356.jpg,Experiments/experiment_2/357.jpg,Experiments/experiment_2/358.jpg,Experiments/experiment_2/359.jpg,719,1,2023-09-17_11h35.20.895,Occlusion_Psychophysics,2022.1.4,Win32,59.95203837,,,right,"[""right""]",[0.8369999999999891],False,,0.0,,0.0,89.0,89.0,89.0,1.0,,,,,
,,,,,,,,,,,,,,,,,,,,,0.025,,,,,,,,,,Stimuli/psy_flexible_rotation_30_objects_occ0.7_0.9s/images/train/n04405907_8/n04405907_9/img_stylized_tv_vray_004_2007_gray.jpg,n04405907_8,n04405907_9,flexible,0.710494,n02818832_0,Stimuli/psy_flexible_rotation_30_objects_occ0.7_0.9s/images/train/n04256520_4/n02818832_0/img_club_house_italia_nautilus_sofa_b03_the_sofa_and_chair_company_-_stanley_bed_2014_2015-3_gray.png,random,flexible,n04405907_8,n04405907_9,Stimuli/canonical view 2/img_n04405907_8_gray.jpg,Stimuli/canonical view 2/img_n04405907_9_gray.jpg,foreground,left,Experiments/experiment_2/360.jpg,Experiments/experiment_2/361.jpg,Experiments/experiment_2/362.jpg,Experiments/experiment_2/363.jpg,719,1,2023-09-17_11h35.20.895,Occlusion_Psychophysics,2022.1.4,Win32,59.95203837,,,right,"[""right""]",[0.7940000000000964],False,,0.0,,0.0,90.0,90.0,90.0,1.0,,,,,
,,,,,,,,,,,,,,,,,,,,,0.025,,,,,,,,,,Stimuli/psy_fixed_rotation_30_objects_occ0.7_0.9s/images/train/n02933112_-18/n04379243_0/img_cgaxis_models_48_26_vray_composite_17th_c._monastery_dining_table_2010_2011_gray.jpg,n02933112_-18,n04379243_0,fixed,0.716074,n03928116_10,Stimuli/psy_fixed_rotation_30_objects_occ0.7_0.9s/images/train/n04405907_8/n03928116_10/img_stylized_tv_ydp_103_r_2012__vray_2013-3_gray.png,random,fixed,n02933112_-18,n04379243_0,Stimuli/canonical view 2/img_n02933112_-18_gray.jpg,Stimuli/canonical view 2/img_n04379243_0_gray.jpg,foreground,left,Experiments/experiment_2/364.jpg,Experiments/experiment_2/365.jpg,Experiments/experiment_2/366.jpg,Experiments/experiment_2/367.jpg,719,1,2023-09-17_11h35.20.895,Occlusion_Psychophysics,2022.1.4,Win32,59.95203837,,,right,"[""left""]",[0.97199999999998],False,,0.0,,0.0,91.0,91.0,91.0,1.0,,,,,
,,,,,,,,,,,,,,,,,,,,,0.025,,,,,,,,,,Stimuli/psy_flexible_rotation_30_objects_occ0.7_0.9s/images/train/n04256520_5/n04379243_8/img_meridiani_belmondo_bench_sofa_glass_table_2005_gray.jpg,n04256520_5,n04379243_8,flexible,0.764176,n02818832_9,Stimuli/psy_flexible_rotation_30_objects_occ0.7_0.9s/images/train/n04379243_0/n02818832_9/img_17th_c._monastery_dining_table_2010_bed01_blue_2014-3_gray.png,random,flexible,n04256520_5,n04379243_8,Stimuli/canonical view 2/img_n04256520_5_gray.jpg,Stimuli/canonical view 2/img_n04379243_8_gray.jpg,foreground,right,Experiments/experiment_2/368.jpg,Experiments/experiment_2/369.jpg,Experiments/experiment_2/370.jpg,Experiments/experiment_2/371.jpg,719,1,2023-09-17_11h35.20.895,Occlusion_Psychophysics,2022.1.4,Win32,59.95203837,,,right,"[""left""]",[1.2110000000000127],False,,0.0,,0.0,92.0,92.0,92.0,1.0,,,,,
,,,,,,,,,,,,,,,,,,,,,0.05,,,,,,,,,,Stimuli/psy_fixed_rotation_30_objects_occ0.7_0.9s/images/train/n02818832_0/n04379243_0/img_b03_the_sofa_and_chair_company_-_stanley_bed_2014_17th_c._monastery_dining_table_2010_2009_gray.jpg,n02818832_0,n04379243_0,fixed,0.716153,n03928116_4,Stimuli/psy_fixed_rotation_30_objects_occ0.7_0.9s/images/train/n04256520_9/n03928116_4/img_napoleon_iii_sofa_dp_33_b_2013__vray_2013-3_gray.png,random,fixed,n02818832_0,n04379243_0,Stimuli/canonical view 2/img_n02818832_0_gray.jpg,Stimuli/canonical view 2/img_n04379243_0_gray.jpg,foreground,right,Experiments/experiment_2/372.jpg,Experiments/experiment_2/373.jpg,Experiments/experiment_2/374.jpg,Experiments/experiment_2/375.jpg,719,1,2023-09-17_11h35.20.895,Occlusion_Psychophysics,2022.1.4,Win32,59.95203837,,,right,"[""right""]",[1.04099999999994],False,,0.0,,0.0,93.0,93.0,93.0,1.0,,,,,
,,,,,,,,,,,,,,,,,,,,,0.025,,,,,,,,,,Stimuli/psy_fixed_rotation_30_objects_occ0.7_0.9s/images/train/n02933112_-18/n04405907_9/img_cgaxis_models_48_26_vray_composite_vray_004_2013_gray.jpg,n02933112_-18,n04405907_9,fixed,0.806856,n02933112_-18,Stimuli/psy_flexible_rotation_30_objects_occ0.7_0.9s/images/train/n02818832_9/n02933112_-18/img_bed01_blue_cgaxis_models_48_26_vray_composite_2004-3_gray.png,random,flexible,n02933112_-18,n03928116_0,Stimuli/canonical view 2/img_n02933112_-18_gray.jpg,Stimuli/canonical view 2/img_n03928116_0_gray.jpg,random,left,Experiments/experiment_2/376.jpg,Experiments/experiment_2/377.jpg,Experiments/experiment_2/378.jpg,Experiments/experiment_2/379.jpg,719,1,2023-09-17_11h35.20.895,Occlusion_Psychophysics,2022.1.4,Win32,59.95203837,,,right,"[""right""]",[1.3220000000000027],False,,0.0,,0.0,94.0,94.0,94.0,1.0,,,,,
,,,,,,,,,,,,,,,,,,,,,0.05,,,,,,,,,,Stimuli/psy_flexible_rotation_30_objects_occ0.7_0.9s/images/train/n03928116_4/n02818832_0/img_dp_33_b_2013__vray_b03_the_sofa_and_chair_company_-_stanley_bed_2014_2005_gray.jpg,n03928116_4,n02818832_0,flexible,0.739714,n02818832_0,Stimuli/psy_flexible_rotation_30_objects_occ0.7_0.9s/images/train/n03928116_4/n02818832_0/img_dp_33_b_2013__vray_b03_the_sofa_and_chair_company_-_stanley_bed_2014_2005-3_gray.png,foreground,same as foreground,n03928116_4,n02818832_0,Stimuli/canonical view 2/img_n03928116_4_gray.jpg,Stimuli/canonical view 2/img_n02818832_0_gray.jpg,foreground,left,Experiments/experiment_2/380.jpg,Experiments/experiment_2/381.jpg,Experiments/experiment_2/382.jpg,Experiments/experiment_2/383.jpg,719,1,2023-09-17_11h35.20.895,Occlusion_Psychophysics,2022.1.4,Win32,59.95203837,,,right,"[""left""]",[1.2229999999999563],False,,0.0,,0.0,95.0,95.0,95.0,1.0,,,,,
,,,,,,,,,,,,,,,,,,,,,0.025,,,,,,,,,,Stimuli/psy_flexible_rotation_30_objects_occ0.7_0.9s/images/train/n03928116_0/n02818832_3/img_b02_piano_b05_ccm_contemporary_bed_max2013_2014_gray.jpg,n03928116_0,n02818832_3,flexible,0.714926,n04256520_5,Stimuli/psy_flexible_rotation_30_objects_occ0.7_0.9s/images/train/n02883344_-1/n04256520_5/img_woven_box_meridiani_belmondo_bench_sofa_2004-3_gray.png,random,flexible,n03928116_0,n02818832_3,Stimuli/canonical view 2/img_n03928116_0_gray.jpg,Stimuli/canonical view 2/img_n02818832_3_gray.jpg,foreground,left,Experiments/experiment_2/384.jpg,Experiments/experiment_2/385.jpg,Experiments/experiment_2/386.jpg,Experiments/experiment_2/387.jpg,719,1,2023-09-17_11h35.20.895,Occlusion_Psychophysics,2022.1.4,Win32,59.95203837,,,left,"[""left""]",[0.7580000000000382],False,,0.0,,0.0,96.0,96.0,96.0,1.0,,,,,
,,,,,,,,,,,,,,,,,,,,,0.05,,,,,,,,,,Stimuli/psy_flexible_rotation_30_objects_occ0.7_0.9s/images/train/n02883344_0/n02818832_9/img_b03_box_bed01_blue_2009_gray.jpg,n02883344_0,n02818832_9,flexible,0.84937,n03928116_0,Stimuli/psy_fixed_rotation_30_objects_occ0.7_0.9s/images/train/n04070727_5/n03928116_0/img_b05_db_apps_tech_06_13_composite_b02_piano_2008-3_gray.png,random,fixed,n02883344_0,n04379243_0,Stimuli/canonical view 2/img_n02883344_0_gray.jpg,Stimuli/canonical view 2/img_n04379243_0_gray.jpg,random,left,Experiments/experiment_2/388.jpg,Experiments/experiment_2/389.jpg,Experiments/experiment_2/390.jpg,Experiments/experiment_2/391.jpg,719,1,2023-09-17_11h35.20.895,Occlusion_Psychophysics,2022.1.4,Win32,59.95203837,,,left,"[""right""]",[1.07000000000005],False,,0.0,,0.0,97.0,97.0,97.0,1.0,,,,,
,,,,,,,,,,,,,,,,,,,,,0.025,,,,,,,,,,Stimuli/psy_flexible_rotation_30_objects_occ0.7_0.9s/images/train/n04379243_8/n04405907_9/img_glass_table_vray_004_2009_gray.jpg,n04379243_8,n04405907_9,flexible,0.774065,n04405907_9,Stimuli/psy_flexible_rotation_30_objects_occ0.7_0.9s/images/train/n04379243_8/n04405907_9/img_glass_table_vray_004_2009-3_gray.png,foreground,same as foreground,n04379243_8,n02818832_3,Stimuli/canonical view 2/img_n04379243_8_gray.jpg,Stimuli/canonical view 2/img_n02818832_3_gray.jpg,random,left,Experiments/experiment_2/392.jpg,Experiments/experiment_2/393.jpg,Experiments/experiment_2/394.jpg,Experiments/experiment_2/395.jpg,719,1,2023-09-17_11h35.20.895,Occlusion_Psychophysics,2022.1.4,Win32,59.95203837,,,right,"[""right""]",[0.9399999999999409],False,,0.0,,0.0,98.0,98.0,98.0,1.0,,,,,
,,,,,,,,,,,,,,,,,,,,,0.025,,,,,,,,,,Stimuli/psy_flexible_rotation_30_objects_occ0.7_0.9s/images/train/n02818832_9/n02828884_3/img_bed01_blue_b04_wood_metal_park_bench_2006_gray.jpg,n02818832_9,n02828884_3,flexible,0.786299,n02828884_3,Stimuli/psy_flexible_rotation_30_objects_occ0.7_0.9s/images/train/n02818832_9/n02828884_3/img_bed01_blue_b04_wood_metal_park_bench_2006-3_gray.png,foreground,same as foreground,n02818832_9,n02828884_3,Stimuli/canonical view 2/img_n02818832_9_gray.jpg,Stimuli/canonical view 2/img_n02828884_3_gray.jpg,foreground,right,Experiments/experiment_2/396.jpg,Experiments/experiment_2/397.jpg,Experiments/experiment_2/398.jpg,Experiments/experiment_2/399.jpg,719,1,2023-09-17_11h35.20.895,Occlusion_Psychophysics,2022.1.4,Win32,59.95203837,,,left,"[""left""]",[0.8460000000000036],False,,0.0,,0.0,99.0,99.0,99.0,1.0,,,,,
,,,,,,,,,,,,,,,,,,,,,,,,,,,,,,,,,,,,,,,,,,,,,,,,,,719,1,2023-09-17_11h35.20.895,Occlusion_Psychophysics,2022.1.4,Win32,59.95203837,,,,,,,,,,,,,,,0.0,0.0,0.0,0.0,1.0
,,,,,,,,,,,,,,,,,,,,,0.05,,,,,,,,,,Stimuli/psy_fixed_rotation_30_objects_occ0.7_0.9s/images/train/n02818832_9/n04379243_8/img_bed01_blue_glass_table_2010_gray.jpg,n02818832_9,n04379243_8,fixed,0.731611,n04256520_9,Stimuli/psy_fixed_rotation_30_objects_occ0.7_0.9s/images/train/n03001627_9/n04256520_9/img_chair_eames_plastic_armchair_napoleon_iii_sofa_2003-3_gray.png,random,fixed,n02818832_9,n04379243_8,Stimuli/canonical view 2/img_n02818832_9_gray.jpg,Stimuli/canonical view 2/img_n04379243_8_gray.jpg,foreground,right,Experiments/experiment_2/400.jpg,Experiments/experiment_2/401.jpg,Experiments/experiment_2/402.jpg,Experiments/experiment_2/403.jpg,719,1,2023-09-17_11h35.20.895,Occlusion_Psychophysics,2022.1.4,Win32,59.95203837,,,right,"[""right""]",[0.6639999999999873],False,,0.0,,0.0,0.0,0.0,0.0,1.0,,,,,
,,,,,,,,,,,,,,,,,,,,,0.025,,,,,,,,,,Stimuli/psy_flexible_rotation_30_objects_occ0.7_0.9s/images/train/n02828884_3/n02883344_15/img_b04_wood_metal_park_bench_microwave_box_2003_gray.jpg,n02828884_3,n02883344_15,flexible,0.783844,n02933112_4,Stimuli/psy_flexible_rotation_30_objects_occ0.7_0.9s/images/train/n03928116_10/n02933112_4/img_ydp_103_r_2012__vray_buffet_2010-3_gray.png,random,flexible,n02828884_3,n02818832_3,Stimuli/canonical view 2/img_n02828884_3_gray.jpg,Stimuli/canonical view 2/img_n02818832_3_gray.jpg,random,left,Experiments/experiment_2/404.jpg,Experiments/experiment_2/405.jpg,Experiments/experiment_2/406.jpg,Experiments/experiment_2/407.jpg,719,1,2023-09-17_11h35.20.895,Occlusion_Psychophysics,2022.1.4,Win32,59.95203837,,,right,"[""left""]",[0.8250000000000455],False,,0.0,,0.0,1.0,1.0,1.0,1.0,,,,,
,,,,,,,,,,,,,,,,,,,,,0.05,,,,,,,,,,Stimuli/psy_fixed_rotation_30_objects_occ0.7_0.9s/images/train/n02828884_3/n04256520_9/img_b04_wood_metal_park_bench_napoleon_iii_sofa_2008_gray.jpg,n02828884_3,n04256520_9,fixed,0.864815,n04256520_9,Stimuli/psy_fixed_rotation_30_objects_occ0.7_0.9s/images/train/n02828884_3/n04256520_9/img_b04_wood_metal_park_bench_napoleon_iii_sofa_2008-3_gray.png,foreground,same as foreground,n02828884_3,n04256520_9,Stimuli/canonical view 2/img_n02828884_3_gray.jpg,Stimuli/canonical view 2/img_n04256520_9_gray.jpg,foreground,left,Experiments/experiment_2/408.jpg,Experiments/experiment_2/409.jpg,Experiments/experiment_2/410.jpg,Experiments/experiment_2/411.jpg,719,1,2023-09-17_11h35.20.895,Occlusion_Psychophysics,2022.1.4,Win32,59.95203837,,,left,"[""right""]",[1.20900000000006],True,right,1.0,0.837,0.0,2.0,2.0,2.0,1.0,,,,,
,,,,,,,,,,,,,,,,,,,,,0.05,,,,,,,,,,Stimuli/psy_flexible_rotation_30_objects_occ0.7_0.9s/images/train/n04379243_-7/n02933112_-2/img_quatre_dining_table_sink_base_white_wood_2011_gray.jpg,n04379243_-7,n02933112_-2,flexible,0.794051,n02933112_-2,Stimuli/psy_flexible_rotation_30_objects_occ0.7_0.9s/images/train/n04379243_-7/n02933112_-2/img_quatre_dining_table_sink_base_white_wood_2011-3_gray.png,foreground,same as foreground,n04379243_-7,n02933112_-2,Stimuli/canonical view 2/img_n04379243_-7_gray.jpg,Stimuli/canonical view 2/img_n02933112_-2_gray.jpg,foreground,left,Experiments/experiment_2/412.jpg,Experiments/experiment_2/413.jpg,Experiments/experiment_2/414.jpg,Experiments/experiment_2/415.jpg,719,1,2023-09-17_11h35.20.895,Occlusion_Psychophysics,2022.1.4,Win32,59.95203837,,,right,"[""right""]",[1.1900000000000546],False,,0.0,,0.0,3.0,3.0,3.0,1.0,,,,,
,,,,,,,,,,,,,,,,,,,,,0.05,,,,,,,,,,Stimuli/psy_fixed_rotation_30_objects_occ0.7_0.9s/images/train/n02883344_15/n02883344_-1/img_microwave_box_woven_box_2005_gray.jpg,n02883344_15,n02883344_-1,fixed,0.795099,n02883344_15,Stimuli/psy_fixed_rotation_30_objects_occ0.7_0.9s/images/train/n02933112_4/n02883344_15/img_buffet_microwave_box_2013-3_gray.png,random,fixed,n02883344_15,n04379243_0,Stimuli/canonical view 2/img_n02883344_15_gray.jpg,Stimuli/canonical view 2/img_n04379243_0_gray.jpg,random,left,Experiments/experiment_2/416.jpg,Experiments/experiment_2/417.jpg,Experiments/experiment_2/418.jpg,Experiments/experiment_2/419.jpg,719,1,2023-09-17_11h35.20.895,Occlusion_Psychophysics,2022.1.4,Win32,59.95203837,,,right,"[""left""]",[1.1599999999999682],False,,0.0,,0.0,4.0,4.0,4.0,1.0,,,,,
,,,,,,,,,,,,,,,,,,,,,0.05,,,,,,,,,,Stimuli/psy_fixed_rotation_30_objects_occ0.7_0.9s/images/train/n02933112_-18/n04379243_0/img_cgaxis_models_48_26_vray_composite_17th_c._monastery_dining_table_2010_2009_gray.jpg,n02933112_-18,n04379243_0,fixed,0.703446,n04256520_9,Stimuli/psy_fixed_rotation_30_objects_occ0.7_0.9s/images/train/n02818832_9/n04256520_9/img_bed01_blue_napoleon_iii_sofa_2010-3_gray.png,random,fixed,n02933112_-18,n04405907_5,Stimuli/canonical view 2/img_n02933112_-18_gray.jpg,Stimuli/canonical view 2/img_n04405907_5_gray.jpg,random,right,Experiments/experiment_2/420.jpg,Experiments/experiment_2/421.jpg,Experiments/experiment_2/422.jpg,Experiments/experiment_2/423.jpg,719,1,2023-09-17_11h35.20.895,Occlusion_Psychophysics,2022.1.4,Win32,59.95203837,,,left,"[""right""]",[1.04200000000003],False,,0.0,,0.0,5.0,5.0,5.0,1.0,,,,,
,,,,,,,,,,,,,,,,,,,,,0.025,,,,,,,,,,Stimuli/psy_fixed_rotation_30_objects_occ0.7_0.9s/images/train/n04256520_5/n02883344_0/img_meridiani_belmondo_bench_sofa_b03_box_2006_gray.jpg,n04256520_5,n02883344_0,fixed,0.700661,n02883344_-1,Stimuli/psy_flexible_rotation_30_objects_occ0.7_0.9s/images/train/n02883344_15/n02883344_-1/img_microwave_box_woven_box_2002-3_gray.png,random,flexible,n04256520_5,n02828884_3,Stimuli/canonical view 2/img_n04256520_5_gray.jpg,Stimuli/canonical view 2/img_n02828884_3_gray.jpg,random,right,Experiments/experiment_2/424.jpg,Experiments/experiment_2/425.jpg,Experiments/experiment_2/426.jpg,Experiments/experiment_2/427.jpg,719,1,2023-09-17_11h35.20.895,Occlusion_Psychophysics,2022.1.4,Win32,59.95203837,,,left,"[""left""]",[0.8029999999999973],False,,0.0,,0.0,6.0,6.0,6.0,1.0,,,,,
,,,,,,,,,,,,,,,,,,,,,0.025,,,,,,,,,,Stimuli/psy_flexible_rotation_30_objects_occ0.7_0.9s/images/train/n04379243_8/n02818832_9/img_glass_table_bed01_blue_2010_gray.jpg,n04379243_8,n02818832_9,flexible,0.714953,n02818832_9,Stimuli/psy_flexible_rotation_30_objects_occ0.7_0.9s/images/train/n04379243_8/n02818832_9/img_glass_table_bed01_blue_2010-3_gray.png,foreground,same as foreground,n04379243_8,n02818832_9,Stimuli/canonical view 2/img_n04379243_8_gray.jpg,Stimuli/canonical view 2/img_n02818832_9_gray.jpg,foreground,left,Experiments/experiment_2/428.jpg,Experiments/experiment_2/429.jpg,Experiments/experiment_2/430.jpg,Experiments/experiment_2/431.jpg,719,1,2023-09-17_11h35.20.895,Occlusion_Psychophysics,2022.1.4,Win32,59.95203837,,,left,"[""left""]",[0.6449999999999818],False,,0.0,,0.0,7.0,7.0,7.0,1.0,,,,,
,,,,,,,,,,,,,,,,,,,,,0.025,,,,,,,,,,Stimuli/psy_flexible_rotation_30_objects_occ0.7_0.9s/images/train/n03001627_8/n04405907_8/img_chair_billiani_doll_stylized_tv_2013_gray.jpg,n03001627_8,n04405907_8,flexible,0.796068,n04405907_8,Stimuli/psy_flexible_rotation_30_objects_occ0.7_0.9s/images/train/n03001627_8/n04405907_8/img_chair_billiani_doll_stylized_tv_2013-3_gray.png,foreground,same as foreground,n03001627_8,n04405907_8,Stimuli/canonical view 2/img_n03001627_8_gray.jpg,Stimuli/canonical view 2/img_n04405907_8_gray.jpg,foreground,right,Experiments/experiment_2/432.jpg,Experiments/experiment_2/433.jpg,Experiments/experiment_2/434.jpg,Experiments/experiment_2/435.jpg,719,1,2023-09-17_11h35.20.895,Occlusion_Psychophysics,2022.1.4,Win32,59.95203837,,,left,"[""left""]",[1.07000000000005],False,,0.0,,0.0,8.0,8.0,8.0,1.0,,,,,
,,,,,,,,,,,,,,,,,,,,,0.05,,,,,,,,,,Stimuli/psy_flexible_rotation_30_objects_occ0.7_0.9s/images/train/n04405907_8/n02818832_0/img_stylized_tv_b03_the_sofa_and_chair_company_-_stanley_bed_2014_2001_gray.jpg,n04405907_8,n02818832_0,flexible,0.82878,n04256520_4,Stimuli/psy_fixed_rotation_30_objects_occ0.7_0.9s/images/train/n02818832_9/n04256520_4/img_bed01_blue_club_house_italia_nautilus_sofa_2005-3_gray.png,random,fixed,n04405907_8,n03928116_4,Stimuli/canonical view 2/img_n04405907_8_gray.jpg,Stimuli/canonical view 2/img_n03928116_4_gray.jpg,random,left,Experiments/experiment_2/436.jpg,Experiments/experiment_2/437.jpg,Experiments/experiment_2/438.jpg,Experiments/experiment_2/439.jpg,719,1,2023-09-17_11h35.20.895,Occlusion_Psychophysics,2022.1.4,Win32,59.95203837,,,left,"[""left""]",[0.8220000000000027],False,,0.0,,0.0,9.0,9.0,9.0,1.0,,,,,
,,,,,,,,,,,,,,,,,,,,,0.05,,,,,,,,,,Stimuli/psy_fixed_rotation_30_objects_occ0.7_0.9s/images/train/n02828884_3/n02933112_-18/img_b04_wood_metal_park_bench_cgaxis_models_48_26_vray_composite_2011_gray.jpg,n02828884_3,n02933112_-18,fixed,0.768819,n02933112_-18,Stimuli/psy_fixed_rotation_30_objects_occ0.7_0.9s/images/train/n02828884_3/n02933112_-18/img_b04_wood_metal_park_bench_cgaxis_models_48_26_vray_composite_2011-3_gray.png,foreground,same as foreground,n02828884_3,n04379243_8,Stimuli/canonical view 2/img_n02828884_3_gray.jpg,Stimuli/canonical view 2/img_n04379243_8_gray.jpg,random,left,Experiments/experiment_2/440.jpg,Experiments/experiment_2/441.jpg,Experiments/experiment_2/442.jpg,Experiments/experiment_2/443.jpg,719,1,2023-09-17_11h35.20.895,Occlusion_Psychophysics,2022.1.4,Win32,59.95203837,,,left,"[""left""]",[1.004000000000019],False,,0.0,,0.0,10.0,10.0,10.0,1.0,,,,,
,,,,,,,,,,,,,,,,,,,,,0.05,,,,,,,,,,Stimuli/psy_flexible_rotation_30_objects_occ0.7_0.9s/images/train/n02828884_3/n04256520_9/img_b04_wood_metal_park_bench_napoleon_iii_sofa_2012_gray.jpg,n02828884_3,n04256520_9,flexible,0.795332,n04256520_9,Stimuli/psy_flexible_rotation_30_objects_occ0.7_0.9s/images/train/n02828884_3/n04256520_9/img_b04_wood_metal_park_bench_napoleon_iii_sofa_2012-3_gray.png,foreground,same as foreground,n02828884_3,n04256520_9,Stimuli/canonical view 2/img_n02828884_3_gray.jpg,Stimuli/canonical view 2/img_n04256520_9_gray.jpg,foreground,right,Experiments/experiment_2/444.jpg,Experiments/experiment_2/445.jpg,Experiments/experiment_2/446.jpg,Experiments/experiment_2/447.jpg,719,1,2023-09-17_11h35.20.895,Occlusion_Psychophysics,2022.1.4,Win32,59.95203837,,,left,"[""left""]",[1.2240000000000464],False,,0.0,,0.0,11.0,11.0,11.0,1.0,,,,,
,,,,,,,,,,,,,,,,,,,,,0.025,,,,,,,,,,Stimuli/psy_flexible_rotation_30_objects_occ0.7_0.9s/images/train/n02933112_-2/n02818832_9/img_sink_base_white_wood_bed01_blue_2005_gray.jpg,n02933112_-2,n02818832_9,flexible,0.710723,n02883344_15,Stimuli/psy_fixed_rotation_30_objects_occ0.7_0.9s/images/train/n04379243_-7/n02883344_15/img_quatre_dining_table_microwave_box_2006-3_gray.png,random,fixed,n02933112_-2,n02818832_9,Stimuli/canonical view 2/img_n02933112_-2_gray.jpg,Stimuli/canonical view 2/img_n02818832_9_gray.jpg,foreground,left,Experiments/experiment_2/448.jpg,Experiments/experiment_2/449.jpg,Experiments/experiment_2/450.jpg,Experiments/experiment_2/451.jpg,719,1,2023-09-17_11h35.20.895,Occlusion_Psychophysics,2022.1.4,Win32,59.95203837,,,left,"[""left""]",[0.9990000000000236],False,,0.0,,0.0,12.0,12.0,12.0,1.0,,,,,
,,,,,,,,,,,,,,,,,,,,,0.05,,,,,,,,,,Stimuli/psy_fixed_rotation_30_objects_occ0.7_0.9s/images/train/n03001627_-2/n03928116_4/img_wood_chair_dp_33_b_2013__vray_2001_gray.jpg,n03001627_-2,n03928116_4,fixed,0.705841,n04405907_9,Stimuli/psy_fixed_rotation_30_objects_occ0.7_0.9s/images/train/n04405907_8/n04405907_9/img_stylized_tv_vray_004_2012-3_gray.png,random,fixed,n03001627_-2,n04405907_5,Stimuli/canonical view 2/img_n03001627_-2_gray.jpg,Stimuli/canonical view 2/img_n04405907_5_gray.jpg,random,right,Experiments/experiment_2/452.jpg,Experiments/experiment_2/453.jpg,Experiments/experiment_2/454.jpg,Experiments/experiment_2/455.jpg,719,1,2023-09-17_11h35.20.895,Occlusion_Psychophysics,2022.1.4,Win32,59.95203837,,,right,"[""right""]",[0.9149999999999636],False,,0.0,,0.0,13.0,13.0,13.0,1.0,,,,,
,,,,,,,,,,,,,,,,,,,,,0.025,,,,,,,,,,Stimuli/psy_fixed_rotation_30_objects_occ0.7_0.9s/images/train/n02933112_4/n02883344_0/img_buffet_b03_box_2015_gray.jpg,n02933112_4,n02883344_0,fixed,0.758095,n02883344_0,Stimuli/psy_fixed_rotation_30_objects_occ0.7_0.9s/images/train/n02933112_4/n02883344_0/img_buffet_b03_box_2015-3_gray.png,foreground,same as foreground,n02933112_4,n02933112_-18,Stimuli/canonical view 2/img_n02933112_4_gray.jpg,Stimuli/canonical view 2/img_n02933112_-18_gray.jpg,random,right,Experiments/experiment_2/456.jpg,Experiments/experiment_2/457.jpg,Experiments/experiment_2/458.jpg,Experiments/experiment_2/459.jpg,719,1,2023-09-17_11h35.20.895,Occlusion_Psychophysics,2022.1.4,Win32,59.95203837,,,left,"[""left""]",[1.05499999999995],False,,0.0,,0.0,14.0,14.0,14.0,1.0,,,,,
