in_color,Instructions_key.keys,Instructions_key.rt,Tutorial_instruction_key.keys,Tutorial_instruction_key.rt,Tutorial_fixation_ley.keys,Tutorial_fixation_ley.rt,Tutorial_single_img_key.keys,Tutorial_single_img_key.rt,Tutorial_intra_trial_fixation_key.keys,Tutorial_intra_trial_fixation_key.rt,Tutorial_stimulus_key.keys,Tutorial_stimulus_key.rt,Tutorial_response_key.keys,Tutorial_response_key.rt,Tutorial_attention_check_key.keys,Tutorial_attention_check_key.rt,advance_or_repeat.keys,advance_or_repeat.rt,Practice_instructions_key.keys,Practice_instructions_key.rt,intra_trial_duration,Practice_key_response.keys,Practice_key_response.rt,Practice_react_key.keys,Practice_react_key.rt,Practice_loop.thisRepN,Practice_loop.thisTrialN,Practice_loop.thisN,Practice_loop.thisIndex,Practice_loop.ran,multi_object_filepath,background_id,foreground_id,multi_object_rotation,occlusion_level,single_object_id,single_object_filepath,single_is_foreground_or_random,single_object_rotation,background_choice_id,alt_choice_id,background_option_filepath,alternative_option_filepath,alternative_is_foreground_or_random,location_of_correct_answer,multi_object_exp_filename,single_object_exp_filename,background_option_exp_filename,alternative_option_exp_filename,participant,session,date,expName,psychopyVersion,OS,frameRate,Practice_end_key.keys,Practice_end_key.rt,correct_answer,Input_selection.keys,Input_selection.rt,Was_attention_check,Attention_check.keys,Attention_check.corr,Each_session_loop.thisRepN,Each_session_loop.thisTrialN,Each_session_loop.thisN,Each_session_loop.thisIndex,Each_session_loop.ran,Attention_check.rt,Num_sessions.thisRepN,Num_sessions.thisTrialN,Num_sessions.thisN,Num_sessions.thisIndex,Num_sessions.ran
False,j,69.857,right,4.9942,right,2.9484,right,4.3338,right,1.8628,right,16.2661,right,8.9037,right,13.1656,a,5.0875,right,5.496,0.025,right,1.5001,r,4.6511,0.0,0.0,0.0,0.0,1.0,Stimuli/psy_flexible_rotation_30_objects_occ0.7_0.9s/images/train/n02828884_9/n03928116_0/img_cr-96_bench_b02_piano_2010_gray.jpg,n02828884_9,n03928116_0,flexible,0.764846,n03928116_0,Stimuli/psy_flexible_rotation_30_objects_occ0.7_0.9s/images/train/n02828884_9/n03928116_0/img_cr-96_bench_b02_piano_2010-3_gray.png,foreground,same as foreground,n02828884_9,n03928116_0,Stimuli/canonical view 2/img_n02828884_9_gray.jpg,Stimuli/canonical view 2/img_n03928116_0_gray.jpg,foreground,left,Experiments/experiment_8/1000.jpg,Experiments/experiment_8/1001.jpg,Experiments/experiment_8/1002.jpg,Experiments/experiment_8/1003.jpg,740,1,2023-05-26_13h03.02.990,Occlusion_Psychophysics,2022.1.4,Win32,60.08532116,,,,,,,,,,,,,,,,,,,
,,,,,,,,,,,,,,,,,,,,,0.025,left,2.1167,a,1.9006,0.0,1.0,1.0,1.0,1.0,Stimuli/psy_flexible_rotation_30_objects_occ0.7_0.9s/images/train/n02933112_-18/n02933112_-2/img_cgaxis_models_48_26_vray_composite_sink_base_white_wood_2005_gray.jpg,n02933112_-18,n02933112_-2,flexible,0.710656,n02933112_-2,Stimuli/psy_flexible_rotation_30_objects_occ0.7_0.9s/images/train/n02933112_-18/n02933112_-2/img_cgaxis_models_48_26_vray_composite_sink_base_white_wood_2005-3_gray.png,foreground,same as foreground,n02933112_-18,n03001627_-2,Stimuli/canonical view 2/img_n02933112_-18_gray.jpg,Stimuli/canonical view 2/img_n03001627_-2_gray.jpg,random,left,Experiments/experiment_8/1004.jpg,Experiments/experiment_8/1005.jpg,Experiments/experiment_8/1006.jpg,Experiments/experiment_8/1007.jpg,740,1,2023-05-26_13h03.02.990,Occlusion_Psychophysics,2022.1.4,Win32,60.08532116,,,,,,,,,,,,,,,,,,,
,,,,,,,,,,,,,,,,,,,,,0.05,,,,,,,,,,Stimuli/psy_flexible_rotation_30_objects_occ0.7_0.9s/images/train/n04256520_5/n03928116_0/img_meridiani_belmondo_bench_sofa_b02_piano_2009_gray.jpg,n04256520_5,n03928116_0,flexible,0.708782,n02818832_3,Stimuli/psy_fixed_rotation_30_objects_occ0.7_0.9s/images/train/n02883344_0/n02818832_3/img_b03_box_b05_ccm_contemporary_bed_max2013_2013-3_gray.png,random,fixed,n04256520_5,n04405907_9,Stimuli/canonical view 2/img_n04256520_5_gray.jpg,Stimuli/canonical view 2/img_n04405907_9_gray.jpg,random,right,Experiments/experiment_8/0.jpg,Experiments/experiment_8/1.jpg,Experiments/experiment_8/2.jpg,Experiments/experiment_8/3.jpg,740,1,2023-05-26_13h03.02.990,Occlusion_Psychophysics,2022.1.4,Win32,60.08532116,right,3.285,right,"[""left""]",[1.2475000000000591],False,,0.0,0.0,0.0,0.0,0.0,1.0,,,,,,
,,,,,,,,,,,,,,,,,,,,,0.025,,,,,,,,,,Stimuli/psy_fixed_rotation_30_objects_occ0.7_0.9s/images/train/n02818832_9/n04256520_9/img_bed01_blue_napoleon_iii_sofa_2003_gray.jpg,n02818832_9,n04256520_9,fixed,0.837589,n04379243_8,Stimuli/psy_flexible_rotation_30_objects_occ0.7_0.9s/images/train/n04379243_-7/n04379243_8/img_quatre_dining_table_glass_table_2012-3_gray.png,random,flexible,n02818832_9,n02933112_4,Stimuli/canonical view 2/img_n02818832_9_gray.jpg,Stimuli/canonical view 2/img_n02933112_4_gray.jpg,random,left,Experiments/experiment_8/4.jpg,Experiments/experiment_8/5.jpg,Experiments/experiment_8/6.jpg,Experiments/experiment_8/7.jpg,740,1,2023-05-26_13h03.02.990,Occlusion_Psychophysics,2022.1.4,Win32,60.08532116,,,right,"[""right""]",[1.430399999990982],False,,0.0,0.0,1.0,1.0,1.0,1.0,,,,,,
,,,,,,,,,,,,,,,,,,,,,0.025,,,,,,,,,,Stimuli/psy_flexible_rotation_30_objects_occ0.7_0.9s/images/train/n02933112_-18/n02883344_15/img_cgaxis_models_48_26_vray_composite_microwave_box_2002_gray.jpg,n02933112_-18,n02883344_15,flexible,0.70056,n02883344_15,Stimuli/psy_flexible_rotation_30_objects_occ0.7_0.9s/images/train/n02933112_-18/n02883344_15/img_cgaxis_models_48_26_vray_composite_microwave_box_2002-3_gray.png,foreground,same as foreground,n02933112_-18,n04379243_8,Stimuli/canonical view 2/img_n02933112_-18_gray.jpg,Stimuli/canonical view 2/img_n04379243_8_gray.jpg,random,left,Experiments/experiment_8/8.jpg,Experiments/experiment_8/9.jpg,Experiments/experiment_8/10.jpg,Experiments/experiment_8/11.jpg,740,1,2023-05-26_13h03.02.990,Occlusion_Psychophysics,2022.1.4,Win32,60.08532116,,,left,"[""left""]",[0.9967000000029884],False,,0.0,0.0,2.0,2.0,2.0,1.0,,,,,,
,,,,,,,,,,,,,,,,,,,,,0.025,,,,,,,,,,Stimuli/psy_fixed_rotation_30_objects_occ0.7_0.9s/images/train/n02818832_0/n02828884_3/img_b03_the_sofa_and_chair_company_-_stanley_bed_2014_b04_wood_metal_park_bench_2000_gray.jpg,n02818832_0,n02828884_3,fixed,0.861566,n02828884_3,Stimuli/psy_fixed_rotation_30_objects_occ0.7_0.9s/images/train/n02818832_0/n02828884_3/img_b03_the_sofa_and_chair_company_-_stanley_bed_2014_b04_wood_metal_park_bench_2000-3_gray.png,foreground,same as foreground,n02818832_0,n02828884_3,Stimuli/canonical view 2/img_n02818832_0_gray.jpg,Stimuli/canonical view 2/img_n02828884_3_gray.jpg,foreground,left,Experiments/experiment_8/12.jpg,Experiments/experiment_8/13.jpg,Experiments/experiment_8/14.jpg,Experiments/experiment_8/15.jpg,740,1,2023-05-26_13h03.02.990,Occlusion_Psychophysics,2022.1.4,Win32,60.08532116,,,left,"[""left""]",[1.2304000000059432],False,,0.0,0.0,3.0,3.0,3.0,1.0,,,,,,
,,,,,,,,,,,,,,,,,,,,,0.05,,,,,,,,,,Stimuli/psy_flexible_rotation_30_objects_occ0.7_0.9s/images/train/n02883344_0/n02818832_3/img_b03_box_b05_ccm_contemporary_bed_max2013_2014_gray.jpg,n02883344_0,n02818832_3,flexible,0.742363,n02818832_3,Stimuli/psy_flexible_rotation_30_objects_occ0.7_0.9s/images/train/n02883344_0/n02818832_3/img_b03_box_b05_ccm_contemporary_bed_max2013_2014-3_gray.png,foreground,same as foreground,n02883344_0,n04256520_4,Stimuli/canonical view 2/img_n02883344_0_gray.jpg,Stimuli/canonical view 2/img_n04256520_4_gray.jpg,random,left,Experiments/experiment_8/16.jpg,Experiments/experiment_8/17.jpg,Experiments/experiment_8/18.jpg,Experiments/experiment_8/19.jpg,740,1,2023-05-26_13h03.02.990,Occlusion_Psychophysics,2022.1.4,Win32,60.08532116,,,right,"[""right""]",[0.9647999999970125],False,,0.0,0.0,4.0,4.0,4.0,1.0,,,,,,
,,,,,,,,,,,,,,,,,,,,,0.05,,,,,,,,,,Stimuli/psy_fixed_rotation_30_objects_occ0.7_0.9s/images/train/n04405907_9/n03928116_4/img_vray_004_dp_33_b_2013__vray_2006_gray.jpg,n04405907_9,n03928116_4,fixed,0.739185,n02883344_15,Stimuli/psy_fixed_rotation_30_objects_occ0.7_0.9s/images/train/n02828884_3/n02883344_15/img_b04_wood_metal_park_bench_microwave_box_2010-3_gray.png,random,fixed,n04405907_9,n03928116_4,Stimuli/canonical view 2/img_n04405907_9_gray.jpg,Stimuli/canonical view 2/img_n03928116_4_gray.jpg,foreground,right,Experiments/experiment_8/20.jpg,Experiments/experiment_8/21.jpg,Experiments/experiment_8/22.jpg,Experiments/experiment_8/23.jpg,740,1,2023-05-26_13h03.02.990,Occlusion_Psychophysics,2022.1.4,Win32,60.08532116,,,left,"[""left""]",[1.1803999999910957],False,,0.0,0.0,5.0,5.0,5.0,1.0,,,,,,
,,,,,,,,,,,,,,,,,,,,,0.025,,,,,,,,,,Stimuli/psy_fixed_rotation_30_objects_occ0.7_0.9s/images/train/n02828884_3/n02883344_-1/img_b04_wood_metal_park_bench_woven_box_2011_gray.jpg,n02828884_3,n02883344_-1,fixed,0.856768,n02883344_-1,Stimuli/psy_fixed_rotation_30_objects_occ0.7_0.9s/images/train/n02828884_3/n02883344_-1/img_b04_wood_metal_park_bench_woven_box_2011-3_gray.png,foreground,same as foreground,n02828884_3,n02883344_-1,Stimuli/canonical view 2/img_n02828884_3_gray.jpg,Stimuli/canonical view 2/img_n02883344_-1_gray.jpg,foreground,right,Experiments/experiment_8/24.jpg,Experiments/experiment_8/25.jpg,Experiments/experiment_8/26.jpg,Experiments/experiment_8/27.jpg,740,1,2023-05-26_13h03.02.990,Occlusion_Psychophysics,2022.1.4,Win32,60.08532116,,,left,"[""right""]",[1.5634999999999764],True,right,1.0,0.0,6.0,6.0,6.0,1.0,2.0843,,,,,
,,,,,,,,,,,,,,,,,,,,,0.025,,,,,,,,,,Stimuli/psy_fixed_rotation_30_objects_occ0.7_0.9s/images/train/n02818832_9/n02828884_3/img_bed01_blue_b04_wood_metal_park_bench_2005_gray.jpg,n02818832_9,n02828884_3,fixed,0.712711,n02828884_3,Stimuli/psy_fixed_rotation_30_objects_occ0.7_0.9s/images/train/n02818832_9/n02828884_3/img_bed01_blue_b04_wood_metal_park_bench_2005-3_gray.png,foreground,same as foreground,n02818832_9,n02828884_3,Stimuli/canonical view 2/img_n02818832_9_gray.jpg,Stimuli/canonical view 2/img_n02828884_3_gray.jpg,foreground,right,Experiments/experiment_8/28.jpg,Experiments/experiment_8/29.jpg,Experiments/experiment_8/30.jpg,Experiments/experiment_8/31.jpg,740,1,2023-05-26_13h03.02.990,Occlusion_Psychophysics,2022.1.4,Win32,60.08532116,,,left,"[""left""]",[1.0305000000000746],False,,0.0,0.0,7.0,7.0,7.0,1.0,,,,,,
,,,,,,,,,,,,,,,,,,,,,0.05,,,,,,,,,,Stimuli/psy_flexible_rotation_30_objects_occ0.7_0.9s/images/train/n03928116_4/n02933112_-2/img_dp_33_b_2013__vray_sink_base_white_wood_2009_gray.jpg,n03928116_4,n02933112_-2,flexible,0.7574,n02883344_15,Stimuli/psy_flexible_rotation_30_objects_occ0.7_0.9s/images/train/n03001627_9/n02883344_15/img_chair_eames_plastic_armchair_microwave_box_2014-3_gray.png,random,flexible,n03928116_4,n02883344_-1,Stimuli/canonical view 2/img_n03928116_4_gray.jpg,Stimuli/canonical view 2/img_n02883344_-1_gray.jpg,random,left,Experiments/experiment_8/32.jpg,Experiments/experiment_8/33.jpg,Experiments/experiment_8/34.jpg,Experiments/experiment_8/35.jpg,740,1,2023-05-26_13h03.02.990,Occlusion_Psychophysics,2022.1.4,Win32,60.08532116,,,right,"[""left""]",[1.747399999991103],False,,0.0,0.0,8.0,8.0,8.0,1.0,,,,,,
,,,,,,,,,,,,,,,,,,,,,0.05,,,,,,,,,,Stimuli/psy_flexible_rotation_30_objects_occ0.7_0.9s/images/train/n03001627_9/n04405907_8/img_chair_eames_plastic_armchair_stylized_tv_2002_gray.jpg,n03001627_9,n04405907_8,flexible,0.869669,n04405907_8,Stimuli/psy_flexible_rotation_30_objects_occ0.7_0.9s/images/train/n03001627_9/n04405907_8/img_chair_eames_plastic_armchair_stylized_tv_2002-3_gray.png,foreground,same as foreground,n03001627_9,n04405907_8,Stimuli/canonical view 2/img_n03001627_9_gray.jpg,Stimuli/canonical view 2/img_n04405907_8_gray.jpg,foreground,left,Experiments/experiment_8/36.jpg,Experiments/experiment_8/37.jpg,Experiments/experiment_8/38.jpg,Experiments/experiment_8/39.jpg,740,1,2023-05-26_13h03.02.990,Occlusion_Psychophysics,2022.1.4,Win32,60.08532116,,,left,"[""right""]",[2.3302999999970098],False,,0.0,0.0,9.0,9.0,9.0,1.0,,,,,,
,,,,,,,,,,,,,,,,,,,,,0.05,,,,,,,,,,Stimuli/psy_fixed_rotation_30_objects_occ0.7_0.9s/images/train/n03001627_9/n03928116_0/img_chair_eames_plastic_armchair_b02_piano_2000_gray.jpg,n03001627_9,n03928116_0,fixed,0.703486,n03928116_0,Stimuli/psy_fixed_rotation_30_objects_occ0.7_0.9s/images/train/n03001627_9/n03928116_0/img_chair_eames_plastic_armchair_b02_piano_2000-3_gray.png,foreground,same as foreground,n03001627_9,n03928116_0,Stimuli/canonical view 2/img_n03001627_9_gray.jpg,Stimuli/canonical view 2/img_n03928116_0_gray.jpg,foreground,left,Experiments/experiment_8/40.jpg,Experiments/experiment_8/41.jpg,Experiments/experiment_8/42.jpg,Experiments/experiment_8/43.jpg,740,1,2023-05-26_13h03.02.990,Occlusion_Psychophysics,2022.1.4,Win32,60.08532116,,,right,"[""right""]",[0.9980999999939968],False,,0.0,0.0,10.0,10.0,10.0,1.0,,,,,,
,,,,,,,,,,,,,,,,,,,,,0.05,,,,,,,,,,Stimuli/psy_fixed_rotation_30_objects_occ0.7_0.9s/images/train/n02933112_-2/n02818832_9/img_sink_base_white_wood_bed01_blue_2010_gray.jpg,n02933112_-2,n02818832_9,fixed,0.701238,n02818832_9,Stimuli/psy_fixed_rotation_30_objects_occ0.7_0.9s/images/train/n02933112_-2/n02818832_9/img_sink_base_white_wood_bed01_blue_2010-3_gray.png,foreground,same as foreground,n02933112_-2,n02818832_9,Stimuli/canonical view 2/img_n02933112_-2_gray.jpg,Stimuli/canonical view 2/img_n02818832_9_gray.jpg,foreground,right,Experiments/experiment_8/44.jpg,Experiments/experiment_8/45.jpg,Experiments/experiment_8/46.jpg,Experiments/experiment_8/47.jpg,740,1,2023-05-26_13h03.02.990,Occlusion_Psychophysics,2022.1.4,Win32,60.08532116,,,left,"[""left""]",[0.9973000000119328],False,,0.0,0.0,11.0,11.0,11.0,1.0,,,,,,
,,,,,,,,,,,,,,,,,,,,,0.05,,,,,,,,,,Stimuli/psy_flexible_rotation_30_objects_occ0.7_0.9s/images/train/n04379243_0/n02933112_-18/img_17th_c._monastery_dining_table_2010_cgaxis_models_48_26_vray_composite_2012_gray.jpg,n04379243_0,n02933112_-18,flexible,0.724607,n02933112_4,Stimuli/psy_flexible_rotation_30_objects_occ0.7_0.9s/images/train/n02933112_-18/n02933112_4/img_cgaxis_models_48_26_vray_composite_buffet_2004-3_gray.png,random,flexible,n04379243_0,n02933112_-18,Stimuli/canonical view 2/img_n04379243_0_gray.jpg,Stimuli/canonical view 2/img_n02933112_-18_gray.jpg,foreground,right,Experiments/experiment_8/48.jpg,Experiments/experiment_8/49.jpg,Experiments/experiment_8/50.jpg,Experiments/experiment_8/51.jpg,740,1,2023-05-26_13h03.02.990,Occlusion_Psychophysics,2022.1.4,Win32,60.08532116,,,right,"[""right""]",[0.7316000000089389],False,,0.0,0.0,12.0,12.0,12.0,1.0,,,,,,
,,,,,,,,,,,,,,,,,,,,,0.05,,,,,,,,,,Stimuli/psy_flexible_rotation_30_objects_occ0.7_0.9s/images/train/n04256520_9/n02883344_0/img_napoleon_iii_sofa_b03_box_2004_gray.jpg,n04256520_9,n02883344_0,flexible,0.704473,n02883344_0,Stimuli/psy_flexible_rotation_30_objects_occ0.7_0.9s/images/train/n04256520_9/n02883344_0/img_napoleon_iii_sofa_b03_box_2004-3_gray.png,foreground,same as foreground,n04256520_9,n02883344_0,Stimuli/canonical view 2/img_n04256520_9_gray.jpg,Stimuli/canonical view 2/img_n02883344_0_gray.jpg,foreground,right,Experiments/experiment_8/52.jpg,Experiments/experiment_8/53.jpg,Experiments/experiment_8/54.jpg,Experiments/experiment_8/55.jpg,740,1,2023-05-26_13h03.02.990,Occlusion_Psychophysics,2022.1.4,Win32,60.08532116,,,right,"[""right""]",[1.1284999999999172],False,,0.0,0.0,13.0,13.0,13.0,1.0,,,,,,
,,,,,,,,,,,,,,,,,,,,,0.025,,,,,,,,,,Stimuli/psy_flexible_rotation_30_objects_occ0.7_0.9s/images/train/n04256520_4/n02818832_3/img_club_house_italia_nautilus_sofa_b05_ccm_contemporary_bed_max2013_2013_gray.jpg,n04256520_4,n02818832_3,flexible,0.726606,n02883344_0,Stimuli/psy_fixed_rotation_30_objects_occ0.7_0.9s/images/train/n02933112_-2/n02883344_0/img_sink_base_white_wood_b03_box_2000-3_gray.png,random,fixed,n04256520_4,n04379243_0,Stimuli/canonical view 2/img_n04256520_4_gray.jpg,Stimuli/canonical view 2/img_n04379243_0_gray.jpg,random,right,Experiments/experiment_8/56.jpg,Experiments/experiment_8/57.jpg,Experiments/experiment_8/58.jpg,Experiments/experiment_8/59.jpg,740,1,2023-05-26_13h03.02.990,Occlusion_Psychophysics,2022.1.4,Win32,60.08532116,,,left,"[""right""]",[1.9805000000000064],False,,0.0,0.0,14.0,14.0,14.0,1.0,,,,,,
,,,,,,,,,,,,,,,,,,,,,0.025,,,,,,,,,,Stimuli/psy_fixed_rotation_30_objects_occ0.7_0.9s/images/train/n02883344_-1/n02883344_0/img_woven_box_b03_box_2000_gray.jpg,n02883344_-1,n02883344_0,fixed,0.704431,n02883344_0,Stimuli/psy_fixed_rotation_30_objects_occ0.7_0.9s/images/train/n02883344_-1/n02883344_0/img_woven_box_b03_box_2000-3_gray.png,foreground,same as foreground,n02883344_-1,n02883344_0,Stimuli/canonical view 2/img_n02883344_-1_gray.jpg,Stimuli/canonical view 2/img_n02883344_0_gray.jpg,foreground,right,Experiments/experiment_8/60.jpg,Experiments/experiment_8/61.jpg,Experiments/experiment_8/62.jpg,Experiments/experiment_8/63.jpg,740,1,2023-05-26_13h03.02.990,Occlusion_Psychophysics,2022.1.4,Win32,60.08532116,,,right,"[""left""]",[1.3967000000029657],False,,0.0,0.0,15.0,15.0,15.0,1.0,,,,,,
,,,,,,,,,,,,,,,,,,,,,0.05,,,,,,,,,,Stimuli/psy_fixed_rotation_30_objects_occ0.7_0.9s/images/train/n02883344_-1/n04379243_-7/img_woven_box_quatre_dining_table_2003_gray.jpg,n02883344_-1,n04379243_-7,fixed,0.848212,n02828884_3,Stimuli/psy_flexible_rotation_30_objects_occ0.7_0.9s/images/train/n04379243_0/n02828884_3/img_17th_c._monastery_dining_table_2010_b04_wood_metal_park_bench_2010-3_gray.png,random,flexible,n02883344_-1,n04379243_-7,Stimuli/canonical view 2/img_n02883344_-1_gray.jpg,Stimuli/canonical view 2/img_n04379243_-7_gray.jpg,foreground,left,Experiments/experiment_8/64.jpg,Experiments/experiment_8/65.jpg,Experiments/experiment_8/66.jpg,Experiments/experiment_8/67.jpg,740,1,2023-05-26_13h03.02.990,Occlusion_Psychophysics,2022.1.4,Win32,60.08532116,,,left,"[""left""]",[1.3807999999969525],False,,0.0,0.0,16.0,16.0,16.0,1.0,,,,,,
,,,,,,,,,,,,,,,,,,,,,0.05,,,,,,,,,,Stimuli/psy_fixed_rotation_30_objects_occ0.7_0.9s/images/train/n04405907_9/n02933112_-18/img_vray_004_cgaxis_models_48_26_vray_composite_2001_gray.jpg,n04405907_9,n02933112_-18,fixed,0.706751,n04379243_0,Stimuli/psy_fixed_rotation_30_objects_occ0.7_0.9s/images/train/n02828884_9/n04379243_0/img_cr-96_bench_17th_c._monastery_dining_table_2010_2000-3_gray.png,random,fixed,n04405907_9,n02933112_-18,Stimuli/canonical view 2/img_n04405907_9_gray.jpg,Stimuli/canonical view 2/img_n02933112_-18_gray.jpg,foreground,left,Experiments/experiment_8/68.jpg,Experiments/experiment_8/69.jpg,Experiments/experiment_8/70.jpg,Experiments/experiment_8/71.jpg,740,1,2023-05-26_13h03.02.990,Occlusion_Psychophysics,2022.1.4,Win32,60.08532116,,,right,"[""right""]",[0.6645999999940386],False,,0.0,0.0,17.0,17.0,17.0,1.0,,,,,,
,,,,,,,,,,,,,,,,,,,,,0.025,,,,,,,,,,Stimuli/psy_flexible_rotation_30_objects_occ0.7_0.9s/images/train/n02883344_-1/n04256520_5/img_woven_box_meridiani_belmondo_bench_sofa_2000_gray.jpg,n02883344_-1,n04256520_5,flexible,0.713397,n03928116_10,Stimuli/psy_fixed_rotation_30_objects_occ0.7_0.9s/images/train/n03928116_4/n03928116_10/img_dp_33_b_2013__vray_ydp_103_r_2012__vray_2005-3_gray.png,random,fixed,n02883344_-1,n02818832_9,Stimuli/canonical view 2/img_n02883344_-1_gray.jpg,Stimuli/canonical view 2/img_n02818832_9_gray.jpg,random,right,Experiments/experiment_8/72.jpg,Experiments/experiment_8/73.jpg,Experiments/experiment_8/74.jpg,Experiments/experiment_8/75.jpg,740,1,2023-05-26_13h03.02.990,Occlusion_Psychophysics,2022.1.4,Win32,60.08532116,,,right,"[""right""]",[0.7439000000058513],False,,0.0,0.0,18.0,18.0,18.0,1.0,,,,,,
,,,,,,,,,,,,,,,,,,,,,0.05,,,,,,,,,,Stimuli/psy_fixed_rotation_30_objects_occ0.7_0.9s/images/train/n02883344_15/n04256520_4/img_microwave_box_club_house_italia_nautilus_sofa_2013_gray.jpg,n02883344_15,n04256520_4,fixed,0.850293,n02883344_15,Stimuli/psy_flexible_rotation_30_objects_occ0.7_0.9s/images/train/n04405907_9/n02883344_15/img_vray_004_microwave_box_2011-3_gray.png,random,flexible,n02883344_15,n04256520_4,Stimuli/canonical view 2/img_n02883344_15_gray.jpg,Stimuli/canonical view 2/img_n04256520_4_gray.jpg,foreground,left,Experiments/experiment_8/76.jpg,Experiments/experiment_8/77.jpg,Experiments/experiment_8/78.jpg,Experiments/experiment_8/79.jpg,740,1,2023-05-26_13h03.02.990,Occlusion_Psychophysics,2022.1.4,Win32,60.08532116,,,left,"[""left""]",[1.5473000000118873],False,,0.0,0.0,19.0,19.0,19.0,1.0,,,,,,
,,,,,,,,,,,,,,,,,,,,,0.05,,,,,,,,,,Stimuli/psy_fixed_rotation_30_objects_occ0.7_0.9s/images/train/n02828884_4/n03928116_0/img_b05_c-5_classic_series_bench-2012_b02_piano_2003_gray.jpg,n02828884_4,n03928116_0,fixed,0.711563,n02883344_-1,Stimuli/psy_fixed_rotation_30_objects_occ0.7_0.9s/images/train/n03928116_10/n02883344_-1/img_ydp_103_r_2012__vray_woven_box_2010-3_gray.png,random,fixed,n02828884_4,n03928116_0,Stimuli/canonical view 2/img_n02828884_4_gray.jpg,Stimuli/canonical view 2/img_n03928116_0_gray.jpg,foreground,left,Experiments/experiment_8/80.jpg,Experiments/experiment_8/81.jpg,Experiments/experiment_8/82.jpg,Experiments/experiment_8/83.jpg,740,1,2023-05-26_13h03.02.990,Occlusion_Psychophysics,2022.1.4,Win32,60.08532116,,,right,"[""right""]",[1.197099999994066],False,,0.0,0.0,20.0,20.0,20.0,1.0,,,,,,
,,,,,,,,,,,,,,,,,,,,,0.025,,,,,,,,,,Stimuli/psy_flexible_rotation_30_objects_occ0.7_0.9s/images/train/n02818832_3/n02828884_3/img_b05_ccm_contemporary_bed_max2013_b04_wood_metal_park_bench_2011_gray.jpg,n02818832_3,n02828884_3,flexible,0.740145,n02883344_0,Stimuli/psy_flexible_rotation_30_objects_occ0.7_0.9s/images/train/n03928116_0/n02883344_0/img_b02_piano_b03_box_2003-3_gray.png,random,flexible,n02818832_3,n03928116_0,Stimuli/canonical view 2/img_n02818832_3_gray.jpg,Stimuli/canonical view 2/img_n03928116_0_gray.jpg,random,left,Experiments/experiment_8/84.jpg,Experiments/experiment_8/85.jpg,Experiments/experiment_8/86.jpg,Experiments/experiment_8/87.jpg,740,1,2023-05-26_13h03.02.990,Occlusion_Psychophysics,2022.1.4,Win32,60.08532116,,,left,"[""left""]",[1.0982000000029757],False,,0.0,0.0,21.0,21.0,21.0,1.0,,,,,,
,,,,,,,,,,,,,,,,,,,,,0.025,,,,,,,,,,Stimuli/psy_flexible_rotation_30_objects_occ0.7_0.9s/images/train/n02933112_-2/n02818832_3/img_sink_base_white_wood_b05_ccm_contemporary_bed_max2013_2009_gray.jpg,n02933112_-2,n02818832_3,flexible,0.712118,n02818832_3,Stimuli/psy_flexible_rotation_30_objects_occ0.7_0.9s/images/train/n02933112_-2/n02818832_3/img_sink_base_white_wood_b05_ccm_contemporary_bed_max2013_2009-3_gray.png,foreground,same as foreground,n02933112_-2,n02818832_3,Stimuli/canonical view 2/img_n02933112_-2_gray.jpg,Stimuli/canonical view 2/img_n02818832_3_gray.jpg,foreground,right,Experiments/experiment_8/88.jpg,Experiments/experiment_8/89.jpg,Experiments/experiment_8/90.jpg,Experiments/experiment_8/91.jpg,740,1,2023-05-26_13h03.02.990,Occlusion_Psychophysics,2022.1.4,Win32,60.08532116,,,left,"[""left""]",[1.3971999999880609],False,,0.0,0.0,22.0,22.0,22.0,1.0,,,,,,
,,,,,,,,,,,,,,,,,,,,,0.025,,,,,,,,,,Stimuli/psy_fixed_rotation_30_objects_occ0.7_0.9s/images/train/n02818832_3/n04405907_8/img_b05_ccm_contemporary_bed_max2013_stylized_tv_2006_gray.jpg,n02818832_3,n04405907_8,fixed,0.751954,n04405907_8,Stimuli/psy_fixed_rotation_30_objects_occ0.7_0.9s/images/train/n02818832_3/n04405907_8/img_b05_ccm_contemporary_bed_max2013_stylized_tv_2006-3_gray.png,foreground,same as foreground,n02818832_3,n04405907_8,Stimuli/canonical view 2/img_n02818832_3_gray.jpg,Stimuli/canonical view 2/img_n04405907_8_gray.jpg,foreground,left,Experiments/experiment_8/92.jpg,Experiments/experiment_8/93.jpg,Experiments/experiment_8/94.jpg,Experiments/experiment_8/95.jpg,740,1,2023-05-26_13h03.02.990,Occlusion_Psychophysics,2022.1.4,Win32,60.08532116,,,left,"[""left""]",[1.4807999999969752],False,,0.0,0.0,23.0,23.0,23.0,1.0,,,,,,
,,,,,,,,,,,,,,,,,,,,,0.025,,,,,,,,,,Stimuli/psy_fixed_rotation_30_objects_occ0.7_0.9s/images/train/n04379243_-7/n04256520_4/img_quatre_dining_table_club_house_italia_nautilus_sofa_2006_gray.jpg,n04379243_-7,n04256520_4,fixed,0.715752,n03928116_10,Stimuli/psy_fixed_rotation_30_objects_occ0.7_0.9s/images/train/n03928116_4/n03928116_10/img_dp_33_b_2013__vray_ydp_103_r_2012__vray_2000-3_gray.png,random,fixed,n04379243_-7,n03001627_9,Stimuli/canonical view 2/img_n04379243_-7_gray.jpg,Stimuli/canonical view 2/img_n03001627_9_gray.jpg,random,right,Experiments/experiment_8/96.jpg,Experiments/experiment_8/97.jpg,Experiments/experiment_8/98.jpg,Experiments/experiment_8/99.jpg,740,1,2023-05-26_13h03.02.990,Occlusion_Psychophysics,2022.1.4,Win32,60.08532116,,,right,"[""right""]",[1.5645000000000664],False,,0.0,0.0,24.0,24.0,24.0,1.0,,,,,,
,,,,,,,,,,,,,,,,,,,,,0.05,,,,,,,,,,Stimuli/psy_flexible_rotation_30_objects_occ0.7_0.9s/images/train/n02818832_0/n02933112_-2/img_b03_the_sofa_and_chair_company_-_stanley_bed_2014_sink_base_white_wood_2001_gray.jpg,n02818832_0,n02933112_-2,flexible,0.718196,n02818832_0,Stimuli/psy_flexible_rotation_30_objects_occ0.7_0.9s/images/train/n03928116_4/n02818832_0/img_dp_33_b_2013__vray_b03_the_sofa_and_chair_company_-_stanley_bed_2014_2004-3_gray.png,random,flexible,n02818832_0,n02933112_-2,Stimuli/canonical view 2/img_n02818832_0_gray.jpg,Stimuli/canonical view 2/img_n02933112_-2_gray.jpg,foreground,right,Experiments/experiment_8/100.jpg,Experiments/experiment_8/101.jpg,Experiments/experiment_8/102.jpg,Experiments/experiment_8/103.jpg,740,1,2023-05-26_13h03.02.990,Occlusion_Psychophysics,2022.1.4,Win32,60.08532116,,,right,"[""right""]",[0.880299999997078],False,,0.0,0.0,25.0,25.0,25.0,1.0,,,,,,
,,,,,,,,,,,,,,,,,,,,,0.05,,,,,,,,,,Stimuli/psy_fixed_rotation_30_objects_occ0.7_0.9s/images/train/n04379243_-7/n04405907_9/img_quatre_dining_table_vray_004_2000_gray.jpg,n04379243_-7,n04405907_9,fixed,0.781544,n04405907_9,Stimuli/psy_fixed_rotation_30_objects_occ0.7_0.9s/images/train/n04379243_-7/n04405907_9/img_quatre_dining_table_vray_004_2000-3_gray.png,foreground,same as foreground,n04379243_-7,n04405907_9,Stimuli/canonical view 2/img_n04379243_-7_gray.jpg,Stimuli/canonical view 2/img_n04405907_9_gray.jpg,foreground,right,Experiments/experiment_8/104.jpg,Experiments/experiment_8/105.jpg,Experiments/experiment_8/106.jpg,Experiments/experiment_8/107.jpg,740,1,2023-05-26_13h03.02.990,Occlusion_Psychophysics,2022.1.4,Win32,60.08532116,,,right,"[""right""]",[1.1478999999910684],False,,0.0,0.0,26.0,26.0,26.0,1.0,,,,,,
,,,,,,,,,,,,,,,,,,,,,0.025,,,,,,,,,,Stimuli/psy_flexible_rotation_30_objects_occ0.7_0.9s/images/train/n04256520_9/n04405907_9/img_napoleon_iii_sofa_vray_004_2008_gray.jpg,n04256520_9,n04405907_9,flexible,0.710712,n04405907_9,Stimuli/psy_flexible_rotation_30_objects_occ0.7_0.9s/images/train/n04256520_9/n04405907_9/img_napoleon_iii_sofa_vray_004_2008-3_gray.png,foreground,same as foreground,n04256520_9,n04405907_9,Stimuli/canonical view 2/img_n04256520_9_gray.jpg,Stimuli/canonical view 2/img_n04405907_9_gray.jpg,foreground,left,Experiments/experiment_8/108.jpg,Experiments/experiment_8/109.jpg,Experiments/experiment_8/110.jpg,Experiments/experiment_8/111.jpg,740,1,2023-05-26_13h03.02.990,Occlusion_Psychophysics,2022.1.4,Win32,60.08532116,,,right,"[""right""]",[0.8477000000029875],False,,0.0,0.0,27.0,27.0,27.0,1.0,,,,,,
,,,,,,,,,,,,,,,,,,,,,0.05,,,,,,,,,,Stimuli/psy_flexible_rotation_30_objects_occ0.7_0.9s/images/train/n04256520_9/n04379243_0/img_napoleon_iii_sofa_17th_c._monastery_dining_table_2010_2002_gray.jpg,n04256520_9,n04379243_0,flexible,0.743426,n04256520_9,Stimuli/psy_flexible_rotation_30_objects_occ0.7_0.9s/images/train/n04256520_9/n04256520_9/img_napoleon_iii_sofa_napoleon_iii_sofa_2005-3_gray.png,random,flexible,n04256520_9,n03928116_10,Stimuli/canonical view 2/img_n04256520_9_gray.jpg,Stimuli/canonical view 2/img_n03928116_10_gray.jpg,random,right,Experiments/experiment_8/112.jpg,Experiments/experiment_8/113.jpg,Experiments/experiment_8/114.jpg,Experiments/experiment_8/115.jpg,740,1,2023-05-26_13h03.02.990,Occlusion_Psychophysics,2022.1.4,Win32,60.08532116,,,left,"[""right""]",[1.6637999999970816],False,,0.0,0.0,28.0,28.0,28.0,1.0,,,,,,
,,,,,,,,,,,,,,,,,,,,,0.05,,,,,,,,,,Stimuli/psy_flexible_rotation_30_objects_occ0.7_0.9s/images/train/n03001627_-2/n02933112_-2/img_wood_chair_sink_base_white_wood_2008_gray.jpg,n03001627_-2,n02933112_-2,flexible,0.761727,n02933112_-2,Stimuli/psy_flexible_rotation_30_objects_occ0.7_0.9s/images/train/n03001627_-2/n02933112_-2/img_wood_chair_sink_base_white_wood_2008-3_gray.png,foreground,same as foreground,n03001627_-2,n02818832_3,Stimuli/canonical view 2/img_n03001627_-2_gray.jpg,Stimuli/canonical view 2/img_n02818832_3_gray.jpg,random,left,Experiments/experiment_8/116.jpg,Experiments/experiment_8/117.jpg,Experiments/experiment_8/118.jpg,Experiments/experiment_8/119.jpg,740,1,2023-05-26_13h03.02.990,Occlusion_Psychophysics,2022.1.4,Win32,60.08532116,,,left,"[""right""]",[0.8816999999880863],False,,0.0,0.0,29.0,29.0,29.0,1.0,,,,,,
,,,,,,,,,,,,,,,,,,,,,0.05,,,,,,,,,,Stimuli/psy_flexible_rotation_30_objects_occ0.7_0.9s/images/train/n02883344_-1/n02933112_4/img_woven_box_buffet_2006_gray.jpg,n02883344_-1,n02933112_4,flexible,0.860781,n02933112_4,Stimuli/psy_flexible_rotation_30_objects_occ0.7_0.9s/images/train/n02883344_-1/n02933112_4/img_woven_box_buffet_2006-3_gray.png,foreground,same as foreground,n02883344_-1,n02933112_4,Stimuli/canonical view 2/img_n02883344_-1_gray.jpg,Stimuli/canonical view 2/img_n02933112_4_gray.jpg,foreground,left,Experiments/experiment_8/120.jpg,Experiments/experiment_8/121.jpg,Experiments/experiment_8/122.jpg,Experiments/experiment_8/123.jpg,740,1,2023-05-26_13h03.02.990,Occlusion_Psychophysics,2022.1.4,Win32,60.08532116,,,left,"[""left""]",[1.9638999999910993],False,,0.0,0.0,30.0,30.0,30.0,1.0,,,,,,
,,,,,,,,,,,,,,,,,,,,,0.025,,,,,,,,,,Stimuli/psy_fixed_rotation_30_objects_occ0.7_0.9s/images/train/n02933112_-18/n02933112_4/img_cgaxis_models_48_26_vray_composite_buffet_2004_gray.jpg,n02933112_-18,n02933112_4,fixed,0.734821,n02933112_4,Stimuli/psy_fixed_rotation_30_objects_occ0.7_0.9s/images/train/n02933112_-18/n02933112_4/img_cgaxis_models_48_26_vray_composite_buffet_2004-3_gray.png,foreground,same as foreground,n02933112_-18,n02933112_4,Stimuli/canonical view 2/img_n02933112_-18_gray.jpg,Stimuli/canonical view 2/img_n02933112_4_gray.jpg,foreground,right,Experiments/experiment_8/124.jpg,Experiments/experiment_8/125.jpg,Experiments/experiment_8/126.jpg,Experiments/experiment_8/127.jpg,740,1,2023-05-26_13h03.02.990,Occlusion_Psychophysics,2022.1.4,Win32,60.08532116,,,right,"[""right""]",[1.1964000000059514],False,,0.0,0.0,31.0,31.0,31.0,1.0,,,,,,
,,,,,,,,,,,,,,,,,,,,,0.05,,,,,,,,,,Stimuli/psy_flexible_rotation_30_objects_occ0.7_0.9s/images/train/n02933112_4/n04405907_8/img_buffet_stylized_tv_2002_gray.jpg,n02933112_4,n04405907_8,flexible,0.70416,n02818832_3,Stimuli/psy_flexible_rotation_30_objects_occ0.7_0.9s/images/train/n02883344_0/n02818832_3/img_b03_box_b05_ccm_contemporary_bed_max2013_2014-3_gray.png,random,flexible,n02933112_4,n04405907_8,Stimuli/canonical view 2/img_n02933112_4_gray.jpg,Stimuli/canonical view 2/img_n04405907_8_gray.jpg,foreground,right,Experiments/experiment_8/128.jpg,Experiments/experiment_8/129.jpg,Experiments/experiment_8/130.jpg,Experiments/experiment_8/131.jpg,740,1,2023-05-26_13h03.02.990,Occlusion_Psychophysics,2022.1.4,Win32,60.08532116,,,right,"[""right""]",[1.0478000000118755],False,,0.0,0.0,32.0,32.0,32.0,1.0,,,,,,
,,,,,,,,,,,,,,,,,,,,,0.05,,,,,,,,,,Stimuli/psy_flexible_rotation_30_objects_occ0.7_0.9s/images/train/n04405907_5/n03928116_10/img_samsung_40_uhd_smart_tv_2011_ydp_103_r_2012__vray_2001_gray.jpg,n04405907_5,n03928116_10,flexible,0.786408,n03928116_10,Stimuli/psy_flexible_rotation_30_objects_occ0.7_0.9s/images/train/n04405907_5/n03928116_10/img_samsung_40_uhd_smart_tv_2011_ydp_103_r_2012__vray_2001-3_gray.png,foreground,same as foreground,n04405907_5,n04405907_8,Stimuli/canonical view 2/img_n04405907_5_gray.jpg,Stimuli/canonical view 2/img_n04405907_8_gray.jpg,random,left,Experiments/experiment_8/132.jpg,Experiments/experiment_8/133.jpg,Experiments/experiment_8/134.jpg,Experiments/experiment_8/135.jpg,740,1,2023-05-26_13h03.02.990,Occlusion_Psychophysics,2022.1.4,Win32,60.08532116,,,right,"[""left""]",[1.7138999999909856],False,,0.0,0.0,33.0,33.0,33.0,1.0,,,,,,
,,,,,,,,,,,,,,,,,,,,,0.025,,,,,,,,,,Stimuli/psy_fixed_rotation_30_objects_occ0.7_0.9s/images/train/n04379243_-7/n02883344_15/img_quatre_dining_table_microwave_box_2014_gray.jpg,n04379243_-7,n02883344_15,fixed,0.739628,n02828884_3,Stimuli/psy_fixed_rotation_30_objects_occ0.7_0.9s/images/train/n02828884_3/n02828884_3/img_b04_wood_metal_park_bench_b04_wood_metal_park_bench_2010-3_gray.png,random,fixed,n04379243_-7,n02818832_3,Stimuli/canonical view 2/img_n04379243_-7_gray.jpg,Stimuli/canonical view 2/img_n02818832_3_gray.jpg,random,right,Experiments/experiment_8/136.jpg,Experiments/experiment_8/137.jpg,Experiments/experiment_8/138.jpg,Experiments/experiment_8/139.jpg,740,1,2023-05-26_13h03.02.990,Occlusion_Psychophysics,2022.1.4,Win32,60.08532116,,,left,"[""right""]",[2.0766000000088525],False,,0.0,0.0,34.0,34.0,34.0,1.0,,,,,,
,,,,,,,,,,,,,,,,,,,,,0.025,,,,,,,,,,Stimuli/psy_fixed_rotation_30_objects_occ0.7_0.9s/images/train/n02818832_9/n04256520_5/img_bed01_blue_meridiani_belmondo_bench_sofa_2009_gray.jpg,n02818832_9,n04256520_5,fixed,0.706703,n04256520_5,Stimuli/psy_fixed_rotation_30_objects_occ0.7_0.9s/images/train/n02818832_9/n04256520_5/img_bed01_blue_meridiani_belmondo_bench_sofa_2009-3_gray.png,foreground,same as foreground,n02818832_9,n04256520_5,Stimuli/canonical view 2/img_n02818832_9_gray.jpg,Stimuli/canonical view 2/img_n04256520_5_gray.jpg,foreground,right,Experiments/experiment_8/140.jpg,Experiments/experiment_8/141.jpg,Experiments/experiment_8/142.jpg,Experiments/experiment_8/143.jpg,740,1,2023-05-26_13h03.02.990,Occlusion_Psychophysics,2022.1.4,Win32,60.08532116,,,left,"[""left""]",[1.2477000000029648],False,,0.0,0.0,35.0,35.0,35.0,1.0,,,,,,
,,,,,,,,,,,,,,,,,,,,,0.025,,,,,,,,,,Stimuli/psy_fixed_rotation_30_objects_occ0.7_0.9s/images/train/n03928116_4/n04379243_-7/img_dp_33_b_2013__vray_quatre_dining_table_2008_gray.jpg,n03928116_4,n04379243_-7,fixed,0.758979,n02818832_3,Stimuli/psy_fixed_rotation_30_objects_occ0.7_0.9s/images/train/n04405907_8/n02818832_3/img_stylized_tv_b05_ccm_contemporary_bed_max2013_2004-3_gray.png,random,fixed,n03928116_4,n04379243_-7,Stimuli/canonical view 2/img_n03928116_4_gray.jpg,Stimuli/canonical view 2/img_n04379243_-7_gray.jpg,foreground,left,Experiments/experiment_8/144.jpg,Experiments/experiment_8/145.jpg,Experiments/experiment_8/146.jpg,Experiments/experiment_8/147.jpg,740,1,2023-05-26_13h03.02.990,Occlusion_Psychophysics,2022.1.4,Win32,60.08532116,,,left,"[""right""]",[1.1312999999970543],False,,0.0,0.0,36.0,36.0,36.0,1.0,,,,,,
,,,,,,,,,,,,,,,,,,,,,0.025,,,,,,,,,,Stimuli/psy_flexible_rotation_30_objects_occ0.7_0.9s/images/train/n02818832_3/n03928116_4/img_b05_ccm_contemporary_bed_max2013_dp_33_b_2013__vray_2005_gray.jpg,n02818832_3,n03928116_4,flexible,0.767728,n02883344_-1,Stimuli/psy_flexible_rotation_30_objects_occ0.7_0.9s/images/train/n04379243_8/n02883344_-1/img_glass_table_woven_box_2015-3_gray.png,random,flexible,n02818832_3,n03928116_4,Stimuli/canonical view 2/img_n02818832_3_gray.jpg,Stimuli/canonical view 2/img_n03928116_4_gray.jpg,foreground,left,Experiments/experiment_8/148.jpg,Experiments/experiment_8/149.jpg,Experiments/experiment_8/150.jpg,Experiments/experiment_8/151.jpg,740,1,2023-05-26_13h03.02.990,Occlusion_Psychophysics,2022.1.4,Win32,60.08532116,,,left,"[""left""]",[1.5962999999970862],False,,0.0,0.0,37.0,37.0,37.0,1.0,,,,,,
,,,,,,,,,,,,,,,,,,,,,0.025,,,,,,,,,,Stimuli/psy_flexible_rotation_30_objects_occ0.7_0.9s/images/train/n02883344_15/n04379243_0/img_microwave_box_17th_c._monastery_dining_table_2010_2012_gray.jpg,n02883344_15,n04379243_0,flexible,0.739586,n03928116_0,Stimuli/psy_flexible_rotation_30_objects_occ0.7_0.9s/images/train/n02933112_-2/n03928116_0/img_sink_base_white_wood_b02_piano_2005-3_gray.png,random,flexible,n02883344_15,n03928116_10,Stimuli/canonical view 2/img_n02883344_15_gray.jpg,Stimuli/canonical view 2/img_n03928116_10_gray.jpg,random,left,Experiments/experiment_8/152.jpg,Experiments/experiment_8/153.jpg,Experiments/experiment_8/154.jpg,Experiments/experiment_8/155.jpg,740,1,2023-05-26_13h03.02.990,Occlusion_Psychophysics,2022.1.4,Win32,60.08532116,,,right,"[""left""]",[2.080900000005954],False,,0.0,0.0,38.0,38.0,38.0,1.0,,,,,,
,,,,,,,,,,,,,,,,,,,,,0.05,,,,,,,,,,Stimuli/psy_fixed_rotation_30_objects_occ0.7_0.9s/images/train/n04379243_-7/n03928116_0/img_quatre_dining_table_b02_piano_2009_gray.jpg,n04379243_-7,n03928116_0,fixed,0.714305,n03928116_0,Stimuli/psy_fixed_rotation_30_objects_occ0.7_0.9s/images/train/n04379243_-7/n03928116_0/img_quatre_dining_table_b02_piano_2009-3_gray.png,foreground,same as foreground,n04379243_-7,n04405907_9,Stimuli/canonical view 2/img_n04379243_-7_gray.jpg,Stimuli/canonical view 2/img_n04405907_9_gray.jpg,random,right,Experiments/experiment_8/156.jpg,Experiments/experiment_8/157.jpg,Experiments/experiment_8/158.jpg,Experiments/experiment_8/159.jpg,740,1,2023-05-26_13h03.02.990,Occlusion_Psychophysics,2022.1.4,Win32,60.08532116,,,left,"[""left""]",[1.2146000000088861],False,,0.0,0.0,39.0,39.0,39.0,1.0,,,,,,
,,,,,,,,,,,,,,,,,,,,,0.05,,,,,,,,,,Stimuli/psy_fixed_rotation_30_objects_occ0.7_0.9s/images/train/n04379243_8/n02933112_-2/img_glass_table_sink_base_white_wood_2013_gray.jpg,n04379243_8,n02933112_-2,fixed,0.742139,n04405907_8,Stimuli/psy_flexible_rotation_30_objects_occ0.7_0.9s/images/train/n04256520_9/n04405907_8/img_napoleon_iii_sofa_stylized_tv_2015-3_gray.png,random,flexible,n04379243_8,n02933112_-2,Stimuli/canonical view 2/img_n04379243_8_gray.jpg,Stimuli/canonical view 2/img_n02933112_-2_gray.jpg,foreground,right,Experiments/experiment_8/160.jpg,Experiments/experiment_8/161.jpg,Experiments/experiment_8/162.jpg,Experiments/experiment_8/163.jpg,740,1,2023-05-26_13h03.02.990,Occlusion_Psychophysics,2022.1.4,Win32,60.08532116,,,right,"[""left""]",[1.563900000006015],False,,0.0,0.0,40.0,40.0,40.0,1.0,,,,,,
,,,,,,,,,,,,,,,,,,,,,0.05,,,,,,,,,,Stimuli/psy_flexible_rotation_30_objects_occ0.7_0.9s/images/train/n04405907_8/n04256520_9/img_stylized_tv_napoleon_iii_sofa_2004_gray.jpg,n04405907_8,n04256520_9,flexible,0.707069,n04379243_-7,Stimuli/psy_fixed_rotation_30_objects_occ0.7_0.9s/images/train/n02883344_-1/n04379243_-7/img_woven_box_quatre_dining_table_2010-3_gray.png,random,fixed,n04405907_8,n04256520_9,Stimuli/canonical view 2/img_n04405907_8_gray.jpg,Stimuli/canonical view 2/img_n04256520_9_gray.jpg,foreground,right,Experiments/experiment_8/164.jpg,Experiments/experiment_8/165.jpg,Experiments/experiment_8/166.jpg,Experiments/experiment_8/167.jpg,740,1,2023-05-26_13h03.02.990,Occlusion_Psychophysics,2022.1.4,Win32,60.08532116,,,right,"[""right""]",[1.0969000000059168],False,,0.0,0.0,41.0,41.0,41.0,1.0,,,,,,
,,,,,,,,,,,,,,,,,,,,,0.025,,,,,,,,,,Stimuli/psy_flexible_rotation_30_objects_occ0.7_0.9s/images/train/n02933112_-18/n02818832_9/img_cgaxis_models_48_26_vray_composite_bed01_blue_2003_gray.jpg,n02933112_-18,n02818832_9,flexible,0.876572,n02818832_9,Stimuli/psy_flexible_rotation_30_objects_occ0.7_0.9s/images/train/n02933112_-18/n02818832_9/img_cgaxis_models_48_26_vray_composite_bed01_blue_2003-3_gray.png,foreground,same as foreground,n02933112_-18,n04405907_5,Stimuli/canonical view 2/img_n02933112_-18_gray.jpg,Stimuli/canonical view 2/img_n04405907_5_gray.jpg,random,left,Experiments/experiment_8/168.jpg,Experiments/experiment_8/169.jpg,Experiments/experiment_8/170.jpg,Experiments/experiment_8/171.jpg,740,1,2023-05-26_13h03.02.990,Occlusion_Psychophysics,2022.1.4,Win32,60.08532116,,,right,"[""right""]",[1.0637999999969452],False,,0.0,0.0,42.0,42.0,42.0,1.0,,,,,,
,,,,,,,,,,,,,,,,,,,,,0.025,,,,,,,,,,Stimuli/psy_flexible_rotation_30_objects_occ0.7_0.9s/images/train/n04379243_8/n02883344_-1/img_glass_table_woven_box_2002_gray.jpg,n04379243_8,n02883344_-1,flexible,0.706136,n02883344_-1,Stimuli/psy_flexible_rotation_30_objects_occ0.7_0.9s/images/train/n04379243_8/n02883344_-1/img_glass_table_woven_box_2002-3_gray.png,foreground,same as foreground,n04379243_8,n04379243_0,Stimuli/canonical view 2/img_n04379243_8_gray.jpg,Stimuli/canonical view 2/img_n04379243_0_gray.jpg,random,left,Experiments/experiment_8/172.jpg,Experiments/experiment_8/173.jpg,Experiments/experiment_8/174.jpg,Experiments/experiment_8/175.jpg,740,1,2023-05-26_13h03.02.990,Occlusion_Psychophysics,2022.1.4,Win32,60.08532116,,,right,"[""right""]",[0.815100000008897],False,,0.0,0.0,43.0,43.0,43.0,1.0,,,,,,
,,,,,,,,,,,,,,,,,,,,,0.05,,,,,,,,,,Stimuli/psy_flexible_rotation_30_objects_occ0.7_0.9s/images/train/n02883344_-1/n04405907_8/img_woven_box_stylized_tv_2013_gray.jpg,n02883344_-1,n04405907_8,flexible,0.72623,n04405907_8,Stimuli/psy_flexible_rotation_30_objects_occ0.7_0.9s/images/train/n02883344_-1/n04405907_8/img_woven_box_stylized_tv_2013-3_gray.png,foreground,same as foreground,n02883344_-1,n02883344_0,Stimuli/canonical view 2/img_n02883344_-1_gray.jpg,Stimuli/canonical view 2/img_n02883344_0_gray.jpg,random,left,Experiments/experiment_8/176.jpg,Experiments/experiment_8/177.jpg,Experiments/experiment_8/178.jpg,Experiments/experiment_8/179.jpg,740,1,2023-05-26_13h03.02.990,Occlusion_Psychophysics,2022.1.4,Win32,60.08532116,,,left,"[""left""]",[0.8472000000029993],False,,0.0,0.0,44.0,44.0,44.0,1.0,,,,,,
,,,,,,,,,,,,,,,,,,,,,0.05,,,,,,,,,,Stimuli/psy_flexible_rotation_30_objects_occ0.7_0.9s/images/train/n02818832_0/n04256520_9/img_b03_the_sofa_and_chair_company_-_stanley_bed_2014_napoleon_iii_sofa_2007_gray.jpg,n02818832_0,n04256520_9,flexible,0.811299,n03001627_8,Stimuli/psy_fixed_rotation_30_objects_occ0.7_0.9s/images/train/n04405907_9/n03001627_8/img_vray_004_chair_billiani_doll_2009-3_gray.png,random,fixed,n02818832_0,n04256520_9,Stimuli/canonical view 2/img_n02818832_0_gray.jpg,Stimuli/canonical view 2/img_n04256520_9_gray.jpg,foreground,right,Experiments/experiment_8/180.jpg,Experiments/experiment_8/181.jpg,Experiments/experiment_8/182.jpg,Experiments/experiment_8/183.jpg,740,1,2023-05-26_13h03.02.990,Occlusion_Psychophysics,2022.1.4,Win32,60.08532116,,,left,"[""right""]",[1.2307999999969752],False,,0.0,0.0,45.0,45.0,45.0,1.0,,,,,,
,,,,,,,,,,,,,,,,,,,,,0.025,,,,,,,,,,Stimuli/psy_fixed_rotation_30_objects_occ0.7_0.9s/images/train/n04379243_0/n02883344_-1/img_17th_c._monastery_dining_table_2010_woven_box_2014_gray.jpg,n04379243_0,n02883344_-1,fixed,0.731166,n02883344_-1,Stimuli/psy_fixed_rotation_30_objects_occ0.7_0.9s/images/train/n04379243_0/n02883344_-1/img_17th_c._monastery_dining_table_2010_woven_box_2014-3_gray.png,foreground,same as foreground,n04379243_0,n02883344_-1,Stimuli/canonical view 2/img_n04379243_0_gray.jpg,Stimuli/canonical view 2/img_n02883344_-1_gray.jpg,foreground,right,Experiments/experiment_8/184.jpg,Experiments/experiment_8/185.jpg,Experiments/experiment_8/186.jpg,Experiments/experiment_8/187.jpg,740,1,2023-05-26_13h03.02.990,Occlusion_Psychophysics,2022.1.4,Win32,60.08532116,,,right,"[""right""]",[0.7632999999970025],False,,0.0,0.0,46.0,46.0,46.0,1.0,,,,,,
,,,,,,,,,,,,,,,,,,,,,0.025,,,,,,,,,,Stimuli/psy_flexible_rotation_30_objects_occ0.7_0.9s/images/train/n04256520_4/n04405907_5/img_club_house_italia_nautilus_sofa_samsung_40_uhd_smart_tv_2011_2009_gray.jpg,n04256520_4,n04405907_5,flexible,0.70806,n04405907_5,Stimuli/psy_flexible_rotation_30_objects_occ0.7_0.9s/images/train/n04256520_4/n04405907_5/img_club_house_italia_nautilus_sofa_samsung_40_uhd_smart_tv_2011_2009-3_gray.png,foreground,same as foreground,n04256520_4,n04405907_5,Stimuli/canonical view 2/img_n04256520_4_gray.jpg,Stimuli/canonical view 2/img_n04405907_5_gray.jpg,foreground,left,Experiments/experiment_8/188.jpg,Experiments/experiment_8/189.jpg,Experiments/experiment_8/190.jpg,Experiments/experiment_8/191.jpg,740,1,2023-05-26_13h03.02.990,Occlusion_Psychophysics,2022.1.4,Win32,60.08532116,,,right,"[""right""]",[1.2812999999970316],False,,0.0,0.0,47.0,47.0,47.0,1.0,,,,,,
,,,,,,,,,,,,,,,,,,,,,0.025,,,,,,,,,,Stimuli/psy_flexible_rotation_30_objects_occ0.7_0.9s/images/train/n02828884_3/n04379243_-7/img_b04_wood_metal_park_bench_quatre_dining_table_2008_gray.jpg,n02828884_3,n04379243_-7,flexible,0.705713,n04256520_9,Stimuli/psy_fixed_rotation_30_objects_occ0.7_0.9s/images/train/n02883344_0/n04256520_9/img_b03_box_napoleon_iii_sofa_2006-3_gray.png,random,fixed,n02828884_3,n04379243_-7,Stimuli/canonical view 2/img_n02828884_3_gray.jpg,Stimuli/canonical view 2/img_n04379243_-7_gray.jpg,foreground,right,Experiments/experiment_8/192.jpg,Experiments/experiment_8/193.jpg,Experiments/experiment_8/194.jpg,Experiments/experiment_8/195.jpg,740,1,2023-05-26_13h03.02.990,Occlusion_Psychophysics,2022.1.4,Win32,60.08532116,,,left,"[""left""]",[1.1147999999969898],False,,0.0,0.0,48.0,48.0,48.0,1.0,,,,,,
,,,,,,,,,,,,,,,,,,,,,0.025,,,,,,,,,,Stimuli/psy_fixed_rotation_30_objects_occ0.7_0.9s/images/train/n04256520_9/n04405907_5/img_napoleon_iii_sofa_samsung_40_uhd_smart_tv_2011_2011_gray.jpg,n04256520_9,n04405907_5,fixed,0.754528,n04405907_5,Stimuli/psy_fixed_rotation_30_objects_occ0.7_0.9s/images/train/n04256520_9/n04405907_5/img_napoleon_iii_sofa_samsung_40_uhd_smart_tv_2011_2011-3_gray.png,foreground,same as foreground,n04256520_9,n04379243_0,Stimuli/canonical view 2/img_n04256520_9_gray.jpg,Stimuli/canonical view 2/img_n04379243_0_gray.jpg,random,right,Experiments/experiment_8/196.jpg,Experiments/experiment_8/197.jpg,Experiments/experiment_8/198.jpg,Experiments/experiment_8/199.jpg,740,1,2023-05-26_13h03.02.990,Occlusion_Psychophysics,2022.1.4,Win32,60.08532116,,,right,"[""right""]",[1.1474000000059732],False,,0.0,0.0,49.0,49.0,49.0,1.0,,,,,,
,,,,,,,,,,,,,,,,,,,,,0.025,,,,,,,,,,Stimuli/psy_fixed_rotation_30_objects_occ0.7_0.9s/images/train/n02933112_4/n04405907_8/img_buffet_stylized_tv_2012_gray.jpg,n02933112_4,n04405907_8,fixed,0.735931,n04256520_5,Stimuli/psy_fixed_rotation_30_objects_occ0.7_0.9s/images/train/n02828884_4/n04256520_5/img_b05_c-5_classic_series_bench-2012_meridiani_belmondo_bench_sofa_2007-3_gray.png,random,fixed,n02933112_4,n04256520_4,Stimuli/canonical view 2/img_n02933112_4_gray.jpg,Stimuli/canonical view 2/img_n04256520_4_gray.jpg,random,right,Experiments/experiment_8/200.jpg,Experiments/experiment_8/201.jpg,Experiments/experiment_8/202.jpg,Experiments/experiment_8/203.jpg,740,1,2023-05-26_13h03.02.990,Occlusion_Psychophysics,2022.1.4,Win32,60.08532116,,,right,"[""right""]",[1.480700000002912],False,,0.0,0.0,50.0,50.0,50.0,1.0,,,,,,
,,,,,,,,,,,,,,,,,,,,,0.025,,,,,,,,,,Stimuli/psy_flexible_rotation_30_objects_occ0.7_0.9s/images/train/n03001627_9/n02883344_-1/img_chair_eames_plastic_armchair_woven_box_2000_gray.jpg,n03001627_9,n02883344_-1,flexible,0.76747,n02818832_3,Stimuli/psy_flexible_rotation_30_objects_occ0.7_0.9s/images/train/n04256520_4/n02818832_3/img_club_house_italia_nautilus_sofa_b05_ccm_contemporary_bed_max2013_2009-3_gray.png,random,flexible,n03001627_9,n02883344_-1,Stimuli/canonical view 2/img_n03001627_9_gray.jpg,Stimuli/canonical view 2/img_n02883344_-1_gray.jpg,foreground,left,Experiments/experiment_8/204.jpg,Experiments/experiment_8/205.jpg,Experiments/experiment_8/206.jpg,Experiments/experiment_8/207.jpg,740,1,2023-05-26_13h03.02.990,Occlusion_Psychophysics,2022.1.4,Win32,60.08532116,,,right,"[""right""]",[0.9800999999940814],False,,0.0,0.0,51.0,51.0,51.0,1.0,,,,,,
,,,,,,,,,,,,,,,,,,,,,0.025,,,,,,,,,,Stimuli/psy_flexible_rotation_30_objects_occ0.7_0.9s/images/train/n04256520_5/n04405907_9/img_meridiani_belmondo_bench_sofa_vray_004_2015_gray.jpg,n04256520_5,n04405907_9,flexible,0.811384,n02933112_4,Stimuli/psy_flexible_rotation_30_objects_occ0.7_0.9s/images/train/n03001627_9/n02933112_4/img_chair_eames_plastic_armchair_buffet_2009-3_gray.png,random,flexible,n04256520_5,n02828884_9,Stimuli/canonical view 2/img_n04256520_5_gray.jpg,Stimuli/canonical view 2/img_n02828884_9_gray.jpg,random,right,Experiments/experiment_8/208.jpg,Experiments/experiment_8/209.jpg,Experiments/experiment_8/210.jpg,Experiments/experiment_8/211.jpg,740,1,2023-05-26_13h03.02.990,Occlusion_Psychophysics,2022.1.4,Win32,60.08532116,,,left,"[""left""]",[2.3970999999939977],False,,0.0,0.0,52.0,52.0,52.0,1.0,,,,,,
,,,,,,,,,,,,,,,,,,,,,0.05,,,,,,,,,,Stimuli/psy_flexible_rotation_30_objects_occ0.7_0.9s/images/train/n03928116_0/n04405907_8/img_b02_piano_stylized_tv_2005_gray.jpg,n03928116_0,n04405907_8,flexible,0.897267,n04405907_8,Stimuli/psy_flexible_rotation_30_objects_occ0.7_0.9s/images/train/n03928116_0/n04405907_8/img_b02_piano_stylized_tv_2005-3_gray.png,foreground,same as foreground,n03928116_0,n04405907_8,Stimuli/canonical view 2/img_n03928116_0_gray.jpg,Stimuli/canonical view 2/img_n04405907_8_gray.jpg,foreground,left,Experiments/experiment_8/212.jpg,Experiments/experiment_8/213.jpg,Experiments/experiment_8/214.jpg,Experiments/experiment_8/215.jpg,740,1,2023-05-26_13h03.02.990,Occlusion_Psychophysics,2022.1.4,Win32,60.08532116,,,right,"[""right""]",[0.8353999999910684],False,,0.0,0.0,53.0,53.0,53.0,1.0,,,,,,
,,,,,,,,,,,,,,,,,,,,,0.025,,,,,,,,,,Stimuli/psy_flexible_rotation_30_objects_occ0.7_0.9s/images/train/n02828884_4/n03928116_0/img_b05_c-5_classic_series_bench-2012_b02_piano_2013_gray.jpg,n02828884_4,n03928116_0,flexible,0.728278,n04379243_8,Stimuli/psy_fixed_rotation_30_objects_occ0.7_0.9s/images/train/n02828884_4/n04379243_8/img_b05_c-5_classic_series_bench-2012_glass_table_2015-3_gray.png,random,fixed,n02828884_4,n03928116_0,Stimuli/canonical view 2/img_n02828884_4_gray.jpg,Stimuli/canonical view 2/img_n03928116_0_gray.jpg,foreground,right,Experiments/experiment_8/216.jpg,Experiments/experiment_8/217.jpg,Experiments/experiment_8/218.jpg,Experiments/experiment_8/219.jpg,740,1,2023-05-26_13h03.02.990,Occlusion_Psychophysics,2022.1.4,Win32,60.08532116,,,right,"[""right""]",[1.46449999999993],False,,0.0,0.0,54.0,54.0,54.0,1.0,,,,,,
,,,,,,,,,,,,,,,,,,,,,0.05,,,,,,,,,,Stimuli/psy_fixed_rotation_30_objects_occ0.7_0.9s/images/train/n02828884_9/n02933112_-18/img_cr-96_bench_cgaxis_models_48_26_vray_composite_2012_gray.jpg,n02828884_9,n02933112_-18,fixed,0.790779,n02933112_-18,Stimuli/psy_fixed_rotation_30_objects_occ0.7_0.9s/images/train/n02828884_9/n02933112_-18/img_cr-96_bench_cgaxis_models_48_26_vray_composite_2012-3_gray.png,foreground,same as foreground,n02828884_9,n02933112_-18,Stimuli/canonical view 2/img_n02828884_9_gray.jpg,Stimuli/canonical view 2/img_n02933112_-18_gray.jpg,foreground,right,Experiments/experiment_8/220.jpg,Experiments/experiment_8/221.jpg,Experiments/experiment_8/222.jpg,Experiments/experiment_8/223.jpg,740,1,2023-05-26_13h03.02.990,Occlusion_Psychophysics,2022.1.4,Win32,60.08532116,,,left,"[""left""]",[1.280999999999949],False,,0.0,0.0,55.0,55.0,55.0,1.0,,,,,,
,,,,,,,,,,,,,,,,,,,,,0.05,,,,,,,,,,Stimuli/psy_fixed_rotation_30_objects_occ0.7_0.9s/images/train/n02933112_4/n04379243_0/img_buffet_17th_c._monastery_dining_table_2010_2009_gray.jpg,n02933112_4,n04379243_0,fixed,0.793746,n02933112_-18,Stimuli/psy_fixed_rotation_30_objects_occ0.7_0.9s/images/train/n02883344_0/n02933112_-18/img_b03_box_cgaxis_models_48_26_vray_composite_2015-3_gray.png,random,fixed,n02933112_4,n02818832_3,Stimuli/canonical view 2/img_n02933112_4_gray.jpg,Stimuli/canonical view 2/img_n02818832_3_gray.jpg,random,right,Experiments/experiment_8/224.jpg,Experiments/experiment_8/225.jpg,Experiments/experiment_8/226.jpg,Experiments/experiment_8/227.jpg,740,1,2023-05-26_13h03.02.990,Occlusion_Psychophysics,2022.1.4,Win32,60.08532116,,,right,"[""right""]",[2.0307000000029802],False,,0.0,0.0,56.0,56.0,56.0,1.0,,,,,,
,,,,,,,,,,,,,,,,,,,,,0.05,,,,,,,,,,Stimuli/psy_flexible_rotation_30_objects_occ0.7_0.9s/images/train/n04405907_5/n04256520_4/img_samsung_40_uhd_smart_tv_2011_club_house_italia_nautilus_sofa_2005_gray.jpg,n04405907_5,n04256520_4,flexible,0.744981,n02818832_3,Stimuli/psy_flexible_rotation_30_objects_occ0.7_0.9s/images/train/n04070727_5/n02818832_3/img_b05_db_apps_tech_06_13_composite_b05_ccm_contemporary_bed_max2013_2004-3_gray.png,random,flexible,n04405907_5,n04256520_4,Stimuli/canonical view 2/img_n04405907_5_gray.jpg,Stimuli/canonical view 2/img_n04256520_4_gray.jpg,foreground,left,Experiments/experiment_8/228.jpg,Experiments/experiment_8/229.jpg,Experiments/experiment_8/230.jpg,Experiments/experiment_8/231.jpg,740,1,2023-05-26_13h03.02.990,Occlusion_Psychophysics,2022.1.4,Win32,60.08532116,,,right,"[""right""]",[2.397799999997005],False,,0.0,0.0,57.0,57.0,57.0,1.0,,,,,,
,,,,,,,,,,,,,,,,,,,,,0.05,,,,,,,,,,Stimuli/psy_fixed_rotation_30_objects_occ0.7_0.9s/images/train/n03001627_9/n02828884_3/img_chair_eames_plastic_armchair_b04_wood_metal_park_bench_2002_gray.jpg,n03001627_9,n02828884_3,fixed,0.810795,n02828884_3,Stimuli/psy_fixed_rotation_30_objects_occ0.7_0.9s/images/train/n03001627_9/n02828884_3/img_chair_eames_plastic_armchair_b04_wood_metal_park_bench_2002-3_gray.png,foreground,same as foreground,n03001627_9,n02828884_3,Stimuli/canonical view 2/img_n03001627_9_gray.jpg,Stimuli/canonical view 2/img_n02828884_3_gray.jpg,foreground,right,Experiments/experiment_8/232.jpg,Experiments/experiment_8/233.jpg,Experiments/experiment_8/234.jpg,Experiments/experiment_8/235.jpg,740,1,2023-05-26_13h03.02.990,Occlusion_Psychophysics,2022.1.4,Win32,60.08532116,,,right,"[""right""]",[1.131100000008928],False,,0.0,0.0,58.0,58.0,58.0,1.0,,,,,,
,,,,,,,,,,,,,,,,,,,,,0.025,,,,,,,,,,Stimuli/psy_flexible_rotation_30_objects_occ0.7_0.9s/images/train/n04405907_9/n02818832_3/img_vray_004_b05_ccm_contemporary_bed_max2013_2013_gray.jpg,n04405907_9,n02818832_3,flexible,0.882368,n02818832_3,Stimuli/psy_flexible_rotation_30_objects_occ0.7_0.9s/images/train/n04405907_9/n02818832_3/img_vray_004_b05_ccm_contemporary_bed_max2013_2013-3_gray.png,foreground,same as foreground,n04405907_9,n04379243_0,Stimuli/canonical view 2/img_n04405907_9_gray.jpg,Stimuli/canonical view 2/img_n04379243_0_gray.jpg,random,left,Experiments/experiment_8/236.jpg,Experiments/experiment_8/237.jpg,Experiments/experiment_8/238.jpg,Experiments/experiment_8/239.jpg,740,1,2023-05-26_13h03.02.990,Occlusion_Psychophysics,2022.1.4,Win32,60.08532116,,,right,"[""right""]",[1.046299999997018],False,,0.0,0.0,59.0,59.0,59.0,1.0,,,,,,
,,,,,,,,,,,,,,,,,,,,,0.05,,,,,,,,,,Stimuli/psy_flexible_rotation_30_objects_occ0.7_0.9s/images/train/n04405907_5/n02883344_0/img_samsung_40_uhd_smart_tv_2011_b03_box_2008_gray.jpg,n04405907_5,n02883344_0,flexible,0.719392,n02818832_3,Stimuli/psy_fixed_rotation_30_objects_occ0.7_0.9s/images/train/n02818832_0/n02818832_3/img_b03_the_sofa_and_chair_company_-_stanley_bed_2014_b05_ccm_contemporary_bed_max2013_2003-3_gray.png,random,fixed,n04405907_5,n02828884_9,Stimuli/canonical view 2/img_n04405907_5_gray.jpg,Stimuli/canonical view 2/img_n02828884_9_gray.jpg,random,right,Experiments/experiment_8/240.jpg,Experiments/experiment_8/241.jpg,Experiments/experiment_8/242.jpg,Experiments/experiment_8/243.jpg,740,1,2023-05-26_13h03.02.990,Occlusion_Psychophysics,2022.1.4,Win32,60.08532116,,,right,"[""right""]",[0.7976999999880263],False,,0.0,0.0,60.0,60.0,60.0,1.0,,,,,,
,,,,,,,,,,,,,,,,,,,,,0.05,,,,,,,,,,Stimuli/psy_fixed_rotation_30_objects_occ0.7_0.9s/images/train/n02818832_0/n04256520_9/img_b03_the_sofa_and_chair_company_-_stanley_bed_2014_napoleon_iii_sofa_2000_gray.jpg,n02818832_0,n04256520_9,fixed,0.76099,n04256520_9,Stimuli/psy_fixed_rotation_30_objects_occ0.7_0.9s/images/train/n02818832_0/n04256520_9/img_b03_the_sofa_and_chair_company_-_stanley_bed_2014_napoleon_iii_sofa_2000-3_gray.png,foreground,same as foreground,n02818832_0,n04256520_9,Stimuli/canonical view 2/img_n02818832_0_gray.jpg,Stimuli/canonical view 2/img_n04256520_9_gray.jpg,foreground,left,Experiments/experiment_8/244.jpg,Experiments/experiment_8/245.jpg,Experiments/experiment_8/246.jpg,Experiments/experiment_8/247.jpg,740,1,2023-05-26_13h03.02.990,Occlusion_Psychophysics,2022.1.4,Win32,60.08532116,,,right,"[""right""]",[0.897700000002942],False,,0.0,0.0,61.0,61.0,61.0,1.0,,,,,,
,,,,,,,,,,,,,,,,,,,,,0.025,,,,,,,,,,Stimuli/psy_fixed_rotation_30_objects_occ0.7_0.9s/images/train/n04256520_5/n02828884_3/img_meridiani_belmondo_bench_sofa_b04_wood_metal_park_bench_2004_gray.jpg,n04256520_5,n02828884_3,fixed,0.891938,n02828884_3,Stimuli/psy_fixed_rotation_30_objects_occ0.7_0.9s/images/train/n04256520_5/n02828884_3/img_meridiani_belmondo_bench_sofa_b04_wood_metal_park_bench_2004-3_gray.png,foreground,same as foreground,n04256520_5,n04379243_-7,Stimuli/canonical view 2/img_n04256520_5_gray.jpg,Stimuli/canonical view 2/img_n04379243_-7_gray.jpg,random,left,Experiments/experiment_8/248.jpg,Experiments/experiment_8/249.jpg,Experiments/experiment_8/250.jpg,Experiments/experiment_8/251.jpg,740,1,2023-05-26_13h03.02.990,Occlusion_Psychophysics,2022.1.4,Win32,60.08532116,,,right,"[""left""]",[1.8803999999910275],False,,0.0,0.0,62.0,62.0,62.0,1.0,,,,,,
,,,,,,,,,,,,,,,,,,,,,0.05,,,,,,,,,,Stimuli/psy_fixed_rotation_30_objects_occ0.7_0.9s/images/train/n04405907_5/n04256520_4/img_samsung_40_uhd_smart_tv_2011_club_house_italia_nautilus_sofa_2008_gray.jpg,n04405907_5,n04256520_4,fixed,0.8637,n04256520_4,Stimuli/psy_fixed_rotation_30_objects_occ0.7_0.9s/images/train/n04405907_5/n04256520_4/img_samsung_40_uhd_smart_tv_2011_club_house_italia_nautilus_sofa_2008-3_gray.png,foreground,same as foreground,n04405907_5,n04256520_4,Stimuli/canonical view 2/img_n04405907_5_gray.jpg,Stimuli/canonical view 2/img_n04256520_4_gray.jpg,foreground,right,Experiments/experiment_8/252.jpg,Experiments/experiment_8/253.jpg,Experiments/experiment_8/254.jpg,Experiments/experiment_8/255.jpg,740,1,2023-05-26_13h03.02.990,Occlusion_Psychophysics,2022.1.4,Win32,60.08532116,,,right,"[""right""]",[1.765200000002892],False,,0.0,0.0,63.0,63.0,63.0,1.0,,,,,,
,,,,,,,,,,,,,,,,,,,,,0.025,,,,,,,,,,Stimuli/psy_fixed_rotation_30_objects_occ0.7_0.9s/images/train/n02933112_4/n02933112_-2/img_buffet_sink_base_white_wood_2004_gray.jpg,n02933112_4,n02933112_-2,fixed,0.854797,n04405907_9,Stimuli/psy_flexible_rotation_30_objects_occ0.7_0.9s/images/train/n04379243_8/n04405907_9/img_glass_table_vray_004_2007-3_gray.png,random,flexible,n02933112_4,n02933112_-2,Stimuli/canonical view 2/img_n02933112_4_gray.jpg,Stimuli/canonical view 2/img_n02933112_-2_gray.jpg,foreground,right,Experiments/experiment_8/256.jpg,Experiments/experiment_8/257.jpg,Experiments/experiment_8/258.jpg,Experiments/experiment_8/259.jpg,740,1,2023-05-26_13h03.02.990,Occlusion_Psychophysics,2022.1.4,Win32,60.08532116,,,left,"[""left""]",[0.8472999999970625],False,,0.0,0.0,64.0,64.0,64.0,1.0,,,,,,
,,,,,,,,,,,,,,,,,,,,,0.05,,,,,,,,,,Stimuli/psy_flexible_rotation_30_objects_occ0.7_0.9s/images/train/n03928116_0/n04256520_5/img_b02_piano_meridiani_belmondo_bench_sofa_2008_gray.jpg,n03928116_0,n04256520_5,flexible,0.7225,n04256520_5,Stimuli/psy_flexible_rotation_30_objects_occ0.7_0.9s/images/train/n03928116_0/n04256520_5/img_b02_piano_meridiani_belmondo_bench_sofa_2008-3_gray.png,foreground,same as foreground,n03928116_0,n03001627_-2,Stimuli/canonical view 2/img_n03928116_0_gray.jpg,Stimuli/canonical view 2/img_n03001627_-2_gray.jpg,random,left,Experiments/experiment_8/260.jpg,Experiments/experiment_8/261.jpg,Experiments/experiment_8/262.jpg,Experiments/experiment_8/263.jpg,740,1,2023-05-26_13h03.02.990,Occlusion_Psychophysics,2022.1.4,Win32,60.08532116,,,right,"[""right""]",[0.7137999999970361],False,,0.0,0.0,65.0,65.0,65.0,1.0,,,,,,
,,,,,,,,,,,,,,,,,,,,,0.025,,,,,,,,,,Stimuli/psy_fixed_rotation_30_objects_occ0.7_0.9s/images/train/n02933112_-18/n04405907_9/img_cgaxis_models_48_26_vray_composite_vray_004_2000_gray.jpg,n02933112_-18,n04405907_9,fixed,0.756977,n02818832_0,Stimuli/psy_fixed_rotation_30_objects_occ0.7_0.9s/images/train/n02818832_9/n02818832_0/img_bed01_blue_b03_the_sofa_and_chair_company_-_stanley_bed_2014_2002-3_gray.png,random,fixed,n02933112_-18,n03001627_8,Stimuli/canonical view 2/img_n02933112_-18_gray.jpg,Stimuli/canonical view 2/img_n03001627_8_gray.jpg,random,right,Experiments/experiment_8/264.jpg,Experiments/experiment_8/265.jpg,Experiments/experiment_8/266.jpg,Experiments/experiment_8/267.jpg,740,1,2023-05-26_13h03.02.990,Occlusion_Psychophysics,2022.1.4,Win32,60.08532116,,,right,"[""right""]",[1.1812999999970089],False,,0.0,0.0,66.0,66.0,66.0,1.0,,,,,,
,,,,,,,,,,,,,,,,,,,,,0.05,,,,,,,,,,Stimuli/psy_fixed_rotation_30_objects_occ0.7_0.9s/images/train/n02933112_-18/n04405907_9/img_cgaxis_models_48_26_vray_composite_vray_004_2013_gray.jpg,n02933112_-18,n04405907_9,fixed,0.806856,n04405907_9,Stimuli/psy_fixed_rotation_30_objects_occ0.7_0.9s/images/train/n02933112_-18/n04405907_9/img_cgaxis_models_48_26_vray_composite_vray_004_2013-3_gray.png,foreground,same as foreground,n02933112_-18,n04405907_9,Stimuli/canonical view 2/img_n02933112_-18_gray.jpg,Stimuli/canonical view 2/img_n04405907_9_gray.jpg,foreground,right,Experiments/experiment_8/268.jpg,Experiments/experiment_8/269.jpg,Experiments/experiment_8/270.jpg,Experiments/experiment_8/271.jpg,740,1,2023-05-26_13h03.02.990,Occlusion_Psychophysics,2022.1.4,Win32,60.08532116,,,right,"[""right""]",[1.030599999994024],False,,0.0,0.0,67.0,67.0,67.0,1.0,,,,,,
,,,,,,,,,,,,,,,,,,,,,0.025,,,,,,,,,,Stimuli/psy_flexible_rotation_30_objects_occ0.7_0.9s/images/train/n04379243_8/n04379243_-7/img_glass_table_quatre_dining_table_2007_gray.jpg,n04379243_8,n04379243_-7,flexible,0.715956,n02828884_3,Stimuli/psy_fixed_rotation_30_objects_occ0.7_0.9s/images/train/n03001627_9/n02828884_3/img_chair_eames_plastic_armchair_b04_wood_metal_park_bench_2009-3_gray.png,random,fixed,n04379243_8,n04405907_5,Stimuli/canonical view 2/img_n04379243_8_gray.jpg,Stimuli/canonical view 2/img_n04405907_5_gray.jpg,random,left,Experiments/experiment_8/272.jpg,Experiments/experiment_8/273.jpg,Experiments/experiment_8/274.jpg,Experiments/experiment_8/275.jpg,740,1,2023-05-26_13h03.02.990,Occlusion_Psychophysics,2022.1.4,Win32,60.08532116,,,left,"[""left""]",[0.5989000000059832],True,left,1.0,0.0,68.0,68.0,68.0,1.0,1.3669,,,,,
,,,,,,,,,,,,,,,,,,,,,0.025,,,,,,,,,,Stimuli/psy_fixed_rotation_30_objects_occ0.7_0.9s/images/train/n02933112_4/n04379243_0/img_buffet_17th_c._monastery_dining_table_2010_2005_gray.jpg,n02933112_4,n04379243_0,fixed,0.771262,n04405907_5,Stimuli/psy_fixed_rotation_30_objects_occ0.7_0.9s/images/train/n04379243_8/n04405907_5/img_glass_table_samsung_40_uhd_smart_tv_2011_2009-3_gray.png,random,fixed,n02933112_4,n04379243_0,Stimuli/canonical view 2/img_n02933112_4_gray.jpg,Stimuli/canonical view 2/img_n04379243_0_gray.jpg,foreground,left,Experiments/experiment_8/276.jpg,Experiments/experiment_8/277.jpg,Experiments/experiment_8/278.jpg,Experiments/experiment_8/279.jpg,740,1,2023-05-26_13h03.02.990,Occlusion_Psychophysics,2022.1.4,Win32,60.08532116,,,right,"[""right""]",[0.6979999999999791],False,,0.0,0.0,69.0,69.0,69.0,1.0,,,,,,
,,,,,,,,,,,,,,,,,,,,,0.05,,,,,,,,,,Stimuli/psy_fixed_rotation_30_objects_occ0.7_0.9s/images/train/n04405907_5/n03928116_10/img_samsung_40_uhd_smart_tv_2011_ydp_103_r_2012__vray_2002_gray.jpg,n04405907_5,n03928116_10,fixed,0.782978,n04379243_0,Stimuli/psy_flexible_rotation_30_objects_occ0.7_0.9s/images/train/n02818832_0/n04379243_0/img_b03_the_sofa_and_chair_company_-_stanley_bed_2014_17th_c._monastery_dining_table_2010_2007-3_gray.png,random,flexible,n04405907_5,n03928116_10,Stimuli/canonical view 2/img_n04405907_5_gray.jpg,Stimuli/canonical view 2/img_n03928116_10_gray.jpg,foreground,right,Experiments/experiment_8/280.jpg,Experiments/experiment_8/281.jpg,Experiments/experiment_8/282.jpg,Experiments/experiment_8/283.jpg,740,1,2023-05-26_13h03.02.990,Occlusion_Psychophysics,2022.1.4,Win32,60.08532116,,,right,"[""right""]",[1.4312000000029457],False,,0.0,0.0,70.0,70.0,70.0,1.0,,,,,,
,,,,,,,,,,,,,,,,,,,,,0.05,,,,,,,,,,Stimuli/psy_flexible_rotation_30_objects_occ0.7_0.9s/images/train/n02933112_-18/n02933112_4/img_cgaxis_models_48_26_vray_composite_buffet_2005_gray.jpg,n02933112_-18,n02933112_4,flexible,0.715429,n03928116_0,Stimuli/psy_fixed_rotation_30_objects_occ0.7_0.9s/images/train/n03001627_9/n03928116_0/img_chair_eames_plastic_armchair_b02_piano_2009-3_gray.png,random,fixed,n02933112_-18,n02933112_-2,Stimuli/canonical view 2/img_n02933112_-18_gray.jpg,Stimuli/canonical view 2/img_n02933112_-2_gray.jpg,random,right,Experiments/experiment_8/284.jpg,Experiments/experiment_8/285.jpg,Experiments/experiment_8/286.jpg,Experiments/experiment_8/287.jpg,740,1,2023-05-26_13h03.02.990,Occlusion_Psychophysics,2022.1.4,Win32,60.08532116,,,right,"[""left""]",[0.7644999999999982],False,,0.0,0.0,71.0,71.0,71.0,1.0,,,,,,
,,,,,,,,,,,,,,,,,,,,,0.05,,,,,,,,,,Stimuli/psy_flexible_rotation_30_objects_occ0.7_0.9s/images/train/n02883344_15/n02828884_3/img_microwave_box_b04_wood_metal_park_bench_2000_gray.jpg,n02883344_15,n02828884_3,flexible,0.785322,n02933112_4,Stimuli/psy_flexible_rotation_30_objects_occ0.7_0.9s/images/train/n03001627_8/n02933112_4/img_chair_billiani_doll_buffet_2000-3_gray.png,random,flexible,n02883344_15,n02933112_4,Stimuli/canonical view 2/img_n02883344_15_gray.jpg,Stimuli/canonical view 2/img_n02933112_4_gray.jpg,random,right,Experiments/experiment_8/288.jpg,Experiments/experiment_8/289.jpg,Experiments/experiment_8/290.jpg,Experiments/experiment_8/291.jpg,740,1,2023-05-26_13h03.02.990,Occlusion_Psychophysics,2022.1.4,Win32,60.08532116,,,right,"[""right""]",[1.3637999999970134],False,,0.0,0.0,72.0,72.0,72.0,1.0,,,,,,
,,,,,,,,,,,,,,,,,,,,,0.05,,,,,,,,,,Stimuli/psy_flexible_rotation_30_objects_occ0.7_0.9s/images/train/n02933112_4/n04256520_4/img_buffet_club_house_italia_nautilus_sofa_2015_gray.jpg,n02933112_4,n04256520_4,flexible,0.813587,n04256520_4,Stimuli/psy_flexible_rotation_30_objects_occ0.7_0.9s/images/train/n02933112_4/n04256520_4/img_buffet_club_house_italia_nautilus_sofa_2015-3_gray.png,foreground,same as foreground,n02933112_4,n04405907_5,Stimuli/canonical view 2/img_n02933112_4_gray.jpg,Stimuli/canonical view 2/img_n04405907_5_gray.jpg,random,right,Experiments/experiment_8/292.jpg,Experiments/experiment_8/293.jpg,Experiments/experiment_8/294.jpg,Experiments/experiment_8/295.jpg,740,1,2023-05-26_13h03.02.990,Occlusion_Psychophysics,2022.1.4,Win32,60.08532116,,,right,"[""right""]",[1.3299000000059777],False,,0.0,0.0,73.0,73.0,73.0,1.0,,,,,,
,,,,,,,,,,,,,,,,,,,,,0.05,,,,,,,,,,Stimuli/psy_fixed_rotation_30_objects_occ0.7_0.9s/images/train/n04405907_8/n03001627_9/img_stylized_tv_chair_eames_plastic_armchair_2009_gray.jpg,n04405907_8,n03001627_9,fixed,0.861013,n03001627_9,Stimuli/psy_fixed_rotation_30_objects_occ0.7_0.9s/images/train/n04405907_8/n03001627_9/img_stylized_tv_chair_eames_plastic_armchair_2009-3_gray.png,foreground,same as foreground,n04405907_8,n03001627_9,Stimuli/canonical view 2/img_n04405907_8_gray.jpg,Stimuli/canonical view 2/img_n03001627_9_gray.jpg,foreground,right,Experiments/experiment_8/296.jpg,Experiments/experiment_8/297.jpg,Experiments/experiment_8/298.jpg,Experiments/experiment_8/299.jpg,740,1,2023-05-26_13h03.02.990,Occlusion_Psychophysics,2022.1.4,Win32,60.08532116,,,left,"[""left""]",[1.2974000000059505],False,,0.0,0.0,74.0,74.0,74.0,1.0,,,,,,
,,,,,,,,,,,,,,,,,,,,,0.025,,,,,,,,,,Stimuli/psy_fixed_rotation_30_objects_occ0.7_0.9s/images/train/n02818832_9/n02883344_-1/img_bed01_blue_woven_box_2012_gray.jpg,n02818832_9,n02883344_-1,fixed,0.772183,n03001627_9,Stimuli/psy_fixed_rotation_30_objects_occ0.7_0.9s/images/train/n04405907_8/n03001627_9/img_stylized_tv_chair_eames_plastic_armchair_2012-3_gray.png,random,fixed,n02818832_9,n02883344_-1,Stimuli/canonical view 2/img_n02818832_9_gray.jpg,Stimuli/canonical view 2/img_n02883344_-1_gray.jpg,foreground,left,Experiments/experiment_8/300.jpg,Experiments/experiment_8/301.jpg,Experiments/experiment_8/302.jpg,Experiments/experiment_8/303.jpg,740,1,2023-05-26_13h03.02.990,Occlusion_Psychophysics,2022.1.4,Win32,60.08532116,,,right,"[""left""]",[1.3137999999970589],False,,0.0,0.0,75.0,75.0,75.0,1.0,,,,,,
,,,,,,,,,,,,,,,,,,,,,0.05,,,,,,,,,,Stimuli/psy_fixed_rotation_30_objects_occ0.7_0.9s/images/train/n02818832_0/n02933112_-18/img_b03_the_sofa_and_chair_company_-_stanley_bed_2014_cgaxis_models_48_26_vray_composite_2012_gray.jpg,n02818832_0,n02933112_-18,fixed,0.800109,n02933112_-18,Stimuli/psy_fixed_rotation_30_objects_occ0.7_0.9s/images/train/n02818832_0/n02933112_-18/img_b03_the_sofa_and_chair_company_-_stanley_bed_2014_cgaxis_models_48_26_vray_composite_2012-3_gray.png,foreground,same as foreground,n02818832_0,n04256520_4,Stimuli/canonical view 2/img_n02818832_0_gray.jpg,Stimuli/canonical view 2/img_n04256520_4_gray.jpg,random,right,Experiments/experiment_8/304.jpg,Experiments/experiment_8/305.jpg,Experiments/experiment_8/306.jpg,Experiments/experiment_8/307.jpg,740,1,2023-05-26_13h03.02.990,Occlusion_Psychophysics,2022.1.4,Win32,60.08532116,,,right,"[""right""]",[1.0139000000059468],False,,0.0,0.0,76.0,76.0,76.0,1.0,,,,,,
,,,,,,,,,,,,,,,,,,,,,0.025,,,,,,,,,,Stimuli/psy_flexible_rotation_30_objects_occ0.7_0.9s/images/train/n02818832_9/n03928116_10/img_bed01_blue_ydp_103_r_2012__vray_2003_gray.jpg,n02818832_9,n03928116_10,flexible,0.749422,n03928116_10,Stimuli/psy_flexible_rotation_30_objects_occ0.7_0.9s/images/train/n02818832_9/n03928116_10/img_bed01_blue_ydp_103_r_2012__vray_2003-3_gray.png,foreground,same as foreground,n02818832_9,n04256520_5,Stimuli/canonical view 2/img_n02818832_9_gray.jpg,Stimuli/canonical view 2/img_n04256520_5_gray.jpg,random,right,Experiments/experiment_8/308.jpg,Experiments/experiment_8/309.jpg,Experiments/experiment_8/310.jpg,Experiments/experiment_8/311.jpg,740,1,2023-05-26_13h03.02.990,Occlusion_Psychophysics,2022.1.4,Win32,60.08532116,,,right,"[""left""]",[1.0655999999939922],False,,0.0,0.0,77.0,77.0,77.0,1.0,,,,,,
,,,,,,,,,,,,,,,,,,,,,0.025,,,,,,,,,,Stimuli/psy_fixed_rotation_30_objects_occ0.7_0.9s/images/train/n03001627_8/n02818832_0/img_chair_billiani_doll_b03_the_sofa_and_chair_company_-_stanley_bed_2014_2010_gray.jpg,n03001627_8,n02818832_0,fixed,0.709501,n02818832_0,Stimuli/psy_fixed_rotation_30_objects_occ0.7_0.9s/images/train/n03001627_8/n02818832_0/img_chair_billiani_doll_b03_the_sofa_and_chair_company_-_stanley_bed_2014_2010-3_gray.png,foreground,same as foreground,n03001627_8,n02818832_0,Stimuli/canonical view 2/img_n03001627_8_gray.jpg,Stimuli/canonical view 2/img_n02818832_0_gray.jpg,foreground,right,Experiments/experiment_8/312.jpg,Experiments/experiment_8/313.jpg,Experiments/experiment_8/314.jpg,Experiments/experiment_8/315.jpg,740,1,2023-05-26_13h03.02.990,Occlusion_Psychophysics,2022.1.4,Win32,60.08532116,,,left,"[""left""]",[0.7309999999999945],False,,0.0,0.0,78.0,78.0,78.0,1.0,,,,,,
,,,,,,,,,,,,,,,,,,,,,0.025,,,,,,,,,,Stimuli/psy_fixed_rotation_30_objects_occ0.7_0.9s/images/train/n02818832_0/n04379243_8/img_b03_the_sofa_and_chair_company_-_stanley_bed_2014_glass_table_2000_gray.jpg,n02818832_0,n04379243_8,fixed,0.76245,n03928116_0,Stimuli/psy_fixed_rotation_30_objects_occ0.7_0.9s/images/train/n03928116_4/n03928116_0/img_dp_33_b_2013__vray_b02_piano_2002-3_gray.png,random,fixed,n02818832_0,n04379243_8,Stimuli/canonical view 2/img_n02818832_0_gray.jpg,Stimuli/canonical view 2/img_n04379243_8_gray.jpg,foreground,right,Experiments/experiment_8/316.jpg,Experiments/experiment_8/317.jpg,Experiments/experiment_8/318.jpg,Experiments/experiment_8/319.jpg,740,1,2023-05-26_13h03.02.990,Occlusion_Psychophysics,2022.1.4,Win32,60.08532116,,,left,"[""right""]",[0.6307999999969525],True,right,1.0,0.0,79.0,79.0,79.0,1.0,1.3175,,,,,
,,,,,,,,,,,,,,,,,,,,,0.05,,,,,,,,,,Stimuli/psy_fixed_rotation_30_objects_occ0.7_0.9s/images/train/n02883344_0/n04379243_0/img_b03_box_17th_c._monastery_dining_table_2010_2009_gray.jpg,n02883344_0,n04379243_0,fixed,0.739629,n04405907_5,Stimuli/psy_flexible_rotation_30_objects_occ0.7_0.9s/images/train/n02933112_-18/n04405907_5/img_cgaxis_models_48_26_vray_composite_samsung_40_uhd_smart_tv_2011_2010-3_gray.png,random,flexible,n02883344_0,n02883344_15,Stimuli/canonical view 2/img_n02883344_0_gray.jpg,Stimuli/canonical view 2/img_n02883344_15_gray.jpg,random,right,Experiments/experiment_8/320.jpg,Experiments/experiment_8/321.jpg,Experiments/experiment_8/322.jpg,Experiments/experiment_8/323.jpg,740,1,2023-05-26_13h03.02.990,Occlusion_Psychophysics,2022.1.4,Win32,60.08532116,,,left,"[""left""]",[0.8315000000000055],False,,0.0,0.0,80.0,80.0,80.0,1.0,,,,,,
,,,,,,,,,,,,,,,,,,,,,0.05,,,,,,,,,,Stimuli/psy_fixed_rotation_30_objects_occ0.7_0.9s/images/train/n03001627_8/n02933112_4/img_chair_billiani_doll_buffet_2010_gray.jpg,n03001627_8,n02933112_4,fixed,0.711045,n04405907_9,Stimuli/psy_fixed_rotation_30_objects_occ0.7_0.9s/images/train/n04256520_4/n04405907_9/img_club_house_italia_nautilus_sofa_vray_004_2014-3_gray.png,random,fixed,n03001627_8,n03928116_0,Stimuli/canonical view 2/img_n03001627_8_gray.jpg,Stimuli/canonical view 2/img_n03928116_0_gray.jpg,random,right,Experiments/experiment_8/324.jpg,Experiments/experiment_8/325.jpg,Experiments/experiment_8/326.jpg,Experiments/experiment_8/327.jpg,740,1,2023-05-26_13h03.02.990,Occlusion_Psychophysics,2022.1.4,Win32,60.08532116,,,left,"[""right""]",[1.6134999999999309],False,,0.0,0.0,81.0,81.0,81.0,1.0,,,,,,
,,,,,,,,,,,,,,,,,,,,,0.025,,,,,,,,,,Stimuli/psy_flexible_rotation_30_objects_occ0.7_0.9s/images/train/n03001627_-2/n03928116_0/img_wood_chair_b02_piano_2014_gray.jpg,n03001627_-2,n03928116_0,flexible,0.79685,n02828884_4,Stimuli/psy_flexible_rotation_30_objects_occ0.7_0.9s/images/train/n02818832_0/n02828884_4/img_b03_the_sofa_and_chair_company_-_stanley_bed_2014_b05_c-5_classic_series_bench-2012_2002-3_gray.png,random,flexible,n03001627_-2,n03928116_0,Stimuli/canonical view 2/img_n03001627_-2_gray.jpg,Stimuli/canonical view 2/img_n03928116_0_gray.jpg,foreground,right,Experiments/experiment_8/328.jpg,Experiments/experiment_8/329.jpg,Experiments/experiment_8/330.jpg,Experiments/experiment_8/331.jpg,740,1,2023-05-26_13h03.02.990,Occlusion_Psychophysics,2022.1.4,Win32,60.08532116,,,left,"[""left""]",[0.915200000002983],False,,0.0,0.0,82.0,82.0,82.0,1.0,,,,,,
,,,,,,,,,,,,,,,,,,,,,0.025,,,,,,,,,,Stimuli/psy_flexible_rotation_30_objects_occ0.7_0.9s/images/train/n02818832_0/n02933112_4/img_b03_the_sofa_and_chair_company_-_stanley_bed_2014_buffet_2005_gray.jpg,n02818832_0,n02933112_4,flexible,0.706727,n02933112_4,Stimuli/psy_flexible_rotation_30_objects_occ0.7_0.9s/images/train/n02818832_0/n02933112_4/img_b03_the_sofa_and_chair_company_-_stanley_bed_2014_buffet_2005-3_gray.png,foreground,same as foreground,n02818832_0,n02828884_3,Stimuli/canonical view 2/img_n02818832_0_gray.jpg,Stimuli/canonical view 2/img_n02828884_3_gray.jpg,random,left,Experiments/experiment_8/332.jpg,Experiments/experiment_8/333.jpg,Experiments/experiment_8/334.jpg,Experiments/experiment_8/335.jpg,740,1,2023-05-26_13h03.02.990,Occlusion_Psychophysics,2022.1.4,Win32,60.08532116,,,left,"[""right""]",[2.0810000000000173],False,,0.0,0.0,83.0,83.0,83.0,1.0,,,,,,
,,,,,,,,,,,,,,,,,,,,,0.05,,,,,,,,,,Stimuli/psy_fixed_rotation_30_objects_occ0.7_0.9s/images/train/n04379243_8/n04256520_5/img_glass_table_meridiani_belmondo_bench_sofa_2011_gray.jpg,n04379243_8,n04256520_5,fixed,0.823318,n02933112_-18,Stimuli/psy_flexible_rotation_30_objects_occ0.7_0.9s/images/train/n03001627_-2/n02933112_-18/img_wood_chair_cgaxis_models_48_26_vray_composite_2005-3_gray.png,random,flexible,n04379243_8,n03928116_4,Stimuli/canonical view 2/img_n04379243_8_gray.jpg,Stimuli/canonical view 2/img_n03928116_4_gray.jpg,random,right,Experiments/experiment_8/336.jpg,Experiments/experiment_8/337.jpg,Experiments/experiment_8/338.jpg,Experiments/experiment_8/339.jpg,740,1,2023-05-26_13h03.02.990,Occlusion_Psychophysics,2022.1.4,Win32,60.08532116,,,right,"[""right""]",[1.664400000006026],False,,0.0,0.0,84.0,84.0,84.0,1.0,,,,,,
,,,,,,,,,,,,,,,,,,,,,0.05,,,,,,,,,,Stimuli/psy_fixed_rotation_30_objects_occ0.7_0.9s/images/train/n02933112_-2/n04379243_0/img_sink_base_white_wood_17th_c._monastery_dining_table_2010_2002_gray.jpg,n02933112_-2,n04379243_0,fixed,0.777421,n04379243_0,Stimuli/psy_fixed_rotation_30_objects_occ0.7_0.9s/images/train/n02933112_-2/n04379243_0/img_sink_base_white_wood_17th_c._monastery_dining_table_2010_2002-3_gray.png,foreground,same as foreground,n02933112_-2,n04379243_0,Stimuli/canonical view 2/img_n02933112_-2_gray.jpg,Stimuli/canonical view 2/img_n04379243_0_gray.jpg,foreground,left,Experiments/experiment_8/340.jpg,Experiments/experiment_8/341.jpg,Experiments/experiment_8/342.jpg,Experiments/experiment_8/343.jpg,740,1,2023-05-26_13h03.02.990,Occlusion_Psychophysics,2022.1.4,Win32,60.08532116,,,left,"[""left""]",[0.6970000000000027],False,,0.0,0.0,85.0,85.0,85.0,1.0,,,,,,
,,,,,,,,,,,,,,,,,,,,,0.025,,,,,,,,,,Stimuli/psy_fixed_rotation_30_objects_occ0.7_0.9s/images/train/n02883344_-1/n04405907_8/img_woven_box_stylized_tv_2010_gray.jpg,n02883344_-1,n04405907_8,fixed,0.881331,n04379243_-7,Stimuli/psy_flexible_rotation_30_objects_occ0.7_0.9s/images/train/n02818832_0/n04379243_-7/img_b03_the_sofa_and_chair_company_-_stanley_bed_2014_quatre_dining_table_2011-3_gray.png,random,flexible,n02883344_-1,n04405907_9,Stimuli/canonical view 2/img_n02883344_-1_gray.jpg,Stimuli/canonical view 2/img_n04405907_9_gray.jpg,random,left,Experiments/experiment_8/344.jpg,Experiments/experiment_8/345.jpg,Experiments/experiment_8/346.jpg,Experiments/experiment_8/347.jpg,740,1,2023-05-26_13h03.02.990,Occlusion_Psychophysics,2022.1.4,Win32,60.08532116,,,left,"[""left""]",[0.9144000000059123],False,,0.0,0.0,86.0,86.0,86.0,1.0,,,,,,
,,,,,,,,,,,,,,,,,,,,,0.05,,,,,,,,,,Stimuli/psy_fixed_rotation_30_objects_occ0.7_0.9s/images/train/n02883344_-1/n04256520_4/img_woven_box_club_house_italia_nautilus_sofa_2000_gray.jpg,n02883344_-1,n04256520_4,fixed,0.710405,n03928116_0,Stimuli/psy_fixed_rotation_30_objects_occ0.7_0.9s/images/train/n03001627_9/n03928116_0/img_chair_eames_plastic_armchair_b02_piano_2007-3_gray.png,random,fixed,n02883344_-1,n04256520_4,Stimuli/canonical view 2/img_n02883344_-1_gray.jpg,Stimuli/canonical view 2/img_n04256520_4_gray.jpg,foreground,right,Experiments/experiment_8/348.jpg,Experiments/experiment_8/349.jpg,Experiments/experiment_8/350.jpg,Experiments/experiment_8/351.jpg,740,1,2023-05-26_13h03.02.990,Occlusion_Psychophysics,2022.1.4,Win32,60.08532116,,,right,"[""right""]",[0.9977000000029648],False,,0.0,0.0,87.0,87.0,87.0,1.0,,,,,,
,,,,,,,,,,,,,,,,,,,,,0.05,,,,,,,,,,Stimuli/psy_fixed_rotation_30_objects_occ0.7_0.9s/images/train/n04379243_-7/n04405907_5/img_quatre_dining_table_samsung_40_uhd_smart_tv_2011_2010_gray.jpg,n04379243_-7,n04405907_5,fixed,0.731826,n04405907_5,Stimuli/psy_fixed_rotation_30_objects_occ0.7_0.9s/images/train/n04379243_-7/n04405907_5/img_quatre_dining_table_samsung_40_uhd_smart_tv_2011_2010-3_gray.png,foreground,same as foreground,n04379243_-7,n04405907_5,Stimuli/canonical view 2/img_n04379243_-7_gray.jpg,Stimuli/canonical view 2/img_n04405907_5_gray.jpg,foreground,right,Experiments/experiment_8/352.jpg,Experiments/experiment_8/353.jpg,Experiments/experiment_8/354.jpg,Experiments/experiment_8/355.jpg,740,1,2023-05-26_13h03.02.990,Occlusion_Psychophysics,2022.1.4,Win32,60.08532116,,,left,"[""left""]",[0.7972999999969943],False,,0.0,0.0,88.0,88.0,88.0,1.0,,,,,,
,,,,,,,,,,,,,,,,,,,,,0.025,,,,,,,,,,Stimuli/psy_fixed_rotation_30_objects_occ0.7_0.9s/images/train/n03001627_9/n04256520_4/img_chair_eames_plastic_armchair_club_house_italia_nautilus_sofa_2014_gray.jpg,n03001627_9,n04256520_4,fixed,0.734931,n04379243_-7,Stimuli/psy_fixed_rotation_30_objects_occ0.7_0.9s/images/train/n03928116_0/n04379243_-7/img_b02_piano_quatre_dining_table_2005-3_gray.png,random,fixed,n03001627_9,n03001627_8,Stimuli/canonical view 2/img_n03001627_9_gray.jpg,Stimuli/canonical view 2/img_n03001627_8_gray.jpg,random,left,Experiments/experiment_8/356.jpg,Experiments/experiment_8/357.jpg,Experiments/experiment_8/358.jpg,Experiments/experiment_8/359.jpg,740,1,2023-05-26_13h03.02.990,Occlusion_Psychophysics,2022.1.4,Win32,60.08532116,,,right,"[""right""]",[0.8972000000030675],False,,0.0,0.0,89.0,89.0,89.0,1.0,,,,,,
,,,,,,,,,,,,,,,,,,,,,0.05,,,,,,,,,,Stimuli/psy_fixed_rotation_30_objects_occ0.7_0.9s/images/train/n04256520_5/n02883344_15/img_meridiani_belmondo_bench_sofa_microwave_box_2005_gray.jpg,n04256520_5,n02883344_15,fixed,0.727561,n02818832_3,Stimuli/psy_flexible_rotation_30_objects_occ0.7_0.9s/images/train/n02818832_9/n02818832_3/img_bed01_blue_b05_ccm_contemporary_bed_max2013_2005-3_gray.png,random,flexible,n04256520_5,n03001627_8,Stimuli/canonical view 2/img_n04256520_5_gray.jpg,Stimuli/canonical view 2/img_n03001627_8_gray.jpg,random,right,Experiments/experiment_8/360.jpg,Experiments/experiment_8/361.jpg,Experiments/experiment_8/362.jpg,Experiments/experiment_8/363.jpg,740,1,2023-05-26_13h03.02.990,Occlusion_Psychophysics,2022.1.4,Win32,60.08532116,,,right,"[""right""]",[0.9472999999969716],False,,0.0,0.0,90.0,90.0,90.0,1.0,,,,,,
,,,,,,,,,,,,,,,,,,,,,0.025,,,,,,,,,,Stimuli/psy_fixed_rotation_30_objects_occ0.7_0.9s/images/train/n04256520_9/n03928116_4/img_napoleon_iii_sofa_dp_33_b_2013__vray_2003_gray.jpg,n04256520_9,n03928116_4,fixed,0.700268,n02818832_9,Stimuli/psy_flexible_rotation_30_objects_occ0.7_0.9s/images/train/n02883344_15/n02818832_9/img_microwave_box_bed01_blue_2003-3_gray.png,random,flexible,n04256520_9,n02933112_-18,Stimuli/canonical view 2/img_n04256520_9_gray.jpg,Stimuli/canonical view 2/img_n02933112_-18_gray.jpg,random,left,Experiments/experiment_8/364.jpg,Experiments/experiment_8/365.jpg,Experiments/experiment_8/366.jpg,Experiments/experiment_8/367.jpg,740,1,2023-05-26_13h03.02.990,Occlusion_Psychophysics,2022.1.4,Win32,60.08532116,,,left,"[""left""]",[2.1632000000030303],False,,0.0,0.0,91.0,91.0,91.0,1.0,,,,,,
,,,,,,,,,,,,,,,,,,,,,0.05,,,,,,,,,,Stimuli/psy_flexible_rotation_30_objects_occ0.7_0.9s/images/train/n02818832_9/n02933112_-2/img_bed01_blue_sink_base_white_wood_2005_gray.jpg,n02818832_9,n02933112_-2,flexible,0.80609,n02933112_-2,Stimuli/psy_flexible_rotation_30_objects_occ0.7_0.9s/images/train/n02818832_9/n02933112_-2/img_bed01_blue_sink_base_white_wood_2005-3_gray.png,foreground,same as foreground,n02818832_9,n04405907_9,Stimuli/canonical view 2/img_n02818832_9_gray.jpg,Stimuli/canonical view 2/img_n04405907_9_gray.jpg,random,left,Experiments/experiment_8/368.jpg,Experiments/experiment_8/369.jpg,Experiments/experiment_8/370.jpg,Experiments/experiment_8/371.jpg,740,1,2023-05-26_13h03.02.990,Occlusion_Psychophysics,2022.1.4,Win32,60.08532116,,,right,"[""right""]",[1.396899999991092],True,right,1.0,0.0,92.0,92.0,92.0,1.0,2.2525,,,,,
,,,,,,,,,,,,,,,,,,,,,0.05,,,,,,,,,,Stimuli/psy_fixed_rotation_30_objects_occ0.7_0.9s/images/train/n02933112_-2/n04405907_8/img_sink_base_white_wood_stylized_tv_2014_gray.jpg,n02933112_-2,n04405907_8,fixed,0.729216,n03001627_9,Stimuli/psy_fixed_rotation_30_objects_occ0.7_0.9s/images/train/n03001627_8/n03001627_9/img_chair_billiani_doll_chair_eames_plastic_armchair_2004-3_gray.png,random,fixed,n02933112_-2,n04405907_8,Stimuli/canonical view 2/img_n02933112_-2_gray.jpg,Stimuli/canonical view 2/img_n04405907_8_gray.jpg,foreground,left,Experiments/experiment_8/372.jpg,Experiments/experiment_8/373.jpg,Experiments/experiment_8/374.jpg,Experiments/experiment_8/375.jpg,740,1,2023-05-26_13h03.02.990,Occlusion_Psychophysics,2022.1.4,Win32,60.08532116,,,left,,,True,right,0.0,0.0,93.0,93.0,93.0,1.0,0.317,,,,,
,,,,,,,,,,,,,,,,,,,,,0.05,,,,,,,,,,Stimuli/psy_fixed_rotation_30_objects_occ0.7_0.9s/images/train/n04256520_5/n02818832_0/img_meridiani_belmondo_bench_sofa_b03_the_sofa_and_chair_company_-_stanley_bed_2014_2015_gray.jpg,n04256520_5,n02818832_0,fixed,0.720111,n02818832_0,Stimuli/psy_fixed_rotation_30_objects_occ0.7_0.9s/images/train/n04256520_5/n02818832_0/img_meridiani_belmondo_bench_sofa_b03_the_sofa_and_chair_company_-_stanley_bed_2014_2015-3_gray.png,foreground,same as foreground,n04256520_5,n02818832_0,Stimuli/canonical view 2/img_n04256520_5_gray.jpg,Stimuli/canonical view 2/img_n02818832_0_gray.jpg,foreground,left,Experiments/experiment_8/376.jpg,Experiments/experiment_8/377.jpg,Experiments/experiment_8/378.jpg,Experiments/experiment_8/379.jpg,740,1,2023-05-26_13h03.02.990,Occlusion_Psychophysics,2022.1.4,Win32,60.08532116,,,right,"[""left""]",[1.3140999999940277],False,,0.0,0.0,94.0,94.0,94.0,1.0,,,,,,
,,,,,,,,,,,,,,,,,,,,,0.025,,,,,,,,,,Stimuli/psy_flexible_rotation_30_objects_occ0.7_0.9s/images/train/n02818832_0/n02933112_-18/img_b03_the_sofa_and_chair_company_-_stanley_bed_2014_cgaxis_models_48_26_vray_composite_2005_gray.jpg,n02818832_0,n02933112_-18,flexible,0.799316,n02933112_-18,Stimuli/psy_flexible_rotation_30_objects_occ0.7_0.9s/images/train/n02818832_0/n02933112_-18/img_b03_the_sofa_and_chair_company_-_stanley_bed_2014_cgaxis_models_48_26_vray_composite_2005-3_gray.png,foreground,same as foreground,n02818832_0,n03928116_0,Stimuli/canonical view 2/img_n02818832_0_gray.jpg,Stimuli/canonical view 2/img_n03928116_0_gray.jpg,random,left,Experiments/experiment_8/380.jpg,Experiments/experiment_8/381.jpg,Experiments/experiment_8/382.jpg,Experiments/experiment_8/383.jpg,740,1,2023-05-26_13h03.02.990,Occlusion_Psychophysics,2022.1.4,Win32,60.08532116,,,right,"[""right""]",[0.911299999997027],False,,0.0,0.0,95.0,95.0,95.0,1.0,,,,,,
,,,,,,,,,,,,,,,,,,,,,0.025,,,,,,,,,,Stimuli/psy_fixed_rotation_30_objects_occ0.7_0.9s/images/train/n03928116_10/n02933112_4/img_ydp_103_r_2012__vray_buffet_2000_gray.jpg,n03928116_10,n02933112_4,fixed,0.714135,n02818832_3,Stimuli/psy_fixed_rotation_30_objects_occ0.7_0.9s/images/train/n02828884_3/n02818832_3/img_b04_wood_metal_park_bench_b05_ccm_contemporary_bed_max2013_2005-3_gray.png,random,fixed,n03928116_10,n02818832_3,Stimuli/canonical view 2/img_n03928116_10_gray.jpg,Stimuli/canonical view 2/img_n02818832_3_gray.jpg,random,left,Experiments/experiment_8/384.jpg,Experiments/experiment_8/385.jpg,Experiments/experiment_8/386.jpg,Experiments/experiment_8/387.jpg,740,1,2023-05-26_13h03.02.990,Occlusion_Psychophysics,2022.1.4,Win32,60.08532116,,,right,"[""left""]",[2.2312000000029],False,,0.0,0.0,96.0,96.0,96.0,1.0,,,,,,
,,,,,,,,,,,,,,,,,,,,,0.025,,,,,,,,,,Stimuli/psy_flexible_rotation_30_objects_occ0.7_0.9s/images/train/n02818832_9/n02883344_-1/img_bed01_blue_woven_box_2011_gray.jpg,n02818832_9,n02883344_-1,flexible,0.766995,n02883344_-1,Stimuli/psy_flexible_rotation_30_objects_occ0.7_0.9s/images/train/n02818832_9/n02883344_-1/img_bed01_blue_woven_box_2011-3_gray.png,foreground,same as foreground,n02818832_9,n02933112_-18,Stimuli/canonical view 2/img_n02818832_9_gray.jpg,Stimuli/canonical view 2/img_n02933112_-18_gray.jpg,random,right,Experiments/experiment_8/388.jpg,Experiments/experiment_8/389.jpg,Experiments/experiment_8/390.jpg,Experiments/experiment_8/391.jpg,740,1,2023-05-26_13h03.02.990,Occlusion_Psychophysics,2022.1.4,Win32,60.08532116,,,right,"[""right""]",[1.2647999999970807],False,,0.0,0.0,97.0,97.0,97.0,1.0,,,,,,
,,,,,,,,,,,,,,,,,,,,,0.025,,,,,,,,,,Stimuli/psy_flexible_rotation_30_objects_occ0.7_0.9s/images/train/n04405907_8/n04379243_0/img_stylized_tv_17th_c._monastery_dining_table_2010_2009_gray.jpg,n04405907_8,n04379243_0,flexible,0.725966,n02933112_-2,Stimuli/psy_flexible_rotation_30_objects_occ0.7_0.9s/images/train/n04379243_8/n02933112_-2/img_glass_table_sink_base_white_wood_2000-3_gray.png,random,flexible,n04405907_8,n03001627_9,Stimuli/canonical view 2/img_n04405907_8_gray.jpg,Stimuli/canonical view 2/img_n03001627_9_gray.jpg,random,left,Experiments/experiment_8/392.jpg,Experiments/experiment_8/393.jpg,Experiments/experiment_8/394.jpg,Experiments/experiment_8/395.jpg,740,1,2023-05-26_13h03.02.990,Occlusion_Psychophysics,2022.1.4,Win32,60.08532116,,,right,"[""left""]",[1.1981999999881054],False,,0.0,0.0,98.0,98.0,98.0,1.0,,,,,,
,,,,,,,,,,,,,,,,,,,,,0.05,,,,,,,,,,Stimuli/psy_fixed_rotation_30_objects_occ0.7_0.9s/images/train/n02933112_-2/n03928116_0/img_sink_base_white_wood_b02_piano_2012_gray.jpg,n02933112_-2,n03928116_0,fixed,0.765992,n03928116_0,Stimuli/psy_fixed_rotation_30_objects_occ0.7_0.9s/images/train/n02933112_-2/n03928116_0/img_sink_base_white_wood_b02_piano_2012-3_gray.png,foreground,same as foreground,n02933112_-2,n02883344_-1,Stimuli/canonical view 2/img_n02933112_-2_gray.jpg,Stimuli/canonical view 2/img_n02883344_-1_gray.jpg,random,left,Experiments/experiment_8/396.jpg,Experiments/experiment_8/397.jpg,Experiments/experiment_8/398.jpg,Experiments/experiment_8/399.jpg,740,1,2023-05-26_13h03.02.990,Occlusion_Psychophysics,2022.1.4,Win32,60.08532116,,,left,"[""left""]",[0.7474999999999454],False,,0.0,0.0,99.0,99.0,99.0,1.0,,,,,,
,,,,,,,,,,,,,,,,,,,,,,,,,,,,,,,,,,,,,,,,,,,,,,,,,,740,1,2023-05-26_13h03.02.990,Occlusion_Psychophysics,2022.1.4,Win32,60.08532116,,,,,,,,,,,,,,,0.0,0.0,0.0,0.0,1.0
,,,,,,,,,,,,,,,,,,,,,0.025,,,,,,,,,,Stimuli/psy_flexible_rotation_30_objects_occ0.7_0.9s/images/train/n02933112_-2/n02883344_15/img_sink_base_white_wood_microwave_box_2007_gray.jpg,n02933112_-2,n02883344_15,flexible,0.769968,n02883344_15,Stimuli/psy_flexible_rotation_30_objects_occ0.7_0.9s/images/train/n02933112_-2/n02883344_15/img_sink_base_white_wood_microwave_box_2007-3_gray.png,foreground,same as foreground,n02933112_-2,n02883344_15,Stimuli/canonical view 2/img_n02933112_-2_gray.jpg,Stimuli/canonical view 2/img_n02883344_15_gray.jpg,foreground,left,Experiments/experiment_8/400.jpg,Experiments/experiment_8/401.jpg,Experiments/experiment_8/402.jpg,Experiments/experiment_8/403.jpg,740,1,2023-05-26_13h03.02.990,Occlusion_Psychophysics,2022.1.4,Win32,60.08532116,,,right,"[""right""]",[1.4647999999970125],False,,0.0,0.0,0.0,0.0,0.0,1.0,,,,,,
,,,,,,,,,,,,,,,,,,,,,0.05,,,,,,,,,,Stimuli/psy_flexible_rotation_30_objects_occ0.7_0.9s/images/train/n02818832_9/n04256520_4/img_bed01_blue_club_house_italia_nautilus_sofa_2014_gray.jpg,n02818832_9,n04256520_4,flexible,0.773643,n04256520_4,Stimuli/psy_flexible_rotation_30_objects_occ0.7_0.9s/images/train/n02818832_9/n04256520_4/img_bed01_blue_club_house_italia_nautilus_sofa_2014-3_gray.png,foreground,same as foreground,n02818832_9,n04256520_4,Stimuli/canonical view 2/img_n02818832_9_gray.jpg,Stimuli/canonical view 2/img_n04256520_4_gray.jpg,foreground,right,Experiments/experiment_8/404.jpg,Experiments/experiment_8/405.jpg,Experiments/experiment_8/406.jpg,Experiments/experiment_8/407.jpg,740,1,2023-05-26_13h03.02.990,Occlusion_Psychophysics,2022.1.4,Win32,60.08532116,,,left,"[""left""]",[1.4807999999969752],False,,0.0,0.0,1.0,1.0,1.0,1.0,,,,,,
,,,,,,,,,,,,,,,,,,,,,0.025,,,,,,,,,,Stimuli/psy_flexible_rotation_30_objects_occ0.7_0.9s/images/train/n02933112_-18/n04379243_-7/img_cgaxis_models_48_26_vray_composite_quatre_dining_table_2004_gray.jpg,n02933112_-18,n04379243_-7,flexible,0.741126,n04379243_-7,Stimuli/psy_flexible_rotation_30_objects_occ0.7_0.9s/images/train/n02933112_-18/n04379243_-7/img_cgaxis_models_48_26_vray_composite_quatre_dining_table_2004-3_gray.png,foreground,same as foreground,n02933112_-18,n03928116_10,Stimuli/canonical view 2/img_n02933112_-18_gray.jpg,Stimuli/canonical view 2/img_n03928116_10_gray.jpg,random,right,Experiments/experiment_8/408.jpg,Experiments/experiment_8/409.jpg,Experiments/experiment_8/410.jpg,Experiments/experiment_8/411.jpg,740,1,2023-05-26_13h03.02.990,Occlusion_Psychophysics,2022.1.4,Win32,60.08532116,,,left,"[""left""]",[2.147799999997005],False,,0.0,0.0,2.0,2.0,2.0,1.0,,,,,,
,,,,,,,,,,,,,,,,,,,,,0.05,,,,,,,,,,Stimuli/psy_fixed_rotation_30_objects_occ0.7_0.9s/images/train/n04379243_-7/n04405907_9/img_quatre_dining_table_vray_004_2001_gray.jpg,n04379243_-7,n04405907_9,fixed,0.775138,n02933112_-2,Stimuli/psy_flexible_rotation_30_objects_occ0.7_0.9s/images/train/n03928116_4/n02933112_-2/img_dp_33_b_2013__vray_sink_base_white_wood_2004-3_gray.png,random,flexible,n04379243_-7,n04405907_9,Stimuli/canonical view 2/img_n04379243_-7_gray.jpg,Stimuli/canonical view 2/img_n04405907_9_gray.jpg,foreground,right,Experiments/experiment_8/412.jpg,Experiments/experiment_8/413.jpg,Experiments/experiment_8/414.jpg,Experiments/experiment_8/415.jpg,740,1,2023-05-26_13h03.02.990,Occlusion_Psychophysics,2022.1.4,Win32,60.08532116,,,right,"[""right""]",[1.7474999999999454],False,,0.0,0.0,3.0,3.0,3.0,1.0,,,,,,
,,,,,,,,,,,,,,,,,,,,,0.05,,,,,,,,,,Stimuli/psy_fixed_rotation_30_objects_occ0.7_0.9s/images/train/n04256520_5/n04256520_9/img_meridiani_belmondo_bench_sofa_napoleon_iii_sofa_2014_gray.jpg,n04256520_5,n04256520_9,fixed,0.775838,n04256520_9,Stimuli/psy_fixed_rotation_30_objects_occ0.7_0.9s/images/train/n04256520_5/n04256520_9/img_meridiani_belmondo_bench_sofa_napoleon_iii_sofa_2014-3_gray.png,foreground,same as foreground,n04256520_5,n04256520_9,Stimuli/canonical view 2/img_n04256520_5_gray.jpg,Stimuli/canonical view 2/img_n04256520_9_gray.jpg,foreground,left,Experiments/experiment_8/416.jpg,Experiments/experiment_8/417.jpg,Experiments/experiment_8/418.jpg,Experiments/experiment_8/419.jpg,740,1,2023-05-26_13h03.02.990,Occlusion_Psychophysics,2022.1.4,Win32,60.08532116,,,left,"[""left""]",[1.8967000000029657],False,,0.0,0.0,4.0,4.0,4.0,1.0,,,,,,
,,,,,,,,,,,,,,,,,,,,,0.05,,,,,,,,,,Stimuli/psy_flexible_rotation_30_objects_occ0.7_0.9s/images/train/n04256520_9/n04256520_4/img_napoleon_iii_sofa_club_house_italia_nautilus_sofa_2014_gray.jpg,n04256520_9,n04256520_4,flexible,0.703723,n04256520_4,Stimuli/psy_flexible_rotation_30_objects_occ0.7_0.9s/images/train/n04256520_9/n04256520_4/img_napoleon_iii_sofa_club_house_italia_nautilus_sofa_2014-3_gray.png,foreground,same as foreground,n04256520_9,n02933112_-18,Stimuli/canonical view 2/img_n04256520_9_gray.jpg,Stimuli/canonical view 2/img_n02933112_-18_gray.jpg,random,right,Experiments/experiment_8/420.jpg,Experiments/experiment_8/421.jpg,Experiments/experiment_8/422.jpg,Experiments/experiment_8/423.jpg,740,1,2023-05-26_13h03.02.990,Occlusion_Psychophysics,2022.1.4,Win32,60.08532116,,,right,"[""right""]",[0.8472999999970625],False,,0.0,0.0,5.0,5.0,5.0,1.0,,,,,,
,,,,,,,,,,,,,,,,,,,,,0.05,,,,,,,,,,Stimuli/psy_flexible_rotation_30_objects_occ0.7_0.9s/images/train/n04256520_5/n04405907_9/img_meridiani_belmondo_bench_sofa_vray_004_2006_gray.jpg,n04256520_5,n04405907_9,flexible,0.727668,n04379243_-7,Stimuli/psy_flexible_rotation_30_objects_occ0.7_0.9s/images/train/n03928116_0/n04379243_-7/img_b02_piano_quatre_dining_table_2011-3_gray.png,random,flexible,n04256520_5,n04405907_9,Stimuli/canonical view 2/img_n04256520_5_gray.jpg,Stimuli/canonical view 2/img_n04405907_9_gray.jpg,foreground,right,Experiments/experiment_8/424.jpg,Experiments/experiment_8/425.jpg,Experiments/experiment_8/426.jpg,Experiments/experiment_8/427.jpg,740,1,2023-05-26_13h03.02.990,Occlusion_Psychophysics,2022.1.4,Win32,60.08532116,,,right,"[""right""]",[0.6971000000089589],False,,0.0,0.0,6.0,6.0,6.0,1.0,,,,,,
,,,,,,,,,,,,,,,,,,,,,0.05,,,,,,,,,,Stimuli/psy_fixed_rotation_30_objects_occ0.7_0.9s/images/train/n04405907_5/n02883344_0/img_samsung_40_uhd_smart_tv_2011_b03_box_2002_gray.jpg,n04405907_5,n02883344_0,fixed,0.786521,n02883344_0,Stimuli/psy_fixed_rotation_30_objects_occ0.7_0.9s/images/train/n04405907_5/n02883344_0/img_samsung_40_uhd_smart_tv_2011_b03_box_2002-3_gray.png,foreground,same as foreground,n04405907_5,n02883344_0,Stimuli/canonical view 2/img_n04405907_5_gray.jpg,Stimuli/canonical view 2/img_n02883344_0_gray.jpg,foreground,left,Experiments/experiment_8/428.jpg,Experiments/experiment_8/429.jpg,Experiments/experiment_8/430.jpg,Experiments/experiment_8/431.jpg,740,1,2023-05-26_13h03.02.990,Occlusion_Psychophysics,2022.1.4,Win32,60.08532116,,,right,"[""right""]",[0.8142000000029839],False,,0.0,0.0,7.0,7.0,7.0,1.0,,,,,,
,,,,,,,,,,,,,,,,,,,,,0.05,,,,,,,,,,Stimuli/psy_fixed_rotation_30_objects_occ0.7_0.9s/images/train/n03001627_8/n03928116_0/img_chair_billiani_doll_b02_piano_2003_gray.jpg,n03001627_8,n03928116_0,fixed,0.723434,n03928116_0,Stimuli/psy_fixed_rotation_30_objects_occ0.7_0.9s/images/train/n03001627_8/n03928116_0/img_chair_billiani_doll_b02_piano_2003-3_gray.png,foreground,same as foreground,n03001627_8,n04256520_5,Stimuli/canonical view 2/img_n03001627_8_gray.jpg,Stimuli/canonical view 2/img_n04256520_5_gray.jpg,random,left,Experiments/experiment_8/432.jpg,Experiments/experiment_8/433.jpg,Experiments/experiment_8/434.jpg,Experiments/experiment_8/435.jpg,740,1,2023-05-26_13h03.02.990,Occlusion_Psychophysics,2022.1.4,Win32,60.08532116,,,left,"[""left""]",[0.6809000000059768],False,,0.0,0.0,8.0,8.0,8.0,1.0,,,,,,
,,,,,,,,,,,,,,,,,,,,,0.05,,,,,,,,,,Stimuli/psy_flexible_rotation_30_objects_occ0.7_0.9s/images/train/n02933112_-2/n04405907_9/img_sink_base_white_wood_vray_004_2012_gray.jpg,n02933112_-2,n04405907_9,flexible,0.783515,n04405907_5,Stimuli/psy_flexible_rotation_30_objects_occ0.7_0.9s/images/train/n02828884_3/n04405907_5/img_b04_wood_metal_park_bench_samsung_40_uhd_smart_tv_2011_2002-3_gray.png,random,flexible,n02933112_-2,n04405907_8,Stimuli/canonical view 2/img_n02933112_-2_gray.jpg,Stimuli/canonical view 2/img_n04405907_8_gray.jpg,random,right,Experiments/experiment_8/436.jpg,Experiments/experiment_8/437.jpg,Experiments/experiment_8/438.jpg,Experiments/experiment_8/439.jpg,740,1,2023-05-26_13h03.02.990,Occlusion_Psychophysics,2022.1.4,Win32,60.08532116,,,left,"[""left""]",[1.2649999999999864],False,,0.0,0.0,9.0,9.0,9.0,1.0,,,,,,
,,,,,,,,,,,,,,,,,,,,,0.05,,,,,,,,,,Stimuli/psy_flexible_rotation_30_objects_occ0.7_0.9s/images/train/n02828884_4/n02883344_15/img_b05_c-5_classic_series_bench-2012_microwave_box_2014_gray.jpg,n02828884_4,n02883344_15,flexible,0.747473,n02883344_15,Stimuli/psy_flexible_rotation_30_objects_occ0.7_0.9s/images/train/n02828884_4/n02883344_15/img_b05_c-5_classic_series_bench-2012_microwave_box_2014-3_gray.png,foreground,same as foreground,n02828884_4,n02883344_15,Stimuli/canonical view 2/img_n02828884_4_gray.jpg,Stimuli/canonical view 2/img_n02883344_15_gray.jpg,foreground,right,Experiments/experiment_8/440.jpg,Experiments/experiment_8/441.jpg,Experiments/experiment_8/442.jpg,Experiments/experiment_8/443.jpg,740,1,2023-05-26_13h03.02.990,Occlusion_Psychophysics,2022.1.4,Win32,60.08532116,,,left,"[""left""]",[0.7475999999940086],False,,0.0,0.0,10.0,10.0,10.0,1.0,,,,,,
,,,,,,,,,,,,,,,,,,,,,0.025,,,,,,,,,,Stimuli/psy_fixed_rotation_30_objects_occ0.7_0.9s/images/train/n02883344_15/n04379243_-7/img_microwave_box_quatre_dining_table_2008_gray.jpg,n02883344_15,n04379243_-7,fixed,0.796146,n04379243_-7,Stimuli/psy_fixed_rotation_30_objects_occ0.7_0.9s/images/train/n02883344_15/n04379243_-7/img_microwave_box_quatre_dining_table_2008-3_gray.png,foreground,same as foreground,n02883344_15,n04379243_-7,Stimuli/canonical view 2/img_n02883344_15_gray.jpg,Stimuli/canonical view 2/img_n04379243_-7_gray.jpg,foreground,right,Experiments/experiment_8/444.jpg,Experiments/experiment_8/445.jpg,Experiments/experiment_8/446.jpg,Experiments/experiment_8/447.jpg,740,1,2023-05-26_13h03.02.990,Occlusion_Psychophysics,2022.1.4,Win32,60.08532116,,,left,"[""right""]",[2.8315999999940686],False,,0.0,0.0,11.0,11.0,11.0,1.0,,,,,,
,,,,,,,,,,,,,,,,,,,,,0.05,,,,,,,,,,Stimuli/psy_fixed_rotation_30_objects_occ0.7_0.9s/images/train/n03001627_-2/n03001627_8/img_wood_chair_chair_billiani_doll_2011_gray.jpg,n03001627_-2,n03001627_8,fixed,0.778502,n03001627_8,Stimuli/psy_fixed_rotation_30_objects_occ0.7_0.9s/images/train/n03001627_-2/n03001627_8/img_wood_chair_chair_billiani_doll_2011-3_gray.png,foreground,same as foreground,n03001627_-2,n04256520_4,Stimuli/canonical view 2/img_n03001627_-2_gray.jpg,Stimuli/canonical view 2/img_n04256520_4_gray.jpg,random,left,Experiments/experiment_8/448.jpg,Experiments/experiment_8/449.jpg,Experiments/experiment_8/450.jpg,Experiments/experiment_8/451.jpg,740,1,2023-05-26_13h03.02.990,Occlusion_Psychophysics,2022.1.4,Win32,60.08532116,,,left,"[""left""]",[0.6308000000119591],False,,0.0,0.0,12.0,12.0,12.0,1.0,,,,,,
