in_color,Instructions_key.keys,Instructions_key.rt,Tutorial_instruction_key.keys,Tutorial_instruction_key.rt,Tutorial_fixation_ley.keys,Tutorial_fixation_ley.rt,Tutorial_single_img_key.keys,Tutorial_single_img_key.rt,Tutorial_intra_trial_fixation_key.keys,Tutorial_intra_trial_fixation_key.rt,Tutorial_stimulus_key.keys,Tutorial_stimulus_key.rt,Tutorial_response_key.keys,Tutorial_response_key.rt,Tutorial_attention_check_key.keys,Tutorial_attention_check_key.rt,advance_or_repeat.keys,advance_or_repeat.rt,Practice_instructions_key.keys,Practice_instructions_key.rt,intra_trial_duration,Practice_key_response.keys,Practice_key_response.rt,Practice_react_key.keys,Practice_react_key.rt,Practice_loop.thisRepN,Practice_loop.thisTrialN,Practice_loop.thisN,Practice_loop.thisIndex,Practice_loop.ran,multi_object_filepath,background_id,foreground_id,multi_object_rotation,occlusion_level,single_object_id,single_object_filepath,single_is_foreground_or_random,single_object_rotation,background_choice_id,alt_choice_id,background_option_filepath,alternative_option_filepath,alternative_is_foreground_or_random,location_of_correct_answer,multi_object_exp_filename,single_object_exp_filename,background_option_exp_filename,alternative_option_exp_filename,participant,session,date,expName,psychopyVersion,OS,frameRate,Practice_end_key.keys,Practice_end_key.rt,correct_answer,Input_selection.keys,Input_selection.rt,Was_attention_check,Attention_check.keys,Attention_check.corr,Each_session_loop.thisRepN,Each_session_loop.thisTrialN,Each_session_loop.thisN,Each_session_loop.thisIndex,Each_session_loop.ran,Attention_check.rt,Num_sessions.thisRepN,Num_sessions.thisTrialN,Num_sessions.thisN,Num_sessions.thisIndex,Num_sessions.ran
False,right,5.2598,right,3.8186,right,1.3759,right,1.205,right,0.9341,lcontrol,3.5875,left,14.6578,right,4.4444,a,8.1391,right,3.6595,0.025,right,0.8862,r,5.8182,0.0,0.0,0.0,0.0,1.0,Stimuli/psy_fixed_rotation_30_objects_occ0.7_0.9s/images/train/n03001627_-2/n02933112_-2/img_wood_chair_sink_base_white_wood_2000_gray.jpg,n03001627_-2,n02933112_-2,fixed,0.718163,n02933112_-2,Stimuli/psy_fixed_rotation_30_objects_occ0.7_0.9s/images/train/n03001627_-2/n02933112_-2/img_wood_chair_sink_base_white_wood_2000-3_gray.png,foreground,same as foreground,n03001627_-2,n02933112_-2,Stimuli/canonical view 2/img_n03001627_-2_gray.jpg,Stimuli/canonical view 2/img_n02933112_-2_gray.jpg,foreground,right,Experiments/experiment_27/1000.jpg,Experiments/experiment_27/1001.jpg,Experiments/experiment_27/1002.jpg,Experiments/experiment_27/1003.jpg,780,1,2023-04-03_18h22.32.394,Occlusion_Psychophysics,2022.1.4,Win32,143.9470275,,,,,,,,,,,,,,,,,,,
,,,,,,,,,,,,,,,,,,,,,0.025,left,1.1444,r,3.785,0.0,1.0,1.0,1.0,1.0,Stimuli/psy_fixed_rotation_30_objects_occ0.7_0.9s/images/train/n03001627_-2/n03928116_0/img_wood_chair_b02_piano_2013_gray.jpg,n03001627_-2,n03928116_0,fixed,0.746473,n02933112_-18,Stimuli/psy_fixed_rotation_30_objects_occ0.7_0.9s/images/train/n04070727_3/n02933112_-18/img_b05_db_apps_tech_06_02_2_composite_cgaxis_models_48_26_vray_composite_2005-3_gray.png,random,fixed,n03001627_-2,n04405907_9,Stimuli/canonical view 2/img_n03001627_-2_gray.jpg,Stimuli/canonical view 2/img_n04405907_9_gray.jpg,random,left,Experiments/experiment_27/1004.jpg,Experiments/experiment_27/1005.jpg,Experiments/experiment_27/1006.jpg,Experiments/experiment_27/1007.jpg,780,1,2023-04-03_18h22.32.394,Occlusion_Psychophysics,2022.1.4,Win32,143.9470275,,,,,,,,,,,,,,,,,,,
,,,,,,,,,,,,,,,,,,,,,0.025,right,1.0258,r,0.9878,0.0,2.0,2.0,2.0,1.0,Stimuli/psy_fixed_rotation_30_objects_occ0.7_0.9s/images/train/n04405907_5/n04379243_-7/img_samsung_40_uhd_smart_tv_2011_quatre_dining_table_2003_gray.jpg,n04405907_5,n04379243_-7,fixed,0.7011,n02883344_15,Stimuli/psy_fixed_rotation_30_objects_occ0.7_0.9s/images/train/n02933112_4/n02883344_15/img_buffet_microwave_box_2012-3_gray.png,random,fixed,n04405907_5,n02883344_0,Stimuli/canonical view 2/img_n04405907_5_gray.jpg,Stimuli/canonical view 2/img_n02883344_0_gray.jpg,random,right,Experiments/experiment_27/1008.jpg,Experiments/experiment_27/1009.jpg,Experiments/experiment_27/1010.jpg,Experiments/experiment_27/1011.jpg,780,1,2023-04-03_18h22.32.394,Occlusion_Psychophysics,2022.1.4,Win32,143.9470275,,,,,,,,,,,,,,,,,,,
,,,,,,,,,,,,,,,,,,,,,0.05,right,1.3126,r,0.8234,0.0,3.0,3.0,3.0,1.0,Stimuli/psy_flexible_rotation_30_objects_occ0.7_0.9s/images/train/n04405907_8/n02883344_15/img_stylized_tv_microwave_box_2007_gray.jpg,n04405907_8,n02883344_15,flexible,0.821438,n02933112_4,Stimuli/psy_fixed_rotation_30_objects_occ0.7_0.9s/images/train/n02933112_-18/n02933112_4/img_cgaxis_models_48_26_vray_composite_buffet_2011-3_gray.png,random,fixed,n04405907_8,n02883344_15,Stimuli/canonical view 2/img_n04405907_8_gray.jpg,Stimuli/canonical view 2/img_n02883344_15_gray.jpg,foreground,right,Experiments/experiment_27/1012.jpg,Experiments/experiment_27/1013.jpg,Experiments/experiment_27/1014.jpg,Experiments/experiment_27/1015.jpg,780,1,2023-04-03_18h22.32.394,Occlusion_Psychophysics,2022.1.4,Win32,143.9470275,,,,,,,,,,,,,,,,,,,
,,,,,,,,,,,,,,,,,,,,,0.05,left,1.1725,r,0.8162,0.0,4.0,4.0,4.0,1.0,Stimuli/psy_fixed_rotation_30_objects_occ0.7_0.9s/images/train/n04256520_5/n04256520_9/img_meridiani_belmondo_bench_sofa_napoleon_iii_sofa_2009_gray.jpg,n04256520_5,n04256520_9,fixed,0.740485,n02818832_3,Stimuli/psy_fixed_rotation_30_objects_occ0.7_0.9s/images/train/n04070727_5/n02818832_3/img_b05_db_apps_tech_06_13_composite_b05_ccm_contemporary_bed_max2013_2007-3_gray.png,random,fixed,n04256520_5,n02818832_9,Stimuli/canonical view 2/img_n04256520_5_gray.jpg,Stimuli/canonical view 2/img_n02818832_9_gray.jpg,random,right,Experiments/experiment_27/1016.jpg,Experiments/experiment_27/1017.jpg,Experiments/experiment_27/1018.jpg,Experiments/experiment_27/1019.jpg,780,1,2023-04-03_18h22.32.394,Occlusion_Psychophysics,2022.1.4,Win32,143.9470275,,,,,,,,,,,,,,,,,,,
,,,,,,,,,,,,,,,,,,,,,0.05,right,0.9124,r,0.7841,0.0,5.0,5.0,5.0,1.0,Stimuli/psy_flexible_rotation_30_objects_occ0.7_0.9s/images/train/n04256520_9/n04405907_8/img_napoleon_iii_sofa_stylized_tv_2012_gray.jpg,n04256520_9,n04405907_8,flexible,0.721387,n04405907_8,Stimuli/psy_flexible_rotation_30_objects_occ0.7_0.9s/images/train/n04256520_9/n04405907_8/img_napoleon_iii_sofa_stylized_tv_2012-3_gray.png,foreground,same as foreground,n04256520_9,n04405907_8,Stimuli/canonical view 2/img_n04256520_9_gray.jpg,Stimuli/canonical view 2/img_n04405907_8_gray.jpg,foreground,right,Experiments/experiment_27/1020.jpg,Experiments/experiment_27/1021.jpg,Experiments/experiment_27/1022.jpg,Experiments/experiment_27/1023.jpg,780,1,2023-04-03_18h22.32.394,Occlusion_Psychophysics,2022.1.4,Win32,143.9470275,,,,,,,,,,,,,,,,,,,
,,,,,,,,,,,,,,,,,,,,,0.05,left,0.8825,r,8.4923,0.0,6.0,6.0,6.0,1.0,Stimuli/psy_flexible_rotation_30_objects_occ0.7_0.9s/images/train/n03928116_10/n03928116_4/img_ydp_103_r_2012__vray_dp_33_b_2013__vray_2000_gray.jpg,n03928116_10,n03928116_4,flexible,0.756005,n02933112_4,Stimuli/psy_flexible_rotation_30_objects_occ0.7_0.9s/images/train/n02933112_4/n02933112_4/img_buffet_buffet_2007-3_gray.png,random,flexible,n03928116_10,n02828884_3,Stimuli/canonical view 2/img_n03928116_10_gray.jpg,Stimuli/canonical view 2/img_n02828884_3_gray.jpg,random,left,Experiments/experiment_27/1024.jpg,Experiments/experiment_27/1025.jpg,Experiments/experiment_27/1026.jpg,Experiments/experiment_27/1027.jpg,780,1,2023-04-03_18h22.32.394,Occlusion_Psychophysics,2022.1.4,Win32,143.9470275,,,,,,,,,,,,,,,,,,,
,,,,,,,,,,,,,,,,,,,,,0.05,left,0.647,r,0.7647,0.0,7.0,7.0,7.0,1.0,Stimuli/psy_flexible_rotation_30_objects_occ0.7_0.9s/images/train/n02883344_-1/n02828884_3/img_woven_box_b04_wood_metal_park_bench_2009_gray.jpg,n02883344_-1,n02828884_3,flexible,0.749726,n02828884_3,Stimuli/psy_flexible_rotation_30_objects_occ0.7_0.9s/images/train/n02883344_-1/n02828884_3/img_woven_box_b04_wood_metal_park_bench_2009-3_gray.png,foreground,same as foreground,n02883344_-1,n02828884_3,Stimuli/canonical view 2/img_n02883344_-1_gray.jpg,Stimuli/canonical view 2/img_n02828884_3_gray.jpg,foreground,left,Experiments/experiment_27/1028.jpg,Experiments/experiment_27/1029.jpg,Experiments/experiment_27/1030.jpg,Experiments/experiment_27/1031.jpg,780,1,2023-04-03_18h22.32.394,Occlusion_Psychophysics,2022.1.4,Win32,143.9470275,,,,,,,,,,,,,,,,,,,
,,,,,,,,,,,,,,,,,,,,,0.025,left,0.6847,r,1.7327,0.0,8.0,8.0,8.0,1.0,Stimuli/psy_fixed_rotation_30_objects_occ0.7_0.9s/images/train/n02828884_9/n03928116_0/img_cr-96_bench_b02_piano_2013_gray.jpg,n02828884_9,n03928116_0,fixed,0.705521,n02828884_3,Stimuli/psy_fixed_rotation_30_objects_occ0.7_0.9s/images/train/n03001627_9/n02828884_3/img_chair_eames_plastic_armchair_b04_wood_metal_park_bench_2001-3_gray.png,random,fixed,n02828884_9,n03928116_0,Stimuli/canonical view 2/img_n02828884_9_gray.jpg,Stimuli/canonical view 2/img_n03928116_0_gray.jpg,foreground,left,Experiments/experiment_27/1032.jpg,Experiments/experiment_27/1033.jpg,Experiments/experiment_27/1034.jpg,Experiments/experiment_27/1035.jpg,780,1,2023-04-03_18h22.32.394,Occlusion_Psychophysics,2022.1.4,Win32,143.9470275,,,,,,,,,,,,,,,,,,,
,,,,,,,,,,,,,,,,,,,,,0.05,right,1.089,r,0.6477,0.0,9.0,9.0,9.0,1.0,Stimuli/psy_fixed_rotation_30_objects_occ0.7_0.9s/images/train/n04256520_9/n04256520_4/img_napoleon_iii_sofa_club_house_italia_nautilus_sofa_2008_gray.jpg,n04256520_9,n04256520_4,fixed,0.784193,n04256520_4,Stimuli/psy_fixed_rotation_30_objects_occ0.7_0.9s/images/train/n04256520_9/n04256520_4/img_napoleon_iii_sofa_club_house_italia_nautilus_sofa_2008-3_gray.png,foreground,same as foreground,n04256520_9,n02883344_0,Stimuli/canonical view 2/img_n04256520_9_gray.jpg,Stimuli/canonical view 2/img_n02883344_0_gray.jpg,random,right,Experiments/experiment_27/1036.jpg,Experiments/experiment_27/1037.jpg,Experiments/experiment_27/1038.jpg,Experiments/experiment_27/1039.jpg,780,1,2023-04-03_18h22.32.394,Occlusion_Psychophysics,2022.1.4,Win32,143.9470275,,,,,,,,,,,,,,,,,,,
,,,,,,,,,,,,,,,,,,,,,0.025,right,0.6873,r,0.6646,0.0,10.0,10.0,10.0,1.0,Stimuli/psy_flexible_rotation_30_objects_occ0.7_0.9s/images/train/n04256520_5/n02933112_-2/img_meridiani_belmondo_bench_sofa_sink_base_white_wood_2008_gray.jpg,n04256520_5,n02933112_-2,flexible,0.703645,n02933112_-2,Stimuli/psy_flexible_rotation_30_objects_occ0.7_0.9s/images/train/n04256520_5/n02933112_-2/img_meridiani_belmondo_bench_sofa_sink_base_white_wood_2008-3_gray.png,foreground,same as foreground,n04256520_5,n02933112_-2,Stimuli/canonical view 2/img_n04256520_5_gray.jpg,Stimuli/canonical view 2/img_n02933112_-2_gray.jpg,foreground,right,Experiments/experiment_27/1040.jpg,Experiments/experiment_27/1041.jpg,Experiments/experiment_27/1042.jpg,Experiments/experiment_27/1043.jpg,780,1,2023-04-03_18h22.32.394,Occlusion_Psychophysics,2022.1.4,Win32,143.9470275,,,,,,,,,,,,,,,,,,,
,,,,,,,,,,,,,,,,,,,,,0.025,left,0.8014,r,0.6953,0.0,11.0,11.0,11.0,1.0,Stimuli/psy_fixed_rotation_30_objects_occ0.7_0.9s/images/train/n04405907_9/n04405907_8/img_vray_004_stylized_tv_2012_gray.jpg,n04405907_9,n04405907_8,fixed,0.762716,n02933112_4,Stimuli/psy_flexible_rotation_30_objects_occ0.7_0.9s/images/train/n02883344_-1/n02933112_4/img_woven_box_buffet_2007-3_gray.png,random,flexible,n04405907_9,n04405907_8,Stimuli/canonical view 2/img_n04405907_9_gray.jpg,Stimuli/canonical view 2/img_n04405907_8_gray.jpg,foreground,left,Experiments/experiment_27/1044.jpg,Experiments/experiment_27/1045.jpg,Experiments/experiment_27/1046.jpg,Experiments/experiment_27/1047.jpg,780,1,2023-04-03_18h22.32.394,Occlusion_Psychophysics,2022.1.4,Win32,143.9470275,,,,,,,,,,,,,,,,,,,
,,,,,,,,,,,,,,,,,,,,,0.05,right,1.0012,a,1.4829,0.0,12.0,12.0,12.0,1.0,Stimuli/psy_fixed_rotation_30_objects_occ0.7_0.9s/images/train/n04379243_0/n04379243_8/img_17th_c._monastery_dining_table_2010_glass_table_2006_gray.jpg,n04379243_0,n04379243_8,fixed,0.712179,n04256520_9,Stimuli/psy_fixed_rotation_30_objects_occ0.7_0.9s/images/train/n04379243_0/n04256520_9/img_17th_c._monastery_dining_table_2010_napoleon_iii_sofa_2012-3_gray.png,random,fixed,n04379243_0,n04379243_8,Stimuli/canonical view 2/img_n04379243_0_gray.jpg,Stimuli/canonical view 2/img_n04379243_8_gray.jpg,foreground,right,Experiments/experiment_27/1048.jpg,Experiments/experiment_27/1049.jpg,Experiments/experiment_27/1050.jpg,Experiments/experiment_27/1051.jpg,780,1,2023-04-03_18h22.32.394,Occlusion_Psychophysics,2022.1.4,Win32,143.9470275,,,,,,,,,,,,,,,,,,,
,,,,,,,,,,,,,,,,,,,,,0.05,,,,,,,,,,Stimuli/psy_fixed_rotation_30_objects_occ0.7_0.9s/images/train/n04405907_5/n03928116_10/img_samsung_40_uhd_smart_tv_2011_ydp_103_r_2012__vray_2002_gray.jpg,n04405907_5,n03928116_10,fixed,0.782978,n03928116_10,Stimuli/psy_fixed_rotation_30_objects_occ0.7_0.9s/images/train/n04405907_5/n03928116_10/img_samsung_40_uhd_smart_tv_2011_ydp_103_r_2012__vray_2002-3_gray.png,foreground,same as foreground,n04405907_5,n02828884_9,Stimuli/canonical view 2/img_n04405907_5_gray.jpg,Stimuli/canonical view 2/img_n02828884_9_gray.jpg,random,left,Experiments/experiment_27/0.jpg,Experiments/experiment_27/1.jpg,Experiments/experiment_27/2.jpg,Experiments/experiment_27/3.jpg,780,1,2023-04-03_18h22.32.394,Occlusion_Psychophysics,2022.1.4,Win32,143.9470275,right,2.1189,left,"[""left""]",[0.8381000000239283],False,,0.0,0.0,0.0,0.0,0.0,1.0,,,,,,
,,,,,,,,,,,,,,,,,,,,,0.05,,,,,,,,,,Stimuli/psy_fixed_rotation_30_objects_occ0.7_0.9s/images/train/n02883344_-1/n02828884_3/img_woven_box_b04_wood_metal_park_bench_2007_gray.jpg,n02883344_-1,n02828884_3,fixed,0.800029,n02828884_3,Stimuli/psy_fixed_rotation_30_objects_occ0.7_0.9s/images/train/n02883344_-1/n02828884_3/img_woven_box_b04_wood_metal_park_bench_2007-3_gray.png,foreground,same as foreground,n02883344_-1,n02933112_-2,Stimuli/canonical view 2/img_n02883344_-1_gray.jpg,Stimuli/canonical view 2/img_n02933112_-2_gray.jpg,random,right,Experiments/experiment_27/4.jpg,Experiments/experiment_27/5.jpg,Experiments/experiment_27/6.jpg,Experiments/experiment_27/7.jpg,780,1,2023-04-03_18h22.32.394,Occlusion_Psychophysics,2022.1.4,Win32,143.9470275,,,left,"[""left""]",[0.6238999999761745],False,,0.0,0.0,1.0,1.0,1.0,1.0,,,,,,
,,,,,,,,,,,,,,,,,,,,,0.05,,,,,,,,,,Stimuli/psy_flexible_rotation_30_objects_occ0.7_0.9s/images/train/n02933112_-18/n04379243_0/img_cgaxis_models_48_26_vray_composite_17th_c._monastery_dining_table_2010_2009_gray.jpg,n02933112_-18,n04379243_0,flexible,0.866437,n04379243_0,Stimuli/psy_flexible_rotation_30_objects_occ0.7_0.9s/images/train/n02933112_-18/n04379243_0/img_cgaxis_models_48_26_vray_composite_17th_c._monastery_dining_table_2010_2009-3_gray.png,foreground,same as foreground,n02933112_-18,n03001627_9,Stimuli/canonical view 2/img_n02933112_-18_gray.jpg,Stimuli/canonical view 2/img_n03001627_9_gray.jpg,random,left,Experiments/experiment_27/8.jpg,Experiments/experiment_27/9.jpg,Experiments/experiment_27/10.jpg,Experiments/experiment_27/11.jpg,780,1,2023-04-03_18h22.32.394,Occlusion_Psychophysics,2022.1.4,Win32,143.9470275,,,left,"[""left""]",[0.9347000000476555],False,,0.0,0.0,2.0,2.0,2.0,1.0,,,,,,
,,,,,,,,,,,,,,,,,,,,,0.05,,,,,,,,,,Stimuli/psy_flexible_rotation_30_objects_occ0.7_0.9s/images/train/n03928116_0/n02828884_3/img_b02_piano_b04_wood_metal_park_bench_2004_gray.jpg,n03928116_0,n02828884_3,flexible,0.710794,n02828884_3,Stimuli/psy_flexible_rotation_30_objects_occ0.7_0.9s/images/train/n03928116_0/n02828884_3/img_b02_piano_b04_wood_metal_park_bench_2004-3_gray.png,foreground,same as foreground,n03928116_0,n04379243_0,Stimuli/canonical view 2/img_n03928116_0_gray.jpg,Stimuli/canonical view 2/img_n04379243_0_gray.jpg,random,right,Experiments/experiment_27/12.jpg,Experiments/experiment_27/13.jpg,Experiments/experiment_27/14.jpg,Experiments/experiment_27/15.jpg,780,1,2023-04-03_18h22.32.394,Occlusion_Psychophysics,2022.1.4,Win32,143.9470275,,,left,"[""left""]",[0.6333999999761772],False,,0.0,0.0,3.0,3.0,3.0,1.0,,,,,,
,,,,,,,,,,,,,,,,,,,,,0.05,,,,,,,,,,Stimuli/psy_fixed_rotation_30_objects_occ0.7_0.9s/images/train/n04379243_0/n03928116_10/img_17th_c._monastery_dining_table_2010_ydp_103_r_2012__vray_2010_gray.jpg,n04379243_0,n03928116_10,fixed,0.713695,n02933112_-2,Stimuli/psy_fixed_rotation_30_objects_occ0.7_0.9s/images/train/n02933112_-18/n02933112_-2/img_cgaxis_models_48_26_vray_composite_sink_base_white_wood_2009-3_gray.png,random,fixed,n04379243_0,n03928116_10,Stimuli/canonical view 2/img_n04379243_0_gray.jpg,Stimuli/canonical view 2/img_n03928116_10_gray.jpg,foreground,left,Experiments/experiment_27/16.jpg,Experiments/experiment_27/17.jpg,Experiments/experiment_27/18.jpg,Experiments/experiment_27/19.jpg,780,1,2023-04-03_18h22.32.394,Occlusion_Psychophysics,2022.1.4,Win32,143.9470275,,,left,"[""left""]",[0.6933999999762364],False,,0.0,0.0,4.0,4.0,4.0,1.0,,,,,,
,,,,,,,,,,,,,,,,,,,,,0.05,,,,,,,,,,Stimuli/psy_fixed_rotation_30_objects_occ0.7_0.9s/images/train/n04256520_4/n03928116_0/img_club_house_italia_nautilus_sofa_b02_piano_2010_gray.jpg,n04256520_4,n03928116_0,fixed,0.776351,n03928116_4,Stimuli/psy_flexible_rotation_30_objects_occ0.7_0.9s/images/train/n02818832_3/n03928116_4/img_b05_ccm_contemporary_bed_max2013_dp_33_b_2013__vray_2014-3_gray.png,random,flexible,n04256520_4,n03928116_10,Stimuli/canonical view 2/img_n04256520_4_gray.jpg,Stimuli/canonical view 2/img_n03928116_10_gray.jpg,random,left,Experiments/experiment_27/20.jpg,Experiments/experiment_27/21.jpg,Experiments/experiment_27/22.jpg,Experiments/experiment_27/23.jpg,780,1,2023-04-03_18h22.32.394,Occlusion_Psychophysics,2022.1.4,Win32,143.9470275,,,left,"[""left""]",[1.2246999999284753],False,,0.0,0.0,5.0,5.0,5.0,1.0,,,,,,
,,,,,,,,,,,,,,,,,,,,,0.05,,,,,,,,,,Stimuli/psy_flexible_rotation_30_objects_occ0.7_0.9s/images/train/n04405907_8/n04405907_9/img_stylized_tv_vray_004_2007_gray.jpg,n04405907_8,n04405907_9,flexible,0.710494,n02883344_0,Stimuli/psy_flexible_rotation_30_objects_occ0.7_0.9s/images/train/n02883344_0/n02883344_0/img_b03_box_b03_box_2011-3_gray.png,random,flexible,n04405907_8,n02933112_4,Stimuli/canonical view 2/img_n04405907_8_gray.jpg,Stimuli/canonical view 2/img_n02933112_4_gray.jpg,random,right,Experiments/experiment_27/24.jpg,Experiments/experiment_27/25.jpg,Experiments/experiment_27/26.jpg,Experiments/experiment_27/27.jpg,780,1,2023-04-03_18h22.32.394,Occlusion_Psychophysics,2022.1.4,Win32,143.9470275,,,left,"[""left""]",[0.8006999999284972],False,,0.0,0.0,6.0,6.0,6.0,1.0,,,,,,
,,,,,,,,,,,,,,,,,,,,,0.05,,,,,,,,,,Stimuli/psy_fixed_rotation_30_objects_occ0.7_0.9s/images/train/n02818832_9/n02933112_-2/img_bed01_blue_sink_base_white_wood_2011_gray.jpg,n02818832_9,n02933112_-2,fixed,0.772841,n02933112_-2,Stimuli/psy_fixed_rotation_30_objects_occ0.7_0.9s/images/train/n02818832_9/n02933112_-2/img_bed01_blue_sink_base_white_wood_2011-3_gray.png,foreground,same as foreground,n02818832_9,n04379243_-7,Stimuli/canonical view 2/img_n02818832_9_gray.jpg,Stimuli/canonical view 2/img_n04379243_-7_gray.jpg,random,right,Experiments/experiment_27/28.jpg,Experiments/experiment_27/29.jpg,Experiments/experiment_27/30.jpg,Experiments/experiment_27/31.jpg,780,1,2023-04-03_18h22.32.394,Occlusion_Psychophysics,2022.1.4,Win32,143.9470275,,,left,"[""right""]",[0.9689999999999372],False,,0.0,0.0,7.0,7.0,7.0,1.0,,,,,,
,,,,,,,,,,,,,,,,,,,,,0.025,,,,,,,,,,Stimuli/psy_fixed_rotation_30_objects_occ0.7_0.9s/images/train/n02883344_0/n03928116_4/img_b03_box_dp_33_b_2013__vray_2009_gray.jpg,n02883344_0,n03928116_4,fixed,0.75295,n03928116_4,Stimuli/psy_fixed_rotation_30_objects_occ0.7_0.9s/images/train/n02883344_0/n03928116_4/img_b03_box_dp_33_b_2013__vray_2009-3_gray.png,foreground,same as foreground,n02883344_0,n03928116_4,Stimuli/canonical view 2/img_n02883344_0_gray.jpg,Stimuli/canonical view 2/img_n03928116_4_gray.jpg,foreground,right,Experiments/experiment_27/32.jpg,Experiments/experiment_27/33.jpg,Experiments/experiment_27/34.jpg,Experiments/experiment_27/35.jpg,780,1,2023-04-03_18h22.32.394,Occlusion_Psychophysics,2022.1.4,Win32,143.9470275,,,right,"[""right""]",[0.7331000000237964],False,,0.0,0.0,8.0,8.0,8.0,1.0,,,,,,
,,,,,,,,,,,,,,,,,,,,,0.025,,,,,,,,,,Stimuli/psy_fixed_rotation_30_objects_occ0.7_0.9s/images/train/n02818832_3/n03928116_0/img_b05_ccm_contemporary_bed_max2013_b02_piano_2013_gray.jpg,n02818832_3,n03928116_0,fixed,0.711132,n04405907_9,Stimuli/psy_fixed_rotation_30_objects_occ0.7_0.9s/images/train/n03928116_10/n04405907_9/img_ydp_103_r_2012__vray_vray_004_2005-3_gray.png,random,fixed,n02818832_3,n03928116_0,Stimuli/canonical view 2/img_n02818832_3_gray.jpg,Stimuli/canonical view 2/img_n03928116_0_gray.jpg,foreground,left,Experiments/experiment_27/36.jpg,Experiments/experiment_27/37.jpg,Experiments/experiment_27/38.jpg,Experiments/experiment_27/39.jpg,780,1,2023-04-03_18h22.32.394,Occlusion_Psychophysics,2022.1.4,Win32,143.9470275,,,left,"[""left""]",[0.7614999999999554],False,,0.0,0.0,9.0,9.0,9.0,1.0,,,,,,
,,,,,,,,,,,,,,,,,,,,,0.05,,,,,,,,,,Stimuli/psy_fixed_rotation_30_objects_occ0.7_0.9s/images/train/n03928116_10/n02883344_-1/img_ydp_103_r_2012__vray_woven_box_2011_gray.jpg,n03928116_10,n02883344_-1,fixed,0.700331,n03928116_0,Stimuli/psy_fixed_rotation_30_objects_occ0.7_0.9s/images/train/n04070727_0/n03928116_0/img_b03_ka90ivi20r_2013__vray_b02_piano_2004-3_gray.png,random,fixed,n03928116_10,n03928116_4,Stimuli/canonical view 2/img_n03928116_10_gray.jpg,Stimuli/canonical view 2/img_n03928116_4_gray.jpg,random,right,Experiments/experiment_27/40.jpg,Experiments/experiment_27/41.jpg,Experiments/experiment_27/42.jpg,Experiments/experiment_27/43.jpg,780,1,2023-04-03_18h22.32.394,Occlusion_Psychophysics,2022.1.4,Win32,143.9470275,,,left,"[""right""]",[1.41439999997624],False,,0.0,0.0,10.0,10.0,10.0,1.0,,,,,,
,,,,,,,,,,,,,,,,,,,,,0.025,,,,,,,,,,Stimuli/psy_flexible_rotation_30_objects_occ0.7_0.9s/images/train/n03928116_0/n02883344_15/img_b02_piano_microwave_box_2014_gray.jpg,n03928116_0,n02883344_15,flexible,0.702689,n02883344_0,Stimuli/psy_fixed_rotation_30_objects_occ0.7_0.9s/images/train/n03928116_0/n02883344_0/img_b02_piano_b03_box_2010-3_gray.png,random,fixed,n03928116_0,n02828884_3,Stimuli/canonical view 2/img_n03928116_0_gray.jpg,Stimuli/canonical view 2/img_n02828884_3_gray.jpg,random,left,Experiments/experiment_27/44.jpg,Experiments/experiment_27/45.jpg,Experiments/experiment_27/46.jpg,Experiments/experiment_27/47.jpg,780,1,2023-04-03_18h22.32.394,Occlusion_Psychophysics,2022.1.4,Win32,143.9470275,,,right,"[""right""]",[0.9701999999284681],False,,0.0,0.0,11.0,11.0,11.0,1.0,,,,,,
,,,,,,,,,,,,,,,,,,,,,0.025,,,,,,,,,,Stimuli/psy_flexible_rotation_30_objects_occ0.7_0.9s/images/train/n02818832_9/n02933112_-2/img_bed01_blue_sink_base_white_wood_2001_gray.jpg,n02818832_9,n02933112_-2,flexible,0.73449,n02933112_-2,Stimuli/psy_flexible_rotation_30_objects_occ0.7_0.9s/images/train/n02818832_9/n02933112_-2/img_bed01_blue_sink_base_white_wood_2001-3_gray.png,foreground,same as foreground,n02818832_9,n02933112_-2,Stimuli/canonical view 2/img_n02818832_9_gray.jpg,Stimuli/canonical view 2/img_n02933112_-2_gray.jpg,foreground,right,Experiments/experiment_27/48.jpg,Experiments/experiment_27/49.jpg,Experiments/experiment_27/50.jpg,Experiments/experiment_27/51.jpg,780,1,2023-04-03_18h22.32.394,Occlusion_Psychophysics,2022.1.4,Win32,143.9470275,,,left,"[""left""]",[0.5493999999762309],False,,0.0,0.0,12.0,12.0,12.0,1.0,,,,,,
,,,,,,,,,,,,,,,,,,,,,0.025,,,,,,,,,,Stimuli/psy_flexible_rotation_30_objects_occ0.7_0.9s/images/train/n02828884_4/n02828884_3/img_b05_c-5_classic_series_bench-2012_b04_wood_metal_park_bench_2005_gray.jpg,n02828884_4,n02828884_3,flexible,0.777877,n02828884_3,Stimuli/psy_flexible_rotation_30_objects_occ0.7_0.9s/images/train/n02828884_4/n02828884_3/img_b05_c-5_classic_series_bench-2012_b04_wood_metal_park_bench_2005-3_gray.png,foreground,same as foreground,n02828884_4,n02828884_3,Stimuli/canonical view 2/img_n02828884_4_gray.jpg,Stimuli/canonical view 2/img_n02828884_3_gray.jpg,foreground,left,Experiments/experiment_27/52.jpg,Experiments/experiment_27/53.jpg,Experiments/experiment_27/54.jpg,Experiments/experiment_27/55.jpg,780,1,2023-04-03_18h22.32.394,Occlusion_Psychophysics,2022.1.4,Win32,143.9470275,,,left,"[""left""]",[1.294499999999971],False,,0.0,0.0,13.0,13.0,13.0,1.0,,,,,,
,,,,,,,,,,,,,,,,,,,,,0.025,,,,,,,,,,Stimuli/psy_flexible_rotation_30_objects_occ0.7_0.9s/images/train/n02828884_3/n02818832_3/img_b04_wood_metal_park_bench_b05_ccm_contemporary_bed_max2013_2010_gray.jpg,n02828884_3,n02818832_3,flexible,0.703477,n02818832_3,Stimuli/psy_flexible_rotation_30_objects_occ0.7_0.9s/images/train/n02828884_3/n02818832_3/img_b04_wood_metal_park_bench_b05_ccm_contemporary_bed_max2013_2010-3_gray.png,foreground,same as foreground,n02828884_3,n02818832_0,Stimuli/canonical view 2/img_n02828884_3_gray.jpg,Stimuli/canonical view 2/img_n02818832_0_gray.jpg,random,left,Experiments/experiment_27/56.jpg,Experiments/experiment_27/57.jpg,Experiments/experiment_27/58.jpg,Experiments/experiment_27/59.jpg,780,1,2023-04-03_18h22.32.394,Occlusion_Psychophysics,2022.1.4,Win32,143.9470275,,,left,"[""left""]",[1.5367999999523363],False,,0.0,0.0,14.0,14.0,14.0,1.0,,,,,,
,,,,,,,,,,,,,,,,,,,,,0.025,,,,,,,,,,Stimuli/psy_flexible_rotation_30_objects_occ0.7_0.9s/images/train/n04405907_9/n02828884_3/img_vray_004_b04_wood_metal_park_bench_2014_gray.jpg,n04405907_9,n02828884_3,flexible,0.896758,n04379243_-7,Stimuli/psy_flexible_rotation_30_objects_occ0.7_0.9s/images/train/n04256520_5/n04379243_-7/img_meridiani_belmondo_bench_sofa_quatre_dining_table_2005-3_gray.png,random,flexible,n04405907_9,n02828884_3,Stimuli/canonical view 2/img_n04405907_9_gray.jpg,Stimuli/canonical view 2/img_n02828884_3_gray.jpg,foreground,right,Experiments/experiment_27/60.jpg,Experiments/experiment_27/61.jpg,Experiments/experiment_27/62.jpg,Experiments/experiment_27/63.jpg,780,1,2023-04-03_18h22.32.394,Occlusion_Psychophysics,2022.1.4,Win32,143.9470275,,,right,"[""left""]",[1.092199999928539],False,,0.0,0.0,15.0,15.0,15.0,1.0,,,,,,
,,,,,,,,,,,,,,,,,,,,,0.025,,,,,,,,,,Stimuli/psy_fixed_rotation_30_objects_occ0.7_0.9s/images/train/n02883344_-1/n04256520_4/img_woven_box_club_house_italia_nautilus_sofa_2006_gray.jpg,n02883344_-1,n04256520_4,fixed,0.730006,n03001627_-2,Stimuli/psy_flexible_rotation_30_objects_occ0.7_0.9s/images/train/n03001627_-2/n03001627_-2/img_wood_chair_wood_chair_2005-3_gray.png,random,flexible,n02883344_-1,n04256520_4,Stimuli/canonical view 2/img_n02883344_-1_gray.jpg,Stimuli/canonical view 2/img_n04256520_4_gray.jpg,foreground,right,Experiments/experiment_27/64.jpg,Experiments/experiment_27/65.jpg,Experiments/experiment_27/66.jpg,Experiments/experiment_27/67.jpg,780,1,2023-04-03_18h22.32.394,Occlusion_Psychophysics,2022.1.4,Win32,143.9470275,,,left,"[""left""]",[0.80860000002383],False,,0.0,0.0,16.0,16.0,16.0,1.0,,,,,,
,,,,,,,,,,,,,,,,,,,,,0.025,,,,,,,,,,Stimuli/psy_flexible_rotation_30_objects_occ0.7_0.9s/images/train/n04256520_9/n04379243_-7/img_napoleon_iii_sofa_quatre_dining_table_2001_gray.jpg,n04256520_9,n04379243_-7,flexible,0.808692,n02883344_15,Stimuli/psy_fixed_rotation_30_objects_occ0.7_0.9s/images/train/n02933112_-18/n02883344_15/img_cgaxis_models_48_26_vray_composite_microwave_box_2005-3_gray.png,random,fixed,n04256520_9,n03928116_0,Stimuli/canonical view 2/img_n04256520_9_gray.jpg,Stimuli/canonical view 2/img_n03928116_0_gray.jpg,random,left,Experiments/experiment_27/68.jpg,Experiments/experiment_27/69.jpg,Experiments/experiment_27/70.jpg,Experiments/experiment_27/71.jpg,780,1,2023-04-03_18h22.32.394,Occlusion_Psychophysics,2022.1.4,Win32,143.9470275,,,left,"[""left""]",[0.6897999999523563],False,,0.0,0.0,17.0,17.0,17.0,1.0,,,,,,
,,,,,,,,,,,,,,,,,,,,,0.05,,,,,,,,,,Stimuli/psy_flexible_rotation_30_objects_occ0.7_0.9s/images/train/n02828884_9/n02883344_-1/img_cr-96_bench_woven_box_2014_gray.jpg,n02828884_9,n02883344_-1,flexible,0.898945,n02883344_-1,Stimuli/psy_flexible_rotation_30_objects_occ0.7_0.9s/images/train/n02828884_9/n02883344_-1/img_cr-96_bench_woven_box_2014-3_gray.png,foreground,same as foreground,n02828884_9,n04379243_8,Stimuli/canonical view 2/img_n02828884_9_gray.jpg,Stimuli/canonical view 2/img_n04379243_8_gray.jpg,random,right,Experiments/experiment_27/72.jpg,Experiments/experiment_27/73.jpg,Experiments/experiment_27/74.jpg,Experiments/experiment_27/75.jpg,780,1,2023-04-03_18h22.32.394,Occlusion_Psychophysics,2022.1.4,Win32,143.9470275,,,right,"[""right""]",[0.7476999999283862],False,,0.0,0.0,18.0,18.0,18.0,1.0,,,,,,
,,,,,,,,,,,,,,,,,,,,,0.025,,,,,,,,,,Stimuli/psy_flexible_rotation_30_objects_occ0.7_0.9s/images/train/n02883344_0/n03001627_-2/img_b03_box_wood_chair_2015_gray.jpg,n02883344_0,n03001627_-2,flexible,0.714327,n03001627_-2,Stimuli/psy_flexible_rotation_30_objects_occ0.7_0.9s/images/train/n02883344_0/n03001627_-2/img_b03_box_wood_chair_2015-3_gray.png,foreground,same as foreground,n02883344_0,n04379243_0,Stimuli/canonical view 2/img_n02883344_0_gray.jpg,Stimuli/canonical view 2/img_n04379243_0_gray.jpg,random,left,Experiments/experiment_27/76.jpg,Experiments/experiment_27/77.jpg,Experiments/experiment_27/78.jpg,Experiments/experiment_27/79.jpg,780,1,2023-04-03_18h22.32.394,Occlusion_Psychophysics,2022.1.4,Win32,143.9470275,,,right,"[""right""]",[0.8165000000000191],False,,0.0,0.0,19.0,19.0,19.0,1.0,,,,,,
,,,,,,,,,,,,,,,,,,,,,0.05,,,,,,,,,,Stimuli/psy_fixed_rotation_30_objects_occ0.7_0.9s/images/train/n04405907_5/n02828884_3/img_samsung_40_uhd_smart_tv_2011_b04_wood_metal_park_bench_2000_gray.jpg,n04405907_5,n02828884_3,fixed,0.858897,n02828884_3,Stimuli/psy_fixed_rotation_30_objects_occ0.7_0.9s/images/train/n04405907_5/n02828884_3/img_samsung_40_uhd_smart_tv_2011_b04_wood_metal_park_bench_2000-3_gray.png,foreground,same as foreground,n04405907_5,n04405907_9,Stimuli/canonical view 2/img_n04405907_5_gray.jpg,Stimuli/canonical view 2/img_n04405907_9_gray.jpg,random,right,Experiments/experiment_27/80.jpg,Experiments/experiment_27/81.jpg,Experiments/experiment_27/82.jpg,Experiments/experiment_27/83.jpg,780,1,2023-04-03_18h22.32.394,Occlusion_Psychophysics,2022.1.4,Win32,143.9470275,,,right,"[""right""]",[1.5014999999999645],False,,0.0,0.0,20.0,20.0,20.0,1.0,,,,,,
,,,,,,,,,,,,,,,,,,,,,0.025,,,,,,,,,,Stimuli/psy_flexible_rotation_30_objects_occ0.7_0.9s/images/train/n03001627_-2/n02818832_9/img_wood_chair_bed01_blue_2003_gray.jpg,n03001627_-2,n02818832_9,flexible,0.777259,n02818832_9,Stimuli/psy_flexible_rotation_30_objects_occ0.7_0.9s/images/train/n03001627_-2/n02818832_9/img_wood_chair_bed01_blue_2003-3_gray.png,foreground,same as foreground,n03001627_-2,n02933112_4,Stimuli/canonical view 2/img_n03001627_-2_gray.jpg,Stimuli/canonical view 2/img_n02933112_4_gray.jpg,random,left,Experiments/experiment_27/84.jpg,Experiments/experiment_27/85.jpg,Experiments/experiment_27/86.jpg,Experiments/experiment_27/87.jpg,780,1,2023-04-03_18h22.32.394,Occlusion_Psychophysics,2022.1.4,Win32,143.9470275,,,right,"[""right""]",[0.9903000000715565],False,,0.0,0.0,21.0,21.0,21.0,1.0,,,,,,
,,,,,,,,,,,,,,,,,,,,,0.05,,,,,,,,,,Stimuli/psy_flexible_rotation_30_objects_occ0.7_0.9s/images/train/n02818832_3/n04379243_0/img_b05_ccm_contemporary_bed_max2013_17th_c._monastery_dining_table_2010_2004_gray.jpg,n02818832_3,n04379243_0,flexible,0.800906,n04379243_0,Stimuli/psy_flexible_rotation_30_objects_occ0.7_0.9s/images/train/n02818832_3/n04379243_0/img_b05_ccm_contemporary_bed_max2013_17th_c._monastery_dining_table_2010_2004-3_gray.png,foreground,same as foreground,n02818832_3,n04379243_0,Stimuli/canonical view 2/img_n02818832_3_gray.jpg,Stimuli/canonical view 2/img_n04379243_0_gray.jpg,foreground,left,Experiments/experiment_27/88.jpg,Experiments/experiment_27/89.jpg,Experiments/experiment_27/90.jpg,Experiments/experiment_27/91.jpg,780,1,2023-04-03_18h22.32.394,Occlusion_Psychophysics,2022.1.4,Win32,143.9470275,,,left,"[""left""]",[0.7547000000477055],False,,0.0,0.0,22.0,22.0,22.0,1.0,,,,,,
,,,,,,,,,,,,,,,,,,,,,0.05,,,,,,,,,,Stimuli/psy_flexible_rotation_30_objects_occ0.7_0.9s/images/train/n02828884_3/n02818832_0/img_b04_wood_metal_park_bench_b03_the_sofa_and_chair_company_-_stanley_bed_2014_2006_gray.jpg,n02828884_3,n02818832_0,flexible,0.781198,n02828884_3,Stimuli/psy_fixed_rotation_30_objects_occ0.7_0.9s/images/train/n04070727_0/n02828884_3/img_b03_ka90ivi20r_2013__vray_b04_wood_metal_park_bench_2008-3_gray.png,random,fixed,n02828884_3,n04405907_8,Stimuli/canonical view 2/img_n02828884_3_gray.jpg,Stimuli/canonical view 2/img_n04405907_8_gray.jpg,random,right,Experiments/experiment_27/92.jpg,Experiments/experiment_27/93.jpg,Experiments/experiment_27/94.jpg,Experiments/experiment_27/95.jpg,780,1,2023-04-03_18h22.32.394,Occlusion_Psychophysics,2022.1.4,Win32,143.9470275,,,right,"[""left""]",[1.1485000000000127],False,,0.0,0.0,23.0,23.0,23.0,1.0,,,,,,
,,,,,,,,,,,,,,,,,,,,,0.025,,,,,,,,,,Stimuli/psy_flexible_rotation_30_objects_occ0.7_0.9s/images/train/n04256520_4/n02828884_4/img_club_house_italia_nautilus_sofa_b05_c-5_classic_series_bench-2012_2013_gray.jpg,n04256520_4,n02828884_4,flexible,0.725599,n02883344_0,Stimuli/psy_flexible_rotation_30_objects_occ0.7_0.9s/images/train/n03001627_9/n02883344_0/img_chair_eames_plastic_armchair_b03_box_2011-3_gray.png,random,flexible,n04256520_4,n02828884_4,Stimuli/canonical view 2/img_n04256520_4_gray.jpg,Stimuli/canonical view 2/img_n02828884_4_gray.jpg,foreground,right,Experiments/experiment_27/96.jpg,Experiments/experiment_27/97.jpg,Experiments/experiment_27/98.jpg,Experiments/experiment_27/99.jpg,780,1,2023-04-03_18h22.32.394,Occlusion_Psychophysics,2022.1.4,Win32,143.9470275,,,right,"[""left""]",[1.2250000000000227],False,,0.0,0.0,24.0,24.0,24.0,1.0,,,,,,
,,,,,,,,,,,,,,,,,,,,,0.05,,,,,,,,,,Stimuli/psy_fixed_rotation_30_objects_occ0.7_0.9s/images/train/n02883344_0/n03928116_10/img_b03_box_ydp_103_r_2012__vray_2008_gray.jpg,n02883344_0,n03928116_10,fixed,0.802448,n04405907_8,Stimuli/psy_flexible_rotation_30_objects_occ0.7_0.9s/images/train/n02818832_3/n04405907_8/img_b05_ccm_contemporary_bed_max2013_stylized_tv_2013-3_gray.png,random,flexible,n02883344_0,n03928116_10,Stimuli/canonical view 2/img_n02883344_0_gray.jpg,Stimuli/canonical view 2/img_n03928116_10_gray.jpg,foreground,left,Experiments/experiment_27/100.jpg,Experiments/experiment_27/101.jpg,Experiments/experiment_27/102.jpg,Experiments/experiment_27/103.jpg,780,1,2023-04-03_18h22.32.394,Occlusion_Psychophysics,2022.1.4,Win32,143.9470275,,,right,"[""right""]",[0.8592999999523272],True,left,1.0,0.0,25.0,25.0,25.0,1.0,0.8534,,,,,
,,,,,,,,,,,,,,,,,,,,,0.05,,,,,,,,,,Stimuli/psy_flexible_rotation_30_objects_occ0.7_0.9s/images/train/n02818832_9/n02883344_0/img_bed01_blue_b03_box_2004_gray.jpg,n02818832_9,n02883344_0,flexible,0.738952,n02883344_0,Stimuli/psy_flexible_rotation_30_objects_occ0.7_0.9s/images/train/n02818832_9/n02883344_0/img_bed01_blue_b03_box_2004-3_gray.png,foreground,same as foreground,n02818832_9,n02883344_-1,Stimuli/canonical view 2/img_n02818832_9_gray.jpg,Stimuli/canonical view 2/img_n02883344_-1_gray.jpg,random,left,Experiments/experiment_27/104.jpg,Experiments/experiment_27/105.jpg,Experiments/experiment_27/106.jpg,Experiments/experiment_27/107.jpg,780,1,2023-04-03_18h22.32.394,Occlusion_Psychophysics,2022.1.4,Win32,143.9470275,,,left,"[""left""]",[1.0297000000476828],False,,0.0,0.0,26.0,26.0,26.0,1.0,,,,,,
,,,,,,,,,,,,,,,,,,,,,0.05,,,,,,,,,,Stimuli/psy_fixed_rotation_30_objects_occ0.7_0.9s/images/train/n04256520_9/n04405907_8/img_napoleon_iii_sofa_stylized_tv_2003_gray.jpg,n04256520_9,n04405907_8,fixed,0.756381,n04405907_8,Stimuli/psy_fixed_rotation_30_objects_occ0.7_0.9s/images/train/n04256520_9/n04405907_8/img_napoleon_iii_sofa_stylized_tv_2003-3_gray.png,foreground,same as foreground,n04256520_9,n03001627_9,Stimuli/canonical view 2/img_n04256520_9_gray.jpg,Stimuli/canonical view 2/img_n03001627_9_gray.jpg,random,left,Experiments/experiment_27/108.jpg,Experiments/experiment_27/109.jpg,Experiments/experiment_27/110.jpg,Experiments/experiment_27/111.jpg,780,1,2023-04-03_18h22.32.394,Occlusion_Psychophysics,2022.1.4,Win32,143.9470275,,,right,"[""right""]",[0.6800000000000637],True,right,1.0,0.0,27.0,27.0,27.0,1.0,0.7337,,,,,
,,,,,,,,,,,,,,,,,,,,,0.025,,,,,,,,,,Stimuli/psy_flexible_rotation_30_objects_occ0.7_0.9s/images/train/n02883344_-1/n02883344_0/img_woven_box_b03_box_2007_gray.jpg,n02883344_-1,n02883344_0,flexible,0.800677,n03928116_0,Stimuli/psy_flexible_rotation_30_objects_occ0.7_0.9s/images/train/n04070727_0/n03928116_0/img_b03_ka90ivi20r_2013__vray_b02_piano_2003-3_gray.png,random,flexible,n02883344_-1,n02883344_0,Stimuli/canonical view 2/img_n02883344_-1_gray.jpg,Stimuli/canonical view 2/img_n02883344_0_gray.jpg,foreground,left,Experiments/experiment_27/112.jpg,Experiments/experiment_27/113.jpg,Experiments/experiment_27/114.jpg,Experiments/experiment_27/115.jpg,780,1,2023-04-03_18h22.32.394,Occlusion_Psychophysics,2022.1.4,Win32,143.9470275,,,right,"[""right""]",[1.1272999999523563],False,,0.0,0.0,28.0,28.0,28.0,1.0,,,,,,
,,,,,,,,,,,,,,,,,,,,,0.05,,,,,,,,,,Stimuli/psy_flexible_rotation_30_objects_occ0.7_0.9s/images/train/n04256520_5/n04256520_9/img_meridiani_belmondo_bench_sofa_napoleon_iii_sofa_2015_gray.jpg,n04256520_5,n04256520_9,flexible,0.749662,n04256520_9,Stimuli/psy_flexible_rotation_30_objects_occ0.7_0.9s/images/train/n04256520_5/n04256520_9/img_meridiani_belmondo_bench_sofa_napoleon_iii_sofa_2015-3_gray.png,foreground,same as foreground,n04256520_5,n02828884_9,Stimuli/canonical view 2/img_n04256520_5_gray.jpg,Stimuli/canonical view 2/img_n02828884_9_gray.jpg,random,left,Experiments/experiment_27/116.jpg,Experiments/experiment_27/117.jpg,Experiments/experiment_27/118.jpg,Experiments/experiment_27/119.jpg,780,1,2023-04-03_18h22.32.394,Occlusion_Psychophysics,2022.1.4,Win32,143.9470275,,,left,"[""left""]",[0.8968999999760854],False,,0.0,0.0,29.0,29.0,29.0,1.0,,,,,,
,,,,,,,,,,,,,,,,,,,,,0.025,,,,,,,,,,Stimuli/psy_flexible_rotation_30_objects_occ0.7_0.9s/images/train/n02883344_-1/n02828884_3/img_woven_box_b04_wood_metal_park_bench_2009_gray.jpg,n02883344_-1,n02828884_3,flexible,0.749726,n04405907_8,Stimuli/psy_fixed_rotation_30_objects_occ0.7_0.9s/images/train/n03928116_0/n04405907_8/img_b02_piano_stylized_tv_2011-3_gray.png,random,fixed,n02883344_-1,n02828884_3,Stimuli/canonical view 2/img_n02883344_-1_gray.jpg,Stimuli/canonical view 2/img_n02828884_3_gray.jpg,foreground,right,Experiments/experiment_27/120.jpg,Experiments/experiment_27/121.jpg,Experiments/experiment_27/122.jpg,Experiments/experiment_27/123.jpg,780,1,2023-04-03_18h22.32.394,Occlusion_Psychophysics,2022.1.4,Win32,143.9470275,,,right,"[""right""]",[0.8278000000715338],False,,0.0,0.0,30.0,30.0,30.0,1.0,,,,,,
,,,,,,,,,,,,,,,,,,,,,0.05,,,,,,,,,,Stimuli/psy_flexible_rotation_30_objects_occ0.7_0.9s/images/train/n04405907_9/n02883344_0/img_vray_004_b03_box_2001_gray.jpg,n04405907_9,n02883344_0,flexible,0.834678,n02883344_0,Stimuli/psy_flexible_rotation_30_objects_occ0.7_0.9s/images/train/n04405907_9/n02883344_0/img_vray_004_b03_box_2001-3_gray.png,foreground,same as foreground,n04405907_9,n02883344_0,Stimuli/canonical view 2/img_n04405907_9_gray.jpg,Stimuli/canonical view 2/img_n02883344_0_gray.jpg,foreground,right,Experiments/experiment_27/124.jpg,Experiments/experiment_27/125.jpg,Experiments/experiment_27/126.jpg,Experiments/experiment_27/127.jpg,780,1,2023-04-03_18h22.32.394,Occlusion_Psychophysics,2022.1.4,Win32,143.9470275,,,left,"[""right""]",[0.7651999999285408],False,,0.0,0.0,31.0,31.0,31.0,1.0,,,,,,
,,,,,,,,,,,,,,,,,,,,,0.05,,,,,,,,,,Stimuli/psy_flexible_rotation_30_objects_occ0.7_0.9s/images/train/n04379243_8/n02818832_9/img_glass_table_bed01_blue_2010_gray.jpg,n04379243_8,n02818832_9,flexible,0.714953,n02818832_9,Stimuli/psy_flexible_rotation_30_objects_occ0.7_0.9s/images/train/n04379243_8/n02818832_9/img_glass_table_bed01_blue_2010-3_gray.png,foreground,same as foreground,n04379243_8,n04256520_4,Stimuli/canonical view 2/img_n04379243_8_gray.jpg,Stimuli/canonical view 2/img_n04256520_4_gray.jpg,random,right,Experiments/experiment_27/128.jpg,Experiments/experiment_27/129.jpg,Experiments/experiment_27/130.jpg,Experiments/experiment_27/131.jpg,780,1,2023-04-03_18h22.32.394,Occlusion_Psychophysics,2022.1.4,Win32,143.9470275,,,right,"[""right""]",[0.597399999976119],False,,0.0,0.0,32.0,32.0,32.0,1.0,,,,,,
,,,,,,,,,,,,,,,,,,,,,0.05,,,,,,,,,,Stimuli/psy_fixed_rotation_30_objects_occ0.7_0.9s/images/train/n04405907_5/n04379243_-7/img_samsung_40_uhd_smart_tv_2011_quatre_dining_table_2006_gray.jpg,n04405907_5,n04379243_-7,fixed,0.776293,n04379243_-7,Stimuli/psy_fixed_rotation_30_objects_occ0.7_0.9s/images/train/n04405907_5/n04379243_-7/img_samsung_40_uhd_smart_tv_2011_quatre_dining_table_2006-3_gray.png,foreground,same as foreground,n04405907_5,n03001627_9,Stimuli/canonical view 2/img_n04405907_5_gray.jpg,Stimuli/canonical view 2/img_n03001627_9_gray.jpg,random,left,Experiments/experiment_27/132.jpg,Experiments/experiment_27/133.jpg,Experiments/experiment_27/134.jpg,Experiments/experiment_27/135.jpg,780,1,2023-04-03_18h22.32.394,Occlusion_Psychophysics,2022.1.4,Win32,143.9470275,,,right,"[""right""]",[1.0750000000000455],False,,0.0,0.0,33.0,33.0,33.0,1.0,,,,,,
,,,,,,,,,,,,,,,,,,,,,0.05,,,,,,,,,,Stimuli/psy_fixed_rotation_30_objects_occ0.7_0.9s/images/train/n03928116_4/n02933112_-2/img_dp_33_b_2013__vray_sink_base_white_wood_2014_gray.jpg,n03928116_4,n02933112_-2,fixed,0.729348,n02933112_-2,Stimuli/psy_fixed_rotation_30_objects_occ0.7_0.9s/images/train/n03928116_4/n02933112_-2/img_dp_33_b_2013__vray_sink_base_white_wood_2014-3_gray.png,foreground,same as foreground,n03928116_4,n02933112_-2,Stimuli/canonical view 2/img_n03928116_4_gray.jpg,Stimuli/canonical view 2/img_n02933112_-2_gray.jpg,foreground,left,Experiments/experiment_27/136.jpg,Experiments/experiment_27/137.jpg,Experiments/experiment_27/138.jpg,Experiments/experiment_27/139.jpg,780,1,2023-04-03_18h22.32.394,Occlusion_Psychophysics,2022.1.4,Win32,143.9470275,,,left,"[""left""]",[0.7401000000238582],False,,0.0,0.0,34.0,34.0,34.0,1.0,,,,,,
,,,,,,,,,,,,,,,,,,,,,0.05,,,,,,,,,,Stimuli/psy_flexible_rotation_30_objects_occ0.7_0.9s/images/train/n04256520_4/n02818832_3/img_club_house_italia_nautilus_sofa_b05_ccm_contemporary_bed_max2013_2008_gray.jpg,n04256520_4,n02818832_3,flexible,0.750603,n04405907_5,Stimuli/psy_fixed_rotation_30_objects_occ0.7_0.9s/images/train/n02828884_4/n04405907_5/img_b05_c-5_classic_series_bench-2012_samsung_40_uhd_smart_tv_2011_2004-3_gray.png,random,fixed,n04256520_4,n02818832_3,Stimuli/canonical view 2/img_n04256520_4_gray.jpg,Stimuli/canonical view 2/img_n02818832_3_gray.jpg,foreground,right,Experiments/experiment_27/140.jpg,Experiments/experiment_27/141.jpg,Experiments/experiment_27/142.jpg,Experiments/experiment_27/143.jpg,780,1,2023-04-03_18h22.32.394,Occlusion_Psychophysics,2022.1.4,Win32,143.9470275,,,left,"[""left""]",[1.0698999999760872],False,,0.0,0.0,35.0,35.0,35.0,1.0,,,,,,
,,,,,,,,,,,,,,,,,,,,,0.025,,,,,,,,,,Stimuli/psy_flexible_rotation_30_objects_occ0.7_0.9s/images/train/n03928116_10/n04256520_5/img_ydp_103_r_2012__vray_meridiani_belmondo_bench_sofa_2004_gray.jpg,n03928116_10,n04256520_5,flexible,0.766144,n02933112_4,Stimuli/psy_fixed_rotation_30_objects_occ0.7_0.9s/images/train/n04256520_9/n02933112_4/img_napoleon_iii_sofa_buffet_2007-3_gray.png,random,fixed,n03928116_10,n02828884_9,Stimuli/canonical view 2/img_n03928116_10_gray.jpg,Stimuli/canonical view 2/img_n02828884_9_gray.jpg,random,left,Experiments/experiment_27/144.jpg,Experiments/experiment_27/145.jpg,Experiments/experiment_27/146.jpg,Experiments/experiment_27/147.jpg,780,1,2023-04-03_18h22.32.394,Occlusion_Psychophysics,2022.1.4,Win32,143.9470275,,,left,"[""left""]",[0.9939999999999145],False,,0.0,0.0,36.0,36.0,36.0,1.0,,,,,,
,,,,,,,,,,,,,,,,,,,,,0.05,,,,,,,,,,Stimuli/psy_flexible_rotation_30_objects_occ0.7_0.9s/images/train/n04379243_8/n02818832_9/img_glass_table_bed01_blue_2012_gray.jpg,n04379243_8,n02818832_9,flexible,0.753718,n02828884_3,Stimuli/psy_fixed_rotation_30_objects_occ0.7_0.9s/images/train/n02818832_0/n02828884_3/img_b03_the_sofa_and_chair_company_-_stanley_bed_2014_b04_wood_metal_park_bench_2008-3_gray.png,random,fixed,n04379243_8,n03001627_-2,Stimuli/canonical view 2/img_n04379243_8_gray.jpg,Stimuli/canonical view 2/img_n03001627_-2_gray.jpg,random,right,Experiments/experiment_27/148.jpg,Experiments/experiment_27/149.jpg,Experiments/experiment_27/150.jpg,Experiments/experiment_27/151.jpg,780,1,2023-04-03_18h22.32.394,Occlusion_Psychophysics,2022.1.4,Win32,143.9470275,,,left,"[""left""]",[1.0985000000000582],False,,0.0,0.0,37.0,37.0,37.0,1.0,,,,,,
,,,,,,,,,,,,,,,,,,,,,0.025,,,,,,,,,,Stimuli/psy_flexible_rotation_30_objects_occ0.7_0.9s/images/train/n02818832_9/n04256520_9/img_bed01_blue_napoleon_iii_sofa_2008_gray.jpg,n02818832_9,n04256520_9,flexible,0.80353,n02933112_4,Stimuli/psy_fixed_rotation_30_objects_occ0.7_0.9s/images/train/n02883344_15/n02933112_4/img_microwave_box_buffet_2015-3_gray.png,random,fixed,n02818832_9,n04379243_-7,Stimuli/canonical view 2/img_n02818832_9_gray.jpg,Stimuli/canonical view 2/img_n04379243_-7_gray.jpg,random,right,Experiments/experiment_27/152.jpg,Experiments/experiment_27/153.jpg,Experiments/experiment_27/154.jpg,Experiments/experiment_27/155.jpg,780,1,2023-04-03_18h22.32.394,Occlusion_Psychophysics,2022.1.4,Win32,143.9470275,,,left,"[""right""]",[0.7516999999284053],False,,0.0,0.0,38.0,38.0,38.0,1.0,,,,,,
,,,,,,,,,,,,,,,,,,,,,0.025,,,,,,,,,,Stimuli/psy_flexible_rotation_30_objects_occ0.7_0.9s/images/train/n02883344_0/n02883344_15/img_b03_box_microwave_box_2014_gray.jpg,n02883344_0,n02883344_15,flexible,0.815387,n04379243_0,Stimuli/psy_fixed_rotation_30_objects_occ0.7_0.9s/images/train/n02818832_0/n04379243_0/img_b03_the_sofa_and_chair_company_-_stanley_bed_2014_17th_c._monastery_dining_table_2010_2015-3_gray.png,random,fixed,n02883344_0,n02883344_15,Stimuli/canonical view 2/img_n02883344_0_gray.jpg,Stimuli/canonical view 2/img_n02883344_15_gray.jpg,foreground,left,Experiments/experiment_27/156.jpg,Experiments/experiment_27/157.jpg,Experiments/experiment_27/158.jpg,Experiments/experiment_27/159.jpg,780,1,2023-04-03_18h22.32.394,Occlusion_Psychophysics,2022.1.4,Win32,143.9470275,,,left,"[""left""]",[0.7486000000238846],False,,0.0,0.0,39.0,39.0,39.0,1.0,,,,,,
,,,,,,,,,,,,,,,,,,,,,0.025,,,,,,,,,,Stimuli/psy_fixed_rotation_30_objects_occ0.7_0.9s/images/train/n04256520_9/n02933112_4/img_napoleon_iii_sofa_buffet_2009_gray.jpg,n04256520_9,n02933112_4,fixed,0.721639,n02933112_4,Stimuli/psy_fixed_rotation_30_objects_occ0.7_0.9s/images/train/n04256520_9/n02933112_4/img_napoleon_iii_sofa_buffet_2009-3_gray.png,foreground,same as foreground,n04256520_9,n02933112_4,Stimuli/canonical view 2/img_n04256520_9_gray.jpg,Stimuli/canonical view 2/img_n02933112_4_gray.jpg,foreground,right,Experiments/experiment_27/160.jpg,Experiments/experiment_27/161.jpg,Experiments/experiment_27/162.jpg,Experiments/experiment_27/163.jpg,780,1,2023-04-03_18h22.32.394,Occlusion_Psychophysics,2022.1.4,Win32,143.9470275,,,right,"[""left""]",[0.9669999999999845],False,,0.0,0.0,40.0,40.0,40.0,1.0,,,,,,
,,,,,,,,,,,,,,,,,,,,,0.05,,,,,,,,,,Stimuli/psy_fixed_rotation_30_objects_occ0.7_0.9s/images/train/n04256520_4/n04405907_9/img_club_house_italia_nautilus_sofa_vray_004_2001_gray.jpg,n04256520_4,n04405907_9,fixed,0.707739,n04405907_9,Stimuli/psy_fixed_rotation_30_objects_occ0.7_0.9s/images/train/n04256520_4/n04405907_9/img_club_house_italia_nautilus_sofa_vray_004_2001-3_gray.png,foreground,same as foreground,n04256520_4,n02818832_0,Stimuli/canonical view 2/img_n04256520_4_gray.jpg,Stimuli/canonical view 2/img_n02818832_0_gray.jpg,random,left,Experiments/experiment_27/164.jpg,Experiments/experiment_27/165.jpg,Experiments/experiment_27/166.jpg,Experiments/experiment_27/167.jpg,780,1,2023-04-03_18h22.32.394,Occlusion_Psychophysics,2022.1.4,Win32,143.9470275,,,right,"[""right""]",[0.9806999999284471],False,,0.0,0.0,41.0,41.0,41.0,1.0,,,,,,
,,,,,,,,,,,,,,,,,,,,,0.025,,,,,,,,,,Stimuli/psy_flexible_rotation_30_objects_occ0.7_0.9s/images/train/n02818832_0/n04379243_8/img_b03_the_sofa_and_chair_company_-_stanley_bed_2014_glass_table_2012_gray.jpg,n02818832_0,n04379243_8,flexible,0.728794,n04379243_8,Stimuli/psy_flexible_rotation_30_objects_occ0.7_0.9s/images/train/n02818832_0/n04379243_8/img_b03_the_sofa_and_chair_company_-_stanley_bed_2014_glass_table_2012-3_gray.png,foreground,same as foreground,n02818832_0,n04379243_8,Stimuli/canonical view 2/img_n02818832_0_gray.jpg,Stimuli/canonical view 2/img_n04379243_8_gray.jpg,foreground,right,Experiments/experiment_27/168.jpg,Experiments/experiment_27/169.jpg,Experiments/experiment_27/170.jpg,Experiments/experiment_27/171.jpg,780,1,2023-04-03_18h22.32.394,Occlusion_Psychophysics,2022.1.4,Win32,143.9470275,,,right,"[""right""]",[0.9317000000477265],False,,0.0,0.0,42.0,42.0,42.0,1.0,,,,,,
,,,,,,,,,,,,,,,,,,,,,0.05,,,,,,,,,,Stimuli/psy_fixed_rotation_30_objects_occ0.7_0.9s/images/train/n02818832_0/n04379243_-7/img_b03_the_sofa_and_chair_company_-_stanley_bed_2014_quatre_dining_table_2015_gray.jpg,n02818832_0,n04379243_-7,fixed,0.717257,n04379243_-7,Stimuli/psy_fixed_rotation_30_objects_occ0.7_0.9s/images/train/n02818832_0/n04379243_-7/img_b03_the_sofa_and_chair_company_-_stanley_bed_2014_quatre_dining_table_2015-3_gray.png,foreground,same as foreground,n02818832_0,n04379243_-7,Stimuli/canonical view 2/img_n02818832_0_gray.jpg,Stimuli/canonical view 2/img_n04379243_-7_gray.jpg,foreground,right,Experiments/experiment_27/172.jpg,Experiments/experiment_27/173.jpg,Experiments/experiment_27/174.jpg,Experiments/experiment_27/175.jpg,780,1,2023-04-03_18h22.32.394,Occlusion_Psychophysics,2022.1.4,Win32,143.9470275,,,right,"[""right""]",[0.7677999999523308],False,,0.0,0.0,43.0,43.0,43.0,1.0,,,,,,
,,,,,,,,,,,,,,,,,,,,,0.05,,,,,,,,,,Stimuli/psy_flexible_rotation_30_objects_occ0.7_0.9s/images/train/n03001627_9/n04405907_8/img_chair_eames_plastic_armchair_stylized_tv_2002_gray.jpg,n03001627_9,n04405907_8,flexible,0.869669,n04405907_8,Stimuli/psy_flexible_rotation_30_objects_occ0.7_0.9s/images/train/n03001627_9/n04405907_8/img_chair_eames_plastic_armchair_stylized_tv_2002-3_gray.png,foreground,same as foreground,n03001627_9,n04405907_8,Stimuli/canonical view 2/img_n03001627_9_gray.jpg,Stimuli/canonical view 2/img_n04405907_8_gray.jpg,foreground,left,Experiments/experiment_27/176.jpg,Experiments/experiment_27/177.jpg,Experiments/experiment_27/178.jpg,Experiments/experiment_27/179.jpg,780,1,2023-04-03_18h22.32.394,Occlusion_Psychophysics,2022.1.4,Win32,143.9470275,,,left,"[""left""]",[0.5617000000477219],False,,0.0,0.0,44.0,44.0,44.0,1.0,,,,,,
,,,,,,,,,,,,,,,,,,,,,0.025,,,,,,,,,,Stimuli/psy_flexible_rotation_30_objects_occ0.7_0.9s/images/train/n04405907_8/n04256520_4/img_stylized_tv_club_house_italia_nautilus_sofa_2012_gray.jpg,n04405907_8,n04256520_4,flexible,0.708656,n02933112_4,Stimuli/psy_flexible_rotation_30_objects_occ0.7_0.9s/images/train/n04256520_9/n02933112_4/img_napoleon_iii_sofa_buffet_2001-3_gray.png,random,flexible,n04405907_8,n02933112_4,Stimuli/canonical view 2/img_n04405907_8_gray.jpg,Stimuli/canonical view 2/img_n02933112_4_gray.jpg,random,left,Experiments/experiment_27/180.jpg,Experiments/experiment_27/181.jpg,Experiments/experiment_27/182.jpg,Experiments/experiment_27/183.jpg,780,1,2023-04-03_18h22.32.394,Occlusion_Psychophysics,2022.1.4,Win32,143.9470275,,,right,"[""right""]",[0.7355000000000018],False,,0.0,0.0,45.0,45.0,45.0,1.0,,,,,,
,,,,,,,,,,,,,,,,,,,,,0.05,,,,,,,,,,Stimuli/psy_fixed_rotation_30_objects_occ0.7_0.9s/images/train/n02883344_0/n04379243_0/img_b03_box_17th_c._monastery_dining_table_2010_2010_gray.jpg,n02883344_0,n04379243_0,fixed,0.733212,n04405907_5,Stimuli/psy_flexible_rotation_30_objects_occ0.7_0.9s/images/train/n02933112_-2/n04405907_5/img_sink_base_white_wood_samsung_40_uhd_smart_tv_2011_2002-3_gray.png,random,flexible,n02883344_0,n02828884_9,Stimuli/canonical view 2/img_n02883344_0_gray.jpg,Stimuli/canonical view 2/img_n02828884_9_gray.jpg,random,right,Experiments/experiment_27/184.jpg,Experiments/experiment_27/185.jpg,Experiments/experiment_27/186.jpg,Experiments/experiment_27/187.jpg,780,1,2023-04-03_18h22.32.394,Occlusion_Psychophysics,2022.1.4,Win32,143.9470275,,,right,"[""right""]",[0.7336000000238982],False,,0.0,0.0,46.0,46.0,46.0,1.0,,,,,,
,,,,,,,,,,,,,,,,,,,,,0.05,,,,,,,,,,Stimuli/psy_flexible_rotation_30_objects_occ0.7_0.9s/images/train/n04405907_8/n02883344_-1/img_stylized_tv_woven_box_2015_gray.jpg,n04405907_8,n02883344_-1,flexible,0.866007,n02883344_-1,Stimuli/psy_flexible_rotation_30_objects_occ0.7_0.9s/images/train/n04405907_8/n02883344_-1/img_stylized_tv_woven_box_2015-3_gray.png,foreground,same as foreground,n04405907_8,n02883344_-1,Stimuli/canonical view 2/img_n04405907_8_gray.jpg,Stimuli/canonical view 2/img_n02883344_-1_gray.jpg,foreground,left,Experiments/experiment_27/188.jpg,Experiments/experiment_27/189.jpg,Experiments/experiment_27/190.jpg,Experiments/experiment_27/191.jpg,780,1,2023-04-03_18h22.32.394,Occlusion_Psychophysics,2022.1.4,Win32,143.9470275,,,right,"[""right""]",[1.0336000000238528],False,,0.0,0.0,47.0,47.0,47.0,1.0,,,,,,
,,,,,,,,,,,,,,,,,,,,,0.05,,,,,,,,,,Stimuli/psy_fixed_rotation_30_objects_occ0.7_0.9s/images/train/n02828884_4/n02883344_15/img_b05_c-5_classic_series_bench-2012_microwave_box_2009_gray.jpg,n02828884_4,n02883344_15,fixed,0.708805,n02883344_15,Stimuli/psy_fixed_rotation_30_objects_occ0.7_0.9s/images/train/n02828884_4/n02883344_15/img_b05_c-5_classic_series_bench-2012_microwave_box_2009-3_gray.png,foreground,same as foreground,n02828884_4,n02828884_3,Stimuli/canonical view 2/img_n02828884_4_gray.jpg,Stimuli/canonical view 2/img_n02828884_3_gray.jpg,random,right,Experiments/experiment_27/192.jpg,Experiments/experiment_27/193.jpg,Experiments/experiment_27/194.jpg,Experiments/experiment_27/195.jpg,780,1,2023-04-03_18h22.32.394,Occlusion_Psychophysics,2022.1.4,Win32,143.9470275,,,right,"[""left""]",[0.9215000000000373],False,,0.0,0.0,48.0,48.0,48.0,1.0,,,,,,
,,,,,,,,,,,,,,,,,,,,,0.025,,,,,,,,,,Stimuli/psy_flexible_rotation_30_objects_occ0.7_0.9s/images/train/n03001627_9/n04405907_5/img_chair_eames_plastic_armchair_samsung_40_uhd_smart_tv_2011_2013_gray.jpg,n03001627_9,n04405907_5,flexible,0.74768,n02883344_-1,Stimuli/psy_flexible_rotation_30_objects_occ0.7_0.9s/images/train/n02828884_3/n02883344_-1/img_b04_wood_metal_park_bench_woven_box_2014-3_gray.png,random,flexible,n03001627_9,n04405907_5,Stimuli/canonical view 2/img_n03001627_9_gray.jpg,Stimuli/canonical view 2/img_n04405907_5_gray.jpg,foreground,right,Experiments/experiment_27/196.jpg,Experiments/experiment_27/197.jpg,Experiments/experiment_27/198.jpg,Experiments/experiment_27/199.jpg,780,1,2023-04-03_18h22.32.394,Occlusion_Psychophysics,2022.1.4,Win32,143.9470275,,,right,"[""right""]",[1.2052999999523308],False,,0.0,0.0,49.0,49.0,49.0,1.0,,,,,,
,,,,,,,,,,,,,,,,,,,,,0.025,,,,,,,,,,Stimuli/psy_flexible_rotation_30_objects_occ0.7_0.9s/images/train/n04256520_9/n02883344_-1/img_napoleon_iii_sofa_woven_box_2011_gray.jpg,n04256520_9,n02883344_-1,flexible,0.73012,n04256520_9,Stimuli/psy_fixed_rotation_30_objects_occ0.7_0.9s/images/train/n04256520_9/n04256520_9/img_napoleon_iii_sofa_napoleon_iii_sofa_2003-3_gray.png,random,fixed,n04256520_9,n02883344_-1,Stimuli/canonical view 2/img_n04256520_9_gray.jpg,Stimuli/canonical view 2/img_n02883344_-1_gray.jpg,foreground,right,Experiments/experiment_27/200.jpg,Experiments/experiment_27/201.jpg,Experiments/experiment_27/202.jpg,Experiments/experiment_27/203.jpg,780,1,2023-04-03_18h22.32.394,Occlusion_Psychophysics,2022.1.4,Win32,143.9470275,,,left,"[""left""]",[0.6806999999283789],False,,0.0,0.0,50.0,50.0,50.0,1.0,,,,,,
,,,,,,,,,,,,,,,,,,,,,0.025,,,,,,,,,,Stimuli/psy_fixed_rotation_30_objects_occ0.7_0.9s/images/train/n02828884_3/n04405907_5/img_b04_wood_metal_park_bench_samsung_40_uhd_smart_tv_2011_2003_gray.jpg,n02828884_3,n04405907_5,fixed,0.844621,n02828884_3,Stimuli/psy_flexible_rotation_30_objects_occ0.7_0.9s/images/train/n04379243_-7/n02828884_3/img_quatre_dining_table_b04_wood_metal_park_bench_2013-3_gray.png,random,flexible,n02828884_3,n04405907_5,Stimuli/canonical view 2/img_n02828884_3_gray.jpg,Stimuli/canonical view 2/img_n04405907_5_gray.jpg,foreground,left,Experiments/experiment_27/204.jpg,Experiments/experiment_27/205.jpg,Experiments/experiment_27/206.jpg,Experiments/experiment_27/207.jpg,780,1,2023-04-03_18h22.32.394,Occlusion_Psychophysics,2022.1.4,Win32,143.9470275,,,left,"[""left""]",[0.6838999999761199],False,,0.0,0.0,51.0,51.0,51.0,1.0,,,,,,
,,,,,,,,,,,,,,,,,,,,,0.05,,,,,,,,,,Stimuli/psy_fixed_rotation_30_objects_occ0.7_0.9s/images/train/n04379243_8/n02883344_-1/img_glass_table_woven_box_2009_gray.jpg,n04379243_8,n02883344_-1,fixed,0.734829,n02883344_-1,Stimuli/psy_fixed_rotation_30_objects_occ0.7_0.9s/images/train/n04379243_8/n02883344_-1/img_glass_table_woven_box_2009-3_gray.png,foreground,same as foreground,n04379243_8,n02883344_-1,Stimuli/canonical view 2/img_n04379243_8_gray.jpg,Stimuli/canonical view 2/img_n02883344_-1_gray.jpg,foreground,right,Experiments/experiment_27/208.jpg,Experiments/experiment_27/209.jpg,Experiments/experiment_27/210.jpg,Experiments/experiment_27/211.jpg,780,1,2023-04-03_18h22.32.394,Occlusion_Psychophysics,2022.1.4,Win32,143.9470275,,,left,"[""left""]",[0.5297000000476828],False,,0.0,0.0,52.0,52.0,52.0,1.0,,,,,,
,,,,,,,,,,,,,,,,,,,,,0.05,,,,,,,,,,Stimuli/psy_flexible_rotation_30_objects_occ0.7_0.9s/images/train/n02818832_0/n02818832_9/img_b03_the_sofa_and_chair_company_-_stanley_bed_2014_bed01_blue_2012_gray.jpg,n02818832_0,n02818832_9,flexible,0.730942,n02818832_9,Stimuli/psy_flexible_rotation_30_objects_occ0.7_0.9s/images/train/n02818832_0/n02818832_9/img_b03_the_sofa_and_chair_company_-_stanley_bed_2014_bed01_blue_2012-3_gray.png,foreground,same as foreground,n02818832_0,n02818832_9,Stimuli/canonical view 2/img_n02818832_0_gray.jpg,Stimuli/canonical view 2/img_n02818832_9_gray.jpg,foreground,left,Experiments/experiment_27/212.jpg,Experiments/experiment_27/213.jpg,Experiments/experiment_27/214.jpg,Experiments/experiment_27/215.jpg,780,1,2023-04-03_18h22.32.394,Occlusion_Psychophysics,2022.1.4,Win32,143.9470275,,,right,"[""right""]",[0.8434999999999491],False,,0.0,0.0,53.0,53.0,53.0,1.0,,,,,,
,,,,,,,,,,,,,,,,,,,,,0.05,,,,,,,,,,Stimuli/psy_flexible_rotation_30_objects_occ0.7_0.9s/images/train/n04256520_4/n04256520_5/img_club_house_italia_nautilus_sofa_meridiani_belmondo_bench_sofa_2000_gray.jpg,n04256520_4,n04256520_5,flexible,0.769536,n04256520_4,Stimuli/psy_fixed_rotation_30_objects_occ0.7_0.9s/images/train/n04256520_4/n04256520_4/img_club_house_italia_nautilus_sofa_club_house_italia_nautilus_sofa_2012-3_gray.png,random,fixed,n04256520_4,n03928116_0,Stimuli/canonical view 2/img_n04256520_4_gray.jpg,Stimuli/canonical view 2/img_n03928116_0_gray.jpg,random,left,Experiments/experiment_27/216.jpg,Experiments/experiment_27/217.jpg,Experiments/experiment_27/218.jpg,Experiments/experiment_27/219.jpg,780,1,2023-04-03_18h22.32.394,Occlusion_Psychophysics,2022.1.4,Win32,143.9470275,,,left,"[""left""]",[0.66700000000003],False,,0.0,0.0,54.0,54.0,54.0,1.0,,,,,,
,,,,,,,,,,,,,,,,,,,,,0.05,,,,,,,,,,Stimuli/psy_flexible_rotation_30_objects_occ0.7_0.9s/images/train/n02933112_-18/n04405907_8/img_cgaxis_models_48_26_vray_composite_stylized_tv_2005_gray.jpg,n02933112_-18,n04405907_8,flexible,0.815619,n02883344_-1,Stimuli/psy_fixed_rotation_30_objects_occ0.7_0.9s/images/train/n02933112_4/n02883344_-1/img_buffet_woven_box_2005-3_gray.png,random,fixed,n02933112_-18,n04405907_8,Stimuli/canonical view 2/img_n02933112_-18_gray.jpg,Stimuli/canonical view 2/img_n04405907_8_gray.jpg,foreground,right,Experiments/experiment_27/220.jpg,Experiments/experiment_27/221.jpg,Experiments/experiment_27/222.jpg,Experiments/experiment_27/223.jpg,780,1,2023-04-03_18h22.32.394,Occlusion_Psychophysics,2022.1.4,Win32,143.9470275,,,left,"[""right""]",[0.7588000000714601],False,,0.0,0.0,55.0,55.0,55.0,1.0,,,,,,
,,,,,,,,,,,,,,,,,,,,,0.05,,,,,,,,,,Stimuli/psy_fixed_rotation_30_objects_occ0.7_0.9s/images/train/n04256520_9/n02818832_3/img_napoleon_iii_sofa_b05_ccm_contemporary_bed_max2013_2004_gray.jpg,n04256520_9,n02818832_3,fixed,0.725257,n02818832_3,Stimuli/psy_fixed_rotation_30_objects_occ0.7_0.9s/images/train/n04256520_9/n02818832_3/img_napoleon_iii_sofa_b05_ccm_contemporary_bed_max2013_2004-3_gray.png,foreground,same as foreground,n04256520_9,n03928116_4,Stimuli/canonical view 2/img_n04256520_9_gray.jpg,Stimuli/canonical view 2/img_n03928116_4_gray.jpg,random,left,Experiments/experiment_27/224.jpg,Experiments/experiment_27/225.jpg,Experiments/experiment_27/226.jpg,Experiments/experiment_27/227.jpg,780,1,2023-04-03_18h22.32.394,Occlusion_Psychophysics,2022.1.4,Win32,143.9470275,,,left,"[""left""]",[0.7208999999761545],False,,0.0,0.0,56.0,56.0,56.0,1.0,,,,,,
,,,,,,,,,,,,,,,,,,,,,0.025,,,,,,,,,,Stimuli/psy_fixed_rotation_30_objects_occ0.7_0.9s/images/train/n02933112_-2/n04256520_4/img_sink_base_white_wood_club_house_italia_nautilus_sofa_2007_gray.jpg,n02933112_-2,n04256520_4,fixed,0.80053,n04256520_4,Stimuli/psy_fixed_rotation_30_objects_occ0.7_0.9s/images/train/n02933112_-2/n04256520_4/img_sink_base_white_wood_club_house_italia_nautilus_sofa_2007-3_gray.png,foreground,same as foreground,n02933112_-2,n02883344_0,Stimuli/canonical view 2/img_n02933112_-2_gray.jpg,Stimuli/canonical view 2/img_n02883344_0_gray.jpg,random,right,Experiments/experiment_27/228.jpg,Experiments/experiment_27/229.jpg,Experiments/experiment_27/230.jpg,Experiments/experiment_27/231.jpg,780,1,2023-04-03_18h22.32.394,Occlusion_Psychophysics,2022.1.4,Win32,143.9470275,,,right,"[""left""]",[0.8028999999762618],False,,0.0,0.0,57.0,57.0,57.0,1.0,,,,,,
,,,,,,,,,,,,,,,,,,,,,0.05,,,,,,,,,,Stimuli/psy_flexible_rotation_30_objects_occ0.7_0.9s/images/train/n02933112_4/n02883344_15/img_buffet_microwave_box_2002_gray.jpg,n02933112_4,n02883344_15,flexible,0.76935,n02883344_15,Stimuli/psy_flexible_rotation_30_objects_occ0.7_0.9s/images/train/n02933112_4/n02883344_15/img_buffet_microwave_box_2002-3_gray.png,foreground,same as foreground,n02933112_4,n04256520_4,Stimuli/canonical view 2/img_n02933112_4_gray.jpg,Stimuli/canonical view 2/img_n04256520_4_gray.jpg,random,left,Experiments/experiment_27/232.jpg,Experiments/experiment_27/233.jpg,Experiments/experiment_27/234.jpg,Experiments/experiment_27/235.jpg,780,1,2023-04-03_18h22.32.394,Occlusion_Psychophysics,2022.1.4,Win32,143.9470275,,,left,"[""right""]",[0.8891000000238591],False,,0.0,0.0,58.0,58.0,58.0,1.0,,,,,,
,,,,,,,,,,,,,,,,,,,,,0.05,,,,,,,,,,Stimuli/psy_fixed_rotation_30_objects_occ0.7_0.9s/images/train/n04379243_-7/n03928116_0/img_quatre_dining_table_b02_piano_2005_gray.jpg,n04379243_-7,n03928116_0,fixed,0.753412,n02883344_15,Stimuli/psy_fixed_rotation_30_objects_occ0.7_0.9s/images/train/n04379243_0/n02883344_15/img_17th_c._monastery_dining_table_2010_microwave_box_2004-3_gray.png,random,fixed,n04379243_-7,n03928116_0,Stimuli/canonical view 2/img_n04379243_-7_gray.jpg,Stimuli/canonical view 2/img_n03928116_0_gray.jpg,foreground,right,Experiments/experiment_27/236.jpg,Experiments/experiment_27/237.jpg,Experiments/experiment_27/238.jpg,Experiments/experiment_27/239.jpg,780,1,2023-04-03_18h22.32.394,Occlusion_Psychophysics,2022.1.4,Win32,143.9470275,,,right,"[""right""]",[0.6406000000238237],False,,0.0,0.0,59.0,59.0,59.0,1.0,,,,,,
,,,,,,,,,,,,,,,,,,,,,0.025,,,,,,,,,,Stimuli/psy_fixed_rotation_30_objects_occ0.7_0.9s/images/train/n02933112_4/n04256520_9/img_buffet_napoleon_iii_sofa_2001_gray.jpg,n02933112_4,n04256520_9,fixed,0.793776,n04256520_4,Stimuli/psy_flexible_rotation_30_objects_occ0.7_0.9s/images/train/n04256520_5/n04256520_4/img_meridiani_belmondo_bench_sofa_club_house_italia_nautilus_sofa_2004-3_gray.png,random,flexible,n02933112_4,n04256520_9,Stimuli/canonical view 2/img_n02933112_4_gray.jpg,Stimuli/canonical view 2/img_n04256520_9_gray.jpg,foreground,left,Experiments/experiment_27/240.jpg,Experiments/experiment_27/241.jpg,Experiments/experiment_27/242.jpg,Experiments/experiment_27/243.jpg,780,1,2023-04-03_18h22.32.394,Occlusion_Psychophysics,2022.1.4,Win32,143.9470275,,,right,"[""right""]",[0.676499999999919],False,,0.0,0.0,60.0,60.0,60.0,1.0,,,,,,
,,,,,,,,,,,,,,,,,,,,,0.025,,,,,,,,,,Stimuli/psy_fixed_rotation_30_objects_occ0.7_0.9s/images/train/n02883344_0/n04405907_9/img_b03_box_vray_004_2005_gray.jpg,n02883344_0,n04405907_9,fixed,0.895525,n04405907_9,Stimuli/psy_fixed_rotation_30_objects_occ0.7_0.9s/images/train/n02883344_0/n04405907_9/img_b03_box_vray_004_2005-3_gray.png,foreground,same as foreground,n02883344_0,n02933112_-2,Stimuli/canonical view 2/img_n02883344_0_gray.jpg,Stimuli/canonical view 2/img_n02933112_-2_gray.jpg,random,left,Experiments/experiment_27/244.jpg,Experiments/experiment_27/245.jpg,Experiments/experiment_27/246.jpg,Experiments/experiment_27/247.jpg,780,1,2023-04-03_18h22.32.394,Occlusion_Psychophysics,2022.1.4,Win32,143.9470275,,,left,"[""left""]",[0.6516000000239046],False,,0.0,0.0,61.0,61.0,61.0,1.0,,,,,,
,,,,,,,,,,,,,,,,,,,,,0.025,,,,,,,,,,Stimuli/psy_flexible_rotation_30_objects_occ0.7_0.9s/images/train/n04256520_5/n04256520_4/img_meridiani_belmondo_bench_sofa_club_house_italia_nautilus_sofa_2009_gray.jpg,n04256520_5,n04256520_4,flexible,0.755528,n02933112_4,Stimuli/psy_flexible_rotation_30_objects_occ0.7_0.9s/images/train/n02933112_-18/n02933112_4/img_cgaxis_models_48_26_vray_composite_buffet_2007-3_gray.png,random,flexible,n04256520_5,n04256520_4,Stimuli/canonical view 2/img_n04256520_5_gray.jpg,Stimuli/canonical view 2/img_n04256520_4_gray.jpg,foreground,right,Experiments/experiment_27/248.jpg,Experiments/experiment_27/249.jpg,Experiments/experiment_27/250.jpg,Experiments/experiment_27/251.jpg,780,1,2023-04-03_18h22.32.394,Occlusion_Psychophysics,2022.1.4,Win32,143.9470275,,,left,"[""left""]",[0.8549999999999045],False,,0.0,0.0,62.0,62.0,62.0,1.0,,,,,,
,,,,,,,,,,,,,,,,,,,,,0.05,,,,,,,,,,Stimuli/psy_flexible_rotation_30_objects_occ0.7_0.9s/images/train/n02818832_9/n03928116_0/img_bed01_blue_b02_piano_2005_gray.jpg,n02818832_9,n03928116_0,flexible,0.734367,n04405907_8,Stimuli/psy_fixed_rotation_30_objects_occ0.7_0.9s/images/train/n02933112_-18/n04405907_8/img_cgaxis_models_48_26_vray_composite_stylized_tv_2012-3_gray.png,random,fixed,n02818832_9,n03001627_9,Stimuli/canonical view 2/img_n02818832_9_gray.jpg,Stimuli/canonical view 2/img_n03001627_9_gray.jpg,random,right,Experiments/experiment_27/252.jpg,Experiments/experiment_27/253.jpg,Experiments/experiment_27/254.jpg,Experiments/experiment_27/255.jpg,780,1,2023-04-03_18h22.32.394,Occlusion_Psychophysics,2022.1.4,Win32,143.9470275,,,left,"[""left""]",[0.9216999999284781],True,left,1.0,0.0,63.0,63.0,63.0,1.0,1.5647,,,,,
,,,,,,,,,,,,,,,,,,,,,0.025,,,,,,,,,,Stimuli/psy_fixed_rotation_30_objects_occ0.7_0.9s/images/train/n03928116_0/n04256520_4/img_b02_piano_club_house_italia_nautilus_sofa_2008_gray.jpg,n03928116_0,n04256520_4,fixed,0.749671,n04256520_4,Stimuli/psy_fixed_rotation_30_objects_occ0.7_0.9s/images/train/n03928116_0/n04256520_4/img_b02_piano_club_house_italia_nautilus_sofa_2008-3_gray.png,foreground,same as foreground,n03928116_0,n04256520_4,Stimuli/canonical view 2/img_n03928116_0_gray.jpg,Stimuli/canonical view 2/img_n04256520_4_gray.jpg,foreground,left,Experiments/experiment_27/256.jpg,Experiments/experiment_27/257.jpg,Experiments/experiment_27/258.jpg,Experiments/experiment_27/259.jpg,780,1,2023-04-03_18h22.32.394,Occlusion_Psychophysics,2022.1.4,Win32,143.9470275,,,left,"[""left""]",[1.5659999999999172],False,,0.0,0.0,64.0,64.0,64.0,1.0,,,,,,
,,,,,,,,,,,,,,,,,,,,,0.025,,,,,,,,,,Stimuli/psy_fixed_rotation_30_objects_occ0.7_0.9s/images/train/n04379243_8/n02818832_3/img_glass_table_b05_ccm_contemporary_bed_max2013_2012_gray.jpg,n04379243_8,n02818832_3,fixed,0.736931,n02818832_3,Stimuli/psy_fixed_rotation_30_objects_occ0.7_0.9s/images/train/n04379243_8/n02818832_3/img_glass_table_b05_ccm_contemporary_bed_max2013_2012-3_gray.png,foreground,same as foreground,n04379243_8,n02818832_3,Stimuli/canonical view 2/img_n04379243_8_gray.jpg,Stimuli/canonical view 2/img_n02818832_3_gray.jpg,foreground,left,Experiments/experiment_27/260.jpg,Experiments/experiment_27/261.jpg,Experiments/experiment_27/262.jpg,Experiments/experiment_27/263.jpg,780,1,2023-04-03_18h22.32.394,Occlusion_Psychophysics,2022.1.4,Win32,143.9470275,,,right,"[""right""]",[0.5144999999999982],False,,0.0,0.0,65.0,65.0,65.0,1.0,,,,,,
,,,,,,,,,,,,,,,,,,,,,0.05,,,,,,,,,,Stimuli/psy_fixed_rotation_30_objects_occ0.7_0.9s/images/train/n03001627_-2/n04405907_8/img_wood_chair_stylized_tv_2014_gray.jpg,n03001627_-2,n04405907_8,fixed,0.760348,n04405907_8,Stimuli/psy_fixed_rotation_30_objects_occ0.7_0.9s/images/train/n03001627_-2/n04405907_8/img_wood_chair_stylized_tv_2014-3_gray.png,foreground,same as foreground,n03001627_-2,n04405907_8,Stimuli/canonical view 2/img_n03001627_-2_gray.jpg,Stimuli/canonical view 2/img_n04405907_8_gray.jpg,foreground,left,Experiments/experiment_27/264.jpg,Experiments/experiment_27/265.jpg,Experiments/experiment_27/266.jpg,Experiments/experiment_27/267.jpg,780,1,2023-04-03_18h22.32.394,Occlusion_Psychophysics,2022.1.4,Win32,143.9470275,,,left,"[""left""]",[0.8718000000716302],False,,0.0,0.0,66.0,66.0,66.0,1.0,,,,,,
,,,,,,,,,,,,,,,,,,,,,0.05,,,,,,,,,,Stimuli/psy_flexible_rotation_30_objects_occ0.7_0.9s/images/train/n02883344_0/n02818832_3/img_b03_box_b05_ccm_contemporary_bed_max2013_2011_gray.jpg,n02883344_0,n02818832_3,flexible,0.707327,n04405907_9,Stimuli/psy_flexible_rotation_30_objects_occ0.7_0.9s/images/train/n03928116_4/n04405907_9/img_dp_33_b_2013__vray_vray_004_2001-3_gray.png,random,flexible,n02883344_0,n04405907_9,Stimuli/canonical view 2/img_n02883344_0_gray.jpg,Stimuli/canonical view 2/img_n04405907_9_gray.jpg,random,left,Experiments/experiment_27/268.jpg,Experiments/experiment_27/269.jpg,Experiments/experiment_27/270.jpg,Experiments/experiment_27/271.jpg,780,1,2023-04-03_18h22.32.394,Occlusion_Psychophysics,2022.1.4,Win32,143.9470275,,,left,"[""left""]",[0.6355000000000928],True,left,1.0,0.0,67.0,67.0,67.0,1.0,1.2161,,,,,
,,,,,,,,,,,,,,,,,,,,,0.05,,,,,,,,,,Stimuli/psy_fixed_rotation_30_objects_occ0.7_0.9s/images/train/n02828884_4/n04256520_5/img_b05_c-5_classic_series_bench-2012_meridiani_belmondo_bench_sofa_2011_gray.jpg,n02828884_4,n04256520_5,fixed,0.741652,n04256520_5,Stimuli/psy_fixed_rotation_30_objects_occ0.7_0.9s/images/train/n02828884_4/n04256520_5/img_b05_c-5_classic_series_bench-2012_meridiani_belmondo_bench_sofa_2011-3_gray.png,foreground,same as foreground,n02828884_4,n03928116_4,Stimuli/canonical view 2/img_n02828884_4_gray.jpg,Stimuli/canonical view 2/img_n03928116_4_gray.jpg,random,right,Experiments/experiment_27/272.jpg,Experiments/experiment_27/273.jpg,Experiments/experiment_27/274.jpg,Experiments/experiment_27/275.jpg,780,1,2023-04-03_18h22.32.394,Occlusion_Psychophysics,2022.1.4,Win32,143.9470275,,,left,"[""left""]",[1.2888999999761381],False,,0.0,0.0,68.0,68.0,68.0,1.0,,,,,,
,,,,,,,,,,,,,,,,,,,,,0.05,,,,,,,,,,Stimuli/psy_flexible_rotation_30_objects_occ0.7_0.9s/images/train/n04405907_8/n02818832_0/img_stylized_tv_b03_the_sofa_and_chair_company_-_stanley_bed_2014_2006_gray.jpg,n04405907_8,n02818832_0,flexible,0.820568,n02818832_0,Stimuli/psy_flexible_rotation_30_objects_occ0.7_0.9s/images/train/n04405907_8/n02818832_0/img_stylized_tv_b03_the_sofa_and_chair_company_-_stanley_bed_2014_2006-3_gray.png,foreground,same as foreground,n04405907_8,n03001627_8,Stimuli/canonical view 2/img_n04405907_8_gray.jpg,Stimuli/canonical view 2/img_n03001627_8_gray.jpg,random,left,Experiments/experiment_27/276.jpg,Experiments/experiment_27/277.jpg,Experiments/experiment_27/278.jpg,Experiments/experiment_27/279.jpg,780,1,2023-04-03_18h22.32.394,Occlusion_Psychophysics,2022.1.4,Win32,143.9470275,,,left,"[""left""]",[0.5461000000238982],False,,0.0,0.0,69.0,69.0,69.0,1.0,,,,,,
,,,,,,,,,,,,,,,,,,,,,0.025,,,,,,,,,,Stimuli/psy_flexible_rotation_30_objects_occ0.7_0.9s/images/train/n03001627_8/n02933112_4/img_chair_billiani_doll_buffet_2005_gray.jpg,n03001627_8,n02933112_4,flexible,0.704325,n02933112_4,Stimuli/psy_flexible_rotation_30_objects_occ0.7_0.9s/images/train/n03001627_8/n02933112_4/img_chair_billiani_doll_buffet_2005-3_gray.png,foreground,same as foreground,n03001627_8,n02933112_4,Stimuli/canonical view 2/img_n03001627_8_gray.jpg,Stimuli/canonical view 2/img_n02933112_4_gray.jpg,foreground,right,Experiments/experiment_27/280.jpg,Experiments/experiment_27/281.jpg,Experiments/experiment_27/282.jpg,Experiments/experiment_27/283.jpg,780,1,2023-04-03_18h22.32.394,Occlusion_Psychophysics,2022.1.4,Win32,143.9470275,,,left,"[""left""]",[0.7956999999285017],False,,0.0,0.0,70.0,70.0,70.0,1.0,,,,,,
,,,,,,,,,,,,,,,,,,,,,0.05,,,,,,,,,,Stimuli/psy_fixed_rotation_30_objects_occ0.7_0.9s/images/train/n02883344_15/n02883344_-1/img_microwave_box_woven_box_2014_gray.jpg,n02883344_15,n02883344_-1,fixed,0.764666,n04256520_9,Stimuli/psy_flexible_rotation_30_objects_occ0.7_0.9s/images/train/n02883344_0/n04256520_9/img_b03_box_napoleon_iii_sofa_2004-3_gray.png,random,flexible,n02883344_15,n02883344_-1,Stimuli/canonical view 2/img_n02883344_15_gray.jpg,Stimuli/canonical view 2/img_n02883344_-1_gray.jpg,foreground,left,Experiments/experiment_27/284.jpg,Experiments/experiment_27/285.jpg,Experiments/experiment_27/286.jpg,Experiments/experiment_27/287.jpg,780,1,2023-04-03_18h22.32.394,Occlusion_Psychophysics,2022.1.4,Win32,143.9470275,,,right,"[""right""]",[1.3335000000000719],False,,0.0,0.0,71.0,71.0,71.0,1.0,,,,,,
,,,,,,,,,,,,,,,,,,,,,0.05,,,,,,,,,,Stimuli/psy_fixed_rotation_30_objects_occ0.7_0.9s/images/train/n04379243_-7/n03928116_0/img_quatre_dining_table_b02_piano_2005_gray.jpg,n04379243_-7,n03928116_0,fixed,0.753412,n02883344_15,Stimuli/psy_fixed_rotation_30_objects_occ0.7_0.9s/images/train/n04379243_0/n02883344_15/img_17th_c._monastery_dining_table_2010_microwave_box_2004-3_gray.png,random,fixed,n04379243_-7,n03928116_0,Stimuli/canonical view 2/img_n04379243_-7_gray.jpg,Stimuli/canonical view 2/img_n03928116_0_gray.jpg,foreground,right,Experiments/experiment_27/288.jpg,Experiments/experiment_27/289.jpg,Experiments/experiment_27/290.jpg,Experiments/experiment_27/291.jpg,780,1,2023-04-03_18h22.32.394,Occlusion_Psychophysics,2022.1.4,Win32,143.9470275,,,right,"[""right""]",[0.6290000000000191],False,,0.0,0.0,72.0,72.0,72.0,1.0,,,,,,
,,,,,,,,,,,,,,,,,,,,,0.025,,,,,,,,,,Stimuli/psy_flexible_rotation_30_objects_occ0.7_0.9s/images/train/n03001627_8/n02883344_-1/img_chair_billiani_doll_woven_box_2006_gray.jpg,n03001627_8,n02883344_-1,flexible,0.836036,n02883344_-1,Stimuli/psy_flexible_rotation_30_objects_occ0.7_0.9s/images/train/n03001627_8/n02883344_-1/img_chair_billiani_doll_woven_box_2006-3_gray.png,foreground,same as foreground,n03001627_8,n02883344_-1,Stimuli/canonical view 2/img_n03001627_8_gray.jpg,Stimuli/canonical view 2/img_n02883344_-1_gray.jpg,foreground,right,Experiments/experiment_27/292.jpg,Experiments/experiment_27/293.jpg,Experiments/experiment_27/294.jpg,Experiments/experiment_27/295.jpg,780,1,2023-04-03_18h22.32.394,Occlusion_Psychophysics,2022.1.4,Win32,143.9470275,,,left,"[""left""]",[0.6114000000952728],False,,0.0,0.0,73.0,73.0,73.0,1.0,,,,,,
,,,,,,,,,,,,,,,,,,,,,0.05,,,,,,,,,,Stimuli/psy_flexible_rotation_30_objects_occ0.7_0.9s/images/train/n04379243_0/n03928116_4/img_17th_c._monastery_dining_table_2010_dp_33_b_2013__vray_2012_gray.jpg,n04379243_0,n03928116_4,flexible,0.795483,n03928116_4,Stimuli/psy_flexible_rotation_30_objects_occ0.7_0.9s/images/train/n04379243_0/n03928116_4/img_17th_c._monastery_dining_table_2010_dp_33_b_2013__vray_2012-3_gray.png,foreground,same as foreground,n04379243_0,n03928116_4,Stimuli/canonical view 2/img_n04379243_0_gray.jpg,Stimuli/canonical view 2/img_n03928116_4_gray.jpg,foreground,right,Experiments/experiment_27/296.jpg,Experiments/experiment_27/297.jpg,Experiments/experiment_27/298.jpg,Experiments/experiment_27/299.jpg,780,1,2023-04-03_18h22.32.394,Occlusion_Psychophysics,2022.1.4,Win32,143.9470275,,,right,"[""left""]",[1.2123000000715365],True,right,1.0,0.0,74.0,74.0,74.0,1.0,1.3016,,,,,
,,,,,,,,,,,,,,,,,,,,,0.05,,,,,,,,,,Stimuli/psy_fixed_rotation_30_objects_occ0.7_0.9s/images/train/n04256520_5/n04256520_9/img_meridiani_belmondo_bench_sofa_napoleon_iii_sofa_2013_gray.jpg,n04256520_5,n04256520_9,fixed,0.726918,n04256520_9,Stimuli/psy_fixed_rotation_30_objects_occ0.7_0.9s/images/train/n04256520_5/n04256520_9/img_meridiani_belmondo_bench_sofa_napoleon_iii_sofa_2013-3_gray.png,foreground,same as foreground,n04256520_5,n02828884_9,Stimuli/canonical view 2/img_n04256520_5_gray.jpg,Stimuli/canonical view 2/img_n02828884_9_gray.jpg,random,right,Experiments/experiment_27/300.jpg,Experiments/experiment_27/301.jpg,Experiments/experiment_27/302.jpg,Experiments/experiment_27/303.jpg,780,1,2023-04-03_18h22.32.394,Occlusion_Psychophysics,2022.1.4,Win32,143.9470275,,,right,"[""right""]",[1.0246000000238382],False,,0.0,0.0,75.0,75.0,75.0,1.0,,,,,,
,,,,,,,,,,,,,,,,,,,,,0.025,,,,,,,,,,Stimuli/psy_fixed_rotation_30_objects_occ0.7_0.9s/images/train/n04256520_9/n02818832_0/img_napoleon_iii_sofa_b03_the_sofa_and_chair_company_-_stanley_bed_2014_2006_gray.jpg,n04256520_9,n02818832_0,fixed,0.70129,n04379243_8,Stimuli/psy_flexible_rotation_30_objects_occ0.7_0.9s/images/train/n04256520_5/n04379243_8/img_meridiani_belmondo_bench_sofa_glass_table_2009-3_gray.png,random,flexible,n04256520_9,n02818832_0,Stimuli/canonical view 2/img_n04256520_9_gray.jpg,Stimuli/canonical view 2/img_n02818832_0_gray.jpg,foreground,left,Experiments/experiment_27/304.jpg,Experiments/experiment_27/305.jpg,Experiments/experiment_27/306.jpg,Experiments/experiment_27/307.jpg,780,1,2023-04-03_18h22.32.394,Occlusion_Psychophysics,2022.1.4,Win32,143.9470275,,,right,"[""right""]",[0.9475000000001046],False,,0.0,0.0,76.0,76.0,76.0,1.0,,,,,,
,,,,,,,,,,,,,,,,,,,,,0.025,,,,,,,,,,Stimuli/psy_fixed_rotation_30_objects_occ0.7_0.9s/images/train/n02818832_0/n02828884_3/img_b03_the_sofa_and_chair_company_-_stanley_bed_2014_b04_wood_metal_park_bench_2005_gray.jpg,n02818832_0,n02828884_3,fixed,0.708295,n02828884_3,Stimuli/psy_fixed_rotation_30_objects_occ0.7_0.9s/images/train/n02818832_0/n02828884_3/img_b03_the_sofa_and_chair_company_-_stanley_bed_2014_b04_wood_metal_park_bench_2005-3_gray.png,foreground,same as foreground,n02818832_0,n03928116_0,Stimuli/canonical view 2/img_n02818832_0_gray.jpg,Stimuli/canonical view 2/img_n03928116_0_gray.jpg,random,right,Experiments/experiment_27/308.jpg,Experiments/experiment_27/309.jpg,Experiments/experiment_27/310.jpg,Experiments/experiment_27/311.jpg,780,1,2023-04-03_18h22.32.394,Occlusion_Psychophysics,2022.1.4,Win32,143.9470275,,,left,"[""left""]",[0.6723999999761645],False,,0.0,0.0,77.0,77.0,77.0,1.0,,,,,,
,,,,,,,,,,,,,,,,,,,,,0.025,,,,,,,,,,Stimuli/psy_flexible_rotation_30_objects_occ0.7_0.9s/images/train/n03928116_4/n02933112_-2/img_dp_33_b_2013__vray_sink_base_white_wood_2009_gray.jpg,n03928116_4,n02933112_-2,flexible,0.7574,n02883344_15,Stimuli/psy_flexible_rotation_30_objects_occ0.7_0.9s/images/train/n03001627_9/n02883344_15/img_chair_eames_plastic_armchair_microwave_box_2014-3_gray.png,random,flexible,n03928116_4,n02883344_-1,Stimuli/canonical view 2/img_n03928116_4_gray.jpg,Stimuli/canonical view 2/img_n02883344_-1_gray.jpg,random,left,Experiments/experiment_27/312.jpg,Experiments/experiment_27/313.jpg,Experiments/experiment_27/314.jpg,Experiments/experiment_27/315.jpg,780,1,2023-04-03_18h22.32.394,Occlusion_Psychophysics,2022.1.4,Win32,143.9470275,,,right,"[""right""]",[1.0647000000477647],False,,0.0,0.0,78.0,78.0,78.0,1.0,,,,,,
,,,,,,,,,,,,,,,,,,,,,0.025,,,,,,,,,,Stimuli/psy_fixed_rotation_30_objects_occ0.7_0.9s/images/train/n02818832_0/n02828884_4/img_b03_the_sofa_and_chair_company_-_stanley_bed_2014_b05_c-5_classic_series_bench-2012_2007_gray.jpg,n02818832_0,n02828884_4,fixed,0.778247,n02828884_4,Stimuli/psy_fixed_rotation_30_objects_occ0.7_0.9s/images/train/n02818832_0/n02828884_4/img_b03_the_sofa_and_chair_company_-_stanley_bed_2014_b05_c-5_classic_series_bench-2012_2007-3_gray.png,foreground,same as foreground,n02818832_0,n03001627_8,Stimuli/canonical view 2/img_n02818832_0_gray.jpg,Stimuli/canonical view 2/img_n03001627_8_gray.jpg,random,left,Experiments/experiment_27/316.jpg,Experiments/experiment_27/317.jpg,Experiments/experiment_27/318.jpg,Experiments/experiment_27/319.jpg,780,1,2023-04-03_18h22.32.394,Occlusion_Psychophysics,2022.1.4,Win32,143.9470275,,,left,"[""right""]",[0.7705000000000837],False,,0.0,0.0,79.0,79.0,79.0,1.0,,,,,,
,,,,,,,,,,,,,,,,,,,,,0.05,,,,,,,,,,Stimuli/psy_flexible_rotation_30_objects_occ0.7_0.9s/images/train/n04405907_5/n04256520_4/img_samsung_40_uhd_smart_tv_2011_club_house_italia_nautilus_sofa_2011_gray.jpg,n04405907_5,n04256520_4,flexible,0.700574,n04256520_4,Stimuli/psy_flexible_rotation_30_objects_occ0.7_0.9s/images/train/n04405907_5/n04256520_4/img_samsung_40_uhd_smart_tv_2011_club_house_italia_nautilus_sofa_2011-3_gray.png,foreground,same as foreground,n04405907_5,n04256520_4,Stimuli/canonical view 2/img_n04405907_5_gray.jpg,Stimuli/canonical view 2/img_n04256520_4_gray.jpg,foreground,left,Experiments/experiment_27/320.jpg,Experiments/experiment_27/321.jpg,Experiments/experiment_27/322.jpg,Experiments/experiment_27/323.jpg,780,1,2023-04-03_18h22.32.394,Occlusion_Psychophysics,2022.1.4,Win32,143.9470275,,,left,"[""left""]",[0.9634999999999536],False,,0.0,0.0,80.0,80.0,80.0,1.0,,,,,,
,,,,,,,,,,,,,,,,,,,,,0.05,,,,,,,,,,Stimuli/psy_flexible_rotation_30_objects_occ0.7_0.9s/images/train/n04379243_0/n02828884_3/img_17th_c._monastery_dining_table_2010_b04_wood_metal_park_bench_2007_gray.jpg,n04379243_0,n02828884_3,flexible,0.799599,n02883344_15,Stimuli/psy_flexible_rotation_30_objects_occ0.7_0.9s/images/train/n04070727_5/n02883344_15/img_b05_db_apps_tech_06_13_composite_microwave_box_2013-3_gray.png,random,flexible,n04379243_0,n04405907_5,Stimuli/canonical view 2/img_n04379243_0_gray.jpg,Stimuli/canonical view 2/img_n04405907_5_gray.jpg,random,left,Experiments/experiment_27/324.jpg,Experiments/experiment_27/325.jpg,Experiments/experiment_27/326.jpg,Experiments/experiment_27/327.jpg,780,1,2023-04-03_18h22.32.394,Occlusion_Psychophysics,2022.1.4,Win32,143.9470275,,,right,"[""right""]",[1.2305000000000064],False,,0.0,0.0,81.0,81.0,81.0,1.0,,,,,,
,,,,,,,,,,,,,,,,,,,,,0.05,,,,,,,,,,Stimuli/psy_fixed_rotation_30_objects_occ0.7_0.9s/images/train/n02818832_0/n04405907_8/img_b03_the_sofa_and_chair_company_-_stanley_bed_2014_stylized_tv_2002_gray.jpg,n02818832_0,n04405907_8,fixed,0.791736,n02828884_3,Stimuli/psy_fixed_rotation_30_objects_occ0.7_0.9s/images/train/n03928116_10/n02828884_3/img_ydp_103_r_2012__vray_b04_wood_metal_park_bench_2002-3_gray.png,random,fixed,n02818832_0,n04405907_8,Stimuli/canonical view 2/img_n02818832_0_gray.jpg,Stimuli/canonical view 2/img_n04405907_8_gray.jpg,foreground,left,Experiments/experiment_27/328.jpg,Experiments/experiment_27/329.jpg,Experiments/experiment_27/330.jpg,Experiments/experiment_27/331.jpg,780,1,2023-04-03_18h22.32.394,Occlusion_Psychophysics,2022.1.4,Win32,143.9470275,,,right,"[""left""]",[1.0640000000000782],True,left,1.0,0.0,82.0,82.0,82.0,1.0,0.8017,,,,,
,,,,,,,,,,,,,,,,,,,,,0.025,,,,,,,,,,Stimuli/psy_flexible_rotation_30_objects_occ0.7_0.9s/images/train/n03928116_4/n02933112_-2/img_dp_33_b_2013__vray_sink_base_white_wood_2014_gray.jpg,n03928116_4,n02933112_-2,flexible,0.705329,n02933112_-2,Stimuli/psy_flexible_rotation_30_objects_occ0.7_0.9s/images/train/n03928116_4/n02933112_-2/img_dp_33_b_2013__vray_sink_base_white_wood_2014-3_gray.png,foreground,same as foreground,n03928116_4,n02933112_-2,Stimuli/canonical view 2/img_n03928116_4_gray.jpg,Stimuli/canonical view 2/img_n02933112_-2_gray.jpg,foreground,left,Experiments/experiment_27/332.jpg,Experiments/experiment_27/333.jpg,Experiments/experiment_27/334.jpg,Experiments/experiment_27/335.jpg,780,1,2023-04-03_18h22.32.394,Occlusion_Psychophysics,2022.1.4,Win32,143.9470275,,,right,"[""right""]",[0.77049999999997],False,,0.0,0.0,83.0,83.0,83.0,1.0,,,,,,
,,,,,,,,,,,,,,,,,,,,,0.05,,,,,,,,,,Stimuli/psy_fixed_rotation_30_objects_occ0.7_0.9s/images/train/n03928116_0/n04256520_4/img_b02_piano_club_house_italia_nautilus_sofa_2003_gray.jpg,n03928116_0,n04256520_4,fixed,0.731103,n04405907_8,Stimuli/psy_flexible_rotation_30_objects_occ0.7_0.9s/images/train/n03001627_-2/n04405907_8/img_wood_chair_stylized_tv_2012-3_gray.png,random,flexible,n03928116_0,n04256520_4,Stimuli/canonical view 2/img_n03928116_0_gray.jpg,Stimuli/canonical view 2/img_n04256520_4_gray.jpg,foreground,right,Experiments/experiment_27/336.jpg,Experiments/experiment_27/337.jpg,Experiments/experiment_27/338.jpg,Experiments/experiment_27/339.jpg,780,1,2023-04-03_18h22.32.394,Occlusion_Psychophysics,2022.1.4,Win32,143.9470275,,,left,"[""left""]",[0.7242000000477447],False,,0.0,0.0,84.0,84.0,84.0,1.0,,,,,,
,,,,,,,,,,,,,,,,,,,,,0.05,,,,,,,,,,Stimuli/psy_flexible_rotation_30_objects_occ0.7_0.9s/images/train/n03001627_9/n04256520_4/img_chair_eames_plastic_armchair_club_house_italia_nautilus_sofa_2012_gray.jpg,n03001627_9,n04256520_4,flexible,0.768886,n02883344_0,Stimuli/psy_flexible_rotation_30_objects_occ0.7_0.9s/images/train/n04256520_5/n02883344_0/img_meridiani_belmondo_bench_sofa_b03_box_2002-3_gray.png,random,flexible,n03001627_9,n02883344_0,Stimuli/canonical view 2/img_n03001627_9_gray.jpg,Stimuli/canonical view 2/img_n02883344_0_gray.jpg,random,right,Experiments/experiment_27/340.jpg,Experiments/experiment_27/341.jpg,Experiments/experiment_27/342.jpg,Experiments/experiment_27/343.jpg,780,1,2023-04-03_18h22.32.394,Occlusion_Psychophysics,2022.1.4,Win32,143.9470275,,,left,"[""left""]",[1.4663999999761472],False,,0.0,0.0,85.0,85.0,85.0,1.0,,,,,,
,,,,,,,,,,,,,,,,,,,,,0.025,,,,,,,,,,Stimuli/psy_fixed_rotation_30_objects_occ0.7_0.9s/images/train/n02883344_-1/n02818832_3/img_woven_box_b05_ccm_contemporary_bed_max2013_2013_gray.jpg,n02883344_-1,n02818832_3,fixed,0.830541,n02933112_-18,Stimuli/psy_fixed_rotation_30_objects_occ0.7_0.9s/images/train/n04070727_3/n02933112_-18/img_b05_db_apps_tech_06_02_2_composite_cgaxis_models_48_26_vray_composite_2005-3_gray.png,random,fixed,n02883344_-1,n02818832_3,Stimuli/canonical view 2/img_n02883344_-1_gray.jpg,Stimuli/canonical view 2/img_n02818832_3_gray.jpg,foreground,right,Experiments/experiment_27/344.jpg,Experiments/experiment_27/345.jpg,Experiments/experiment_27/346.jpg,Experiments/experiment_27/347.jpg,780,1,2023-04-03_18h22.32.394,Occlusion_Psychophysics,2022.1.4,Win32,143.9470275,,,left,"[""left""]",[1.201100000023871],False,,0.0,0.0,86.0,86.0,86.0,1.0,,,,,,
,,,,,,,,,,,,,,,,,,,,,0.05,,,,,,,,,,Stimuli/psy_fixed_rotation_30_objects_occ0.7_0.9s/images/train/n02883344_-1/n02933112_4/img_woven_box_buffet_2013_gray.jpg,n02883344_-1,n02933112_4,fixed,0.744218,n02933112_4,Stimuli/psy_fixed_rotation_30_objects_occ0.7_0.9s/images/train/n02883344_-1/n02933112_4/img_woven_box_buffet_2013-3_gray.png,foreground,same as foreground,n02883344_-1,n04379243_0,Stimuli/canonical view 2/img_n02883344_-1_gray.jpg,Stimuli/canonical view 2/img_n04379243_0_gray.jpg,random,right,Experiments/experiment_27/348.jpg,Experiments/experiment_27/349.jpg,Experiments/experiment_27/350.jpg,Experiments/experiment_27/351.jpg,780,1,2023-04-03_18h22.32.394,Occlusion_Psychophysics,2022.1.4,Win32,143.9470275,,,right,"[""right""]",[0.7676999999284817],True,left,1.0,0.0,87.0,87.0,87.0,1.0,0.8869,,,,,
,,,,,,,,,,,,,,,,,,,,,0.025,,,,,,,,,,Stimuli/psy_flexible_rotation_30_objects_occ0.7_0.9s/images/train/n04379243_8/n02818832_0/img_glass_table_b03_the_sofa_and_chair_company_-_stanley_bed_2014_2011_gray.jpg,n04379243_8,n02818832_0,flexible,0.873739,n03928116_0,Stimuli/psy_fixed_rotation_30_objects_occ0.7_0.9s/images/train/n02818832_9/n03928116_0/img_bed01_blue_b02_piano_2004-3_gray.png,random,fixed,n04379243_8,n02828884_9,Stimuli/canonical view 2/img_n04379243_8_gray.jpg,Stimuli/canonical view 2/img_n02828884_9_gray.jpg,random,left,Experiments/experiment_27/352.jpg,Experiments/experiment_27/353.jpg,Experiments/experiment_27/354.jpg,Experiments/experiment_27/355.jpg,780,1,2023-04-03_18h22.32.394,Occlusion_Psychophysics,2022.1.4,Win32,143.9470275,,,left,"[""left""]",[0.6322000000477601],False,,0.0,0.0,88.0,88.0,88.0,1.0,,,,,,
,,,,,,,,,,,,,,,,,,,,,0.025,,,,,,,,,,Stimuli/psy_fixed_rotation_30_objects_occ0.7_0.9s/images/train/n04256520_4/n04405907_9/img_club_house_italia_nautilus_sofa_vray_004_2000_gray.jpg,n04256520_4,n04405907_9,fixed,0.709023,n04405907_9,Stimuli/psy_fixed_rotation_30_objects_occ0.7_0.9s/images/train/n04256520_4/n04405907_9/img_club_house_italia_nautilus_sofa_vray_004_2000-3_gray.png,foreground,same as foreground,n04256520_4,n04405907_9,Stimuli/canonical view 2/img_n04256520_4_gray.jpg,Stimuli/canonical view 2/img_n04405907_9_gray.jpg,foreground,left,Experiments/experiment_27/356.jpg,Experiments/experiment_27/357.jpg,Experiments/experiment_27/358.jpg,Experiments/experiment_27/359.jpg,780,1,2023-04-03_18h22.32.394,Occlusion_Psychophysics,2022.1.4,Win32,143.9470275,,,left,"[""right""]",[0.9705000000000155],False,,0.0,0.0,89.0,89.0,89.0,1.0,,,,,,
,,,,,,,,,,,,,,,,,,,,,0.05,,,,,,,,,,Stimuli/psy_flexible_rotation_30_objects_occ0.7_0.9s/images/train/n04256520_5/n02933112_4/img_meridiani_belmondo_bench_sofa_buffet_2012_gray.jpg,n04256520_5,n02933112_4,flexible,0.763872,n02818832_3,Stimuli/psy_fixed_rotation_30_objects_occ0.7_0.9s/images/train/n02933112_-2/n02818832_3/img_sink_base_white_wood_b05_ccm_contemporary_bed_max2013_2008-3_gray.png,random,fixed,n04256520_5,n02933112_4,Stimuli/canonical view 2/img_n04256520_5_gray.jpg,Stimuli/canonical view 2/img_n02933112_4_gray.jpg,foreground,left,Experiments/experiment_27/360.jpg,Experiments/experiment_27/361.jpg,Experiments/experiment_27/362.jpg,Experiments/experiment_27/363.jpg,780,1,2023-04-03_18h22.32.394,Occlusion_Psychophysics,2022.1.4,Win32,143.9470275,,,left,"[""left""]",[0.7438999999761791],False,,0.0,0.0,90.0,90.0,90.0,1.0,,,,,,
,,,,,,,,,,,,,,,,,,,,,0.05,,,,,,,,,,Stimuli/psy_flexible_rotation_30_objects_occ0.7_0.9s/images/train/n02933112_-18/n04405907_9/img_cgaxis_models_48_26_vray_composite_vray_004_2014_gray.jpg,n02933112_-18,n04405907_9,flexible,0.809124,n03928116_4,Stimuli/psy_flexible_rotation_30_objects_occ0.7_0.9s/images/train/n04379243_-7/n03928116_4/img_quatre_dining_table_dp_33_b_2013__vray_2001-3_gray.png,random,flexible,n02933112_-18,n02883344_-1,Stimuli/canonical view 2/img_n02933112_-18_gray.jpg,Stimuli/canonical view 2/img_n02883344_-1_gray.jpg,random,right,Experiments/experiment_27/364.jpg,Experiments/experiment_27/365.jpg,Experiments/experiment_27/366.jpg,Experiments/experiment_27/367.jpg,780,1,2023-04-03_18h22.32.394,Occlusion_Psychophysics,2022.1.4,Win32,143.9470275,,,left,"[""right""]",[0.8576000000239219],False,,0.0,0.0,91.0,91.0,91.0,1.0,,,,,,
,,,,,,,,,,,,,,,,,,,,,0.025,,,,,,,,,,Stimuli/psy_fixed_rotation_30_objects_occ0.7_0.9s/images/train/n04405907_8/n04379243_0/img_stylized_tv_17th_c._monastery_dining_table_2010_2002_gray.jpg,n04405907_8,n04379243_0,fixed,0.716587,n02828884_4,Stimuli/psy_flexible_rotation_30_objects_occ0.7_0.9s/images/train/n04379243_8/n02828884_4/img_glass_table_b05_c-5_classic_series_bench-2012_2003-3_gray.png,random,flexible,n04405907_8,n04256520_5,Stimuli/canonical view 2/img_n04405907_8_gray.jpg,Stimuli/canonical view 2/img_n04256520_5_gray.jpg,random,left,Experiments/experiment_27/368.jpg,Experiments/experiment_27/369.jpg,Experiments/experiment_27/370.jpg,Experiments/experiment_27/371.jpg,780,1,2023-04-03_18h22.32.394,Occlusion_Psychophysics,2022.1.4,Win32,143.9470275,,,right,"[""left""]",[0.6817000000477265],True,right,1.0,0.0,92.0,92.0,92.0,1.0,0.8935,,,,,
,,,,,,,,,,,,,,,,,,,,,0.025,,,,,,,,,,Stimuli/psy_flexible_rotation_30_objects_occ0.7_0.9s/images/train/n04405907_5/n02883344_15/img_samsung_40_uhd_smart_tv_2011_microwave_box_2015_gray.jpg,n04405907_5,n02883344_15,flexible,0.830274,n02883344_15,Stimuli/psy_flexible_rotation_30_objects_occ0.7_0.9s/images/train/n04405907_5/n02883344_15/img_samsung_40_uhd_smart_tv_2011_microwave_box_2015-3_gray.png,foreground,same as foreground,n04405907_5,n02883344_15,Stimuli/canonical view 2/img_n04405907_5_gray.jpg,Stimuli/canonical view 2/img_n02883344_15_gray.jpg,foreground,left,Experiments/experiment_27/372.jpg,Experiments/experiment_27/373.jpg,Experiments/experiment_27/374.jpg,Experiments/experiment_27/375.jpg,780,1,2023-04-03_18h22.32.394,Occlusion_Psychophysics,2022.1.4,Win32,143.9470275,,,left,"[""left""]",[0.7549999999999955],False,,0.0,0.0,93.0,93.0,93.0,1.0,,,,,,
,,,,,,,,,,,,,,,,,,,,,0.025,,,,,,,,,,Stimuli/psy_flexible_rotation_30_objects_occ0.7_0.9s/images/train/n04405907_8/n03928116_10/img_stylized_tv_ydp_103_r_2012__vray_2014_gray.jpg,n04405907_8,n03928116_10,flexible,0.780955,n03928116_10,Stimuli/psy_flexible_rotation_30_objects_occ0.7_0.9s/images/train/n04405907_8/n03928116_10/img_stylized_tv_ydp_103_r_2012__vray_2014-3_gray.png,foreground,same as foreground,n04405907_8,n03928116_10,Stimuli/canonical view 2/img_n04405907_8_gray.jpg,Stimuli/canonical view 2/img_n03928116_10_gray.jpg,foreground,right,Experiments/experiment_27/376.jpg,Experiments/experiment_27/377.jpg,Experiments/experiment_27/378.jpg,Experiments/experiment_27/379.jpg,780,1,2023-04-03_18h22.32.394,Occlusion_Psychophysics,2022.1.4,Win32,143.9470275,,,left,"[""left""]",[1.0426000000238673],False,,0.0,0.0,94.0,94.0,94.0,1.0,,,,,,
,,,,,,,,,,,,,,,,,,,,,0.025,,,,,,,,,,Stimuli/psy_fixed_rotation_30_objects_occ0.7_0.9s/images/train/n04379243_0/n04405907_8/img_17th_c._monastery_dining_table_2010_stylized_tv_2010_gray.jpg,n04379243_0,n04405907_8,fixed,0.7883,n04405907_8,Stimuli/psy_fixed_rotation_30_objects_occ0.7_0.9s/images/train/n04379243_0/n04405907_8/img_17th_c._monastery_dining_table_2010_stylized_tv_2010-3_gray.png,foreground,same as foreground,n04379243_0,n02818832_3,Stimuli/canonical view 2/img_n04379243_0_gray.jpg,Stimuli/canonical view 2/img_n02818832_3_gray.jpg,random,right,Experiments/experiment_27/380.jpg,Experiments/experiment_27/381.jpg,Experiments/experiment_27/382.jpg,Experiments/experiment_27/383.jpg,780,1,2023-04-03_18h22.32.394,Occlusion_Psychophysics,2022.1.4,Win32,143.9470275,,,left,"[""left""]",[0.7174999999999727],False,,0.0,0.0,95.0,95.0,95.0,1.0,,,,,,
,,,,,,,,,,,,,,,,,,,,,0.05,,,,,,,,,,Stimuli/psy_fixed_rotation_30_objects_occ0.7_0.9s/images/train/n03001627_9/n02883344_-1/img_chair_eames_plastic_armchair_woven_box_2004_gray.jpg,n03001627_9,n02883344_-1,fixed,0.77859,n02933112_-2,Stimuli/psy_fixed_rotation_30_objects_occ0.7_0.9s/images/train/n04256520_4/n02933112_-2/img_club_house_italia_nautilus_sofa_sink_base_white_wood_2012-3_gray.png,random,fixed,n03001627_9,n04405907_9,Stimuli/canonical view 2/img_n03001627_9_gray.jpg,Stimuli/canonical view 2/img_n04405907_9_gray.jpg,random,right,Experiments/experiment_27/384.jpg,Experiments/experiment_27/385.jpg,Experiments/experiment_27/386.jpg,Experiments/experiment_27/387.jpg,780,1,2023-04-03_18h22.32.394,Occlusion_Psychophysics,2022.1.4,Win32,143.9470275,,,right,"[""right""]",[0.6451000000238309],False,,0.0,0.0,96.0,96.0,96.0,1.0,,,,,,
,,,,,,,,,,,,,,,,,,,,,0.05,,,,,,,,,,Stimuli/psy_fixed_rotation_30_objects_occ0.7_0.9s/images/train/n03001627_8/n02883344_-1/img_chair_billiani_doll_woven_box_2014_gray.jpg,n03001627_8,n02883344_-1,fixed,0.778019,n02883344_-1,Stimuli/psy_fixed_rotation_30_objects_occ0.7_0.9s/images/train/n03001627_8/n02883344_-1/img_chair_billiani_doll_woven_box_2014-3_gray.png,foreground,same as foreground,n03001627_8,n02883344_-1,Stimuli/canonical view 2/img_n03001627_8_gray.jpg,Stimuli/canonical view 2/img_n02883344_-1_gray.jpg,foreground,right,Experiments/experiment_27/388.jpg,Experiments/experiment_27/389.jpg,Experiments/experiment_27/390.jpg,Experiments/experiment_27/391.jpg,780,1,2023-04-03_18h22.32.394,Occlusion_Psychophysics,2022.1.4,Win32,143.9470275,,,left,"[""left""]",[0.6459999999999582],False,,0.0,0.0,97.0,97.0,97.0,1.0,,,,,,
,,,,,,,,,,,,,,,,,,,,,0.05,,,,,,,,,,Stimuli/psy_flexible_rotation_30_objects_occ0.7_0.9s/images/train/n04256520_5/n04405907_5/img_meridiani_belmondo_bench_sofa_samsung_40_uhd_smart_tv_2011_2006_gray.jpg,n04256520_5,n04405907_5,flexible,0.818559,n04405907_5,Stimuli/psy_flexible_rotation_30_objects_occ0.7_0.9s/images/train/n04256520_5/n04405907_5/img_meridiani_belmondo_bench_sofa_samsung_40_uhd_smart_tv_2011_2006-3_gray.png,foreground,same as foreground,n04256520_5,n03928116_4,Stimuli/canonical view 2/img_n04256520_5_gray.jpg,Stimuli/canonical view 2/img_n03928116_4_gray.jpg,random,left,Experiments/experiment_27/392.jpg,Experiments/experiment_27/393.jpg,Experiments/experiment_27/394.jpg,Experiments/experiment_27/395.jpg,780,1,2023-04-03_18h22.32.394,Occlusion_Psychophysics,2022.1.4,Win32,143.9470275,,,right,"[""right""]",[0.7644999999999982],False,,0.0,0.0,98.0,98.0,98.0,1.0,,,,,,
,,,,,,,,,,,,,,,,,,,,,0.05,,,,,,,,,,Stimuli/psy_fixed_rotation_30_objects_occ0.7_0.9s/images/train/n02818832_0/n02818832_3/img_b03_the_sofa_and_chair_company_-_stanley_bed_2014_b05_ccm_contemporary_bed_max2013_2005_gray.jpg,n02818832_0,n02818832_3,fixed,0.71425,n02883344_15,Stimuli/psy_fixed_rotation_30_objects_occ0.7_0.9s/images/train/n02828884_9/n02883344_15/img_cr-96_bench_microwave_box_2002-3_gray.png,random,fixed,n02818832_0,n02818832_3,Stimuli/canonical view 2/img_n02818832_0_gray.jpg,Stimuli/canonical view 2/img_n02818832_3_gray.jpg,foreground,left,Experiments/experiment_27/396.jpg,Experiments/experiment_27/397.jpg,Experiments/experiment_27/398.jpg,Experiments/experiment_27/399.jpg,780,1,2023-04-03_18h22.32.394,Occlusion_Psychophysics,2022.1.4,Win32,143.9470275,,,left,"[""left""]",[1.2362999999523936],False,,0.0,0.0,99.0,99.0,99.0,1.0,,,,,,
,,,,,,,,,,,,,,,,,,,,,,,,,,,,,,,,,,,,,,,,,,,,,,,,,,780,1,2023-04-03_18h22.32.394,Occlusion_Psychophysics,2022.1.4,Win32,143.9470275,,,,,,,,,,,,,,,0.0,0.0,0.0,0.0,1.0
,,,,,,,,,,,,,,,,,,,,,0.025,,,,,,,,,,Stimuli/psy_fixed_rotation_30_objects_occ0.7_0.9s/images/train/n04256520_9/n04256520_4/img_napoleon_iii_sofa_club_house_italia_nautilus_sofa_2001_gray.jpg,n04256520_9,n04256520_4,fixed,0.718826,n04256520_4,Stimuli/psy_fixed_rotation_30_objects_occ0.7_0.9s/images/train/n04256520_9/n04256520_4/img_napoleon_iii_sofa_club_house_italia_nautilus_sofa_2001-3_gray.png,foreground,same as foreground,n04256520_9,n04256520_4,Stimuli/canonical view 2/img_n04256520_9_gray.jpg,Stimuli/canonical view 2/img_n04256520_4_gray.jpg,foreground,right,Experiments/experiment_27/400.jpg,Experiments/experiment_27/401.jpg,Experiments/experiment_27/402.jpg,Experiments/experiment_27/403.jpg,780,1,2023-04-03_18h22.32.394,Occlusion_Psychophysics,2022.1.4,Win32,143.9470275,,,left,"[""left""]",[0.7433000000714856],False,,0.0,0.0,0.0,0.0,0.0,1.0,,,,,,
,,,,,,,,,,,,,,,,,,,,,0.025,,,,,,,,,,Stimuli/psy_fixed_rotation_30_objects_occ0.7_0.9s/images/train/n03928116_0/n02828884_3/img_b02_piano_b04_wood_metal_park_bench_2012_gray.jpg,n03928116_0,n02828884_3,fixed,0.730224,n02818832_9,Stimuli/psy_fixed_rotation_30_objects_occ0.7_0.9s/images/train/n04379243_0/n02818832_9/img_17th_c._monastery_dining_table_2010_bed01_blue_2000-3_gray.png,random,fixed,n03928116_0,n02828884_3,Stimuli/canonical view 2/img_n03928116_0_gray.jpg,Stimuli/canonical view 2/img_n02828884_3_gray.jpg,foreground,left,Experiments/experiment_27/404.jpg,Experiments/experiment_27/405.jpg,Experiments/experiment_27/406.jpg,Experiments/experiment_27/407.jpg,780,1,2023-04-03_18h22.32.394,Occlusion_Psychophysics,2022.1.4,Win32,143.9470275,,,left,"[""right""]",[1.1722999999523154],False,,0.0,0.0,1.0,1.0,1.0,1.0,,,,,,
