in_color,Instructions_key.keys,Instructions_key.rt,Tutorial_instruction_key.keys,Tutorial_instruction_key.rt,Tutorial_fixation_ley.keys,Tutorial_fixation_ley.rt,Tutorial_single_img_key.keys,Tutorial_single_img_key.rt,Tutorial_intra_trial_fixation_key.keys,Tutorial_intra_trial_fixation_key.rt,Tutorial_stimulus_key.keys,Tutorial_stimulus_key.rt,Tutorial_response_key.keys,Tutorial_response_key.rt,Tutorial_attention_check_key.keys,Tutorial_attention_check_key.rt,advance_or_repeat.keys,advance_or_repeat.rt,Practice_instructions_key.keys,Practice_instructions_key.rt,intra_trial_duration,Practice_key_response.keys,Practice_key_response.rt,Practice_react_key.keys,Practice_react_key.rt,Practice_loop.thisRepN,Practice_loop.thisTrialN,Practice_loop.thisN,Practice_loop.thisIndex,Practice_loop.ran,multi_object_filepath,background_id,foreground_id,multi_object_rotation,occlusion_level,single_object_id,single_object_filepath,single_is_foreground_or_random,single_object_rotation,background_choice_id,alt_choice_id,background_option_filepath,alternative_option_filepath,alternative_is_foreground_or_random,location_of_correct_answer,multi_object_exp_filename,single_object_exp_filename,background_option_exp_filename,alternative_option_exp_filename,participant,session,date,expName,psychopyVersion,OS,frameRate,Practice_end_key.keys,Practice_end_key.rt,correct_answer,Input_selection.keys,Input_selection.rt,Was_attention_check,Attention_check.keys,Attention_check.corr,Each_session_loop.thisRepN,Each_session_loop.thisTrialN,Each_session_loop.thisN,Each_session_loop.thisIndex,Each_session_loop.ran,Attention_check.rt,Num_sessions.thisRepN,Num_sessions.thisTrialN,Num_sessions.thisN,Num_sessions.thisIndex,Num_sessions.ran
False,space,104.9947,rcommand,7.2297,rcommand,3.0199,rcommand,2.0195,rcommand,1.5476,space,21.8874,right,2.1595,right,1.3034,a,10.7001,space,7.4458,0.05,right,1.0899,a,5.055,0.0,0.0,0.0,0.0,1.0,Stimuli/psy_fixed_rotation_30_objects_occ0.7_0.9s/images/train/n04379243_8/n02883344_0/img_glass_table_b03_box_2001_gray.jpg,n04379243_8,n02883344_0,fixed,0.732316,n02883344_15,Stimuli/psy_flexible_rotation_30_objects_occ0.7_0.9s/images/train/n02828884_4/n02883344_15/img_b05_c-5_classic_series_bench-2012_microwave_box_2002-3_gray.png,random,flexible,n04379243_8,n02883344_-1,Stimuli/canonical view 2/img_n04379243_8_gray.jpg,Stimuli/canonical view 2/img_n02883344_-1_gray.jpg,random,right,Experiments/experiment_19/1000.jpg,Experiments/experiment_19/1001.jpg,Experiments/experiment_19/1002.jpg,Experiments/experiment_19/1003.jpg,815,1,2023-06-28_13h38.13.367,Occlusion_Psychophysics,2022.1.4,MacIntel,60.0024001,,,,,,,,,,,,,,,,,,,
,,,,,,,,,,,,,,,,,,,,,0.025,,,,,,,,,,Stimuli/psy_fixed_rotation_30_objects_occ0.7_0.9s/images/train/n04256520_5/n02883344_0/img_meridiani_belmondo_bench_sofa_b03_box_2006_gray.jpg,n04256520_5,n02883344_0,fixed,0.700661,n02883344_0,Stimuli/psy_fixed_rotation_30_objects_occ0.7_0.9s/images/train/n04256520_5/n02883344_0/img_meridiani_belmondo_bench_sofa_b03_box_2006-3_gray.png,foreground,same as foreground,n04256520_5,n02883344_0,Stimuli/canonical view 2/img_n04256520_5_gray.jpg,Stimuli/canonical view 2/img_n02883344_0_gray.jpg,foreground,left,Experiments/experiment_19/0.jpg,Experiments/experiment_19/1.jpg,Experiments/experiment_19/2.jpg,Experiments/experiment_19/3.jpg,815,1,2023-06-28_13h38.13.367,Occlusion_Psychophysics,2022.1.4,MacIntel,60.0024001,space,3.8735,right,"[""left""]",[1.455900000005954],False,,0.0,0.0,0.0,0.0,0.0,1.0,,,,,,
,,,,,,,,,,,,,,,,,,,,,0.025,,,,,,,,,,Stimuli/psy_flexible_rotation_30_objects_occ0.7_0.9s/images/train/n03001627_-2/n04379243_8/img_wood_chair_glass_table_2014_gray.jpg,n03001627_-2,n04379243_8,flexible,0.768229,n04379243_8,Stimuli/psy_flexible_rotation_30_objects_occ0.7_0.9s/images/train/n03001627_-2/n04379243_8/img_wood_chair_glass_table_2014-3_gray.png,foreground,same as foreground,n03001627_-2,n02933112_4,Stimuli/canonical view 2/img_n03001627_-2_gray.jpg,Stimuli/canonical view 2/img_n02933112_4_gray.jpg,random,right,Experiments/experiment_19/4.jpg,Experiments/experiment_19/5.jpg,Experiments/experiment_19/6.jpg,Experiments/experiment_19/7.jpg,815,1,2023-06-28_13h38.13.367,Occlusion_Psychophysics,2022.1.4,MacIntel,60.0024001,,,right,"[""right""]",[1.4110000000000582],False,,0.0,0.0,1.0,1.0,1.0,1.0,,,,,,
,,,,,,,,,,,,,,,,,,,,,0.05,,,,,,,,,,Stimuli/psy_fixed_rotation_30_objects_occ0.7_0.9s/images/train/n03001627_8/n02818832_3/img_chair_billiani_doll_b05_ccm_contemporary_bed_max2013_2013_gray.jpg,n03001627_8,n02818832_3,fixed,0.732401,n02818832_3,Stimuli/psy_fixed_rotation_30_objects_occ0.7_0.9s/images/train/n03001627_8/n02818832_3/img_chair_billiani_doll_b05_ccm_contemporary_bed_max2013_2013-3_gray.png,foreground,same as foreground,n03001627_8,n02818832_3,Stimuli/canonical view 2/img_n03001627_8_gray.jpg,Stimuli/canonical view 2/img_n02818832_3_gray.jpg,foreground,left,Experiments/experiment_19/8.jpg,Experiments/experiment_19/9.jpg,Experiments/experiment_19/10.jpg,Experiments/experiment_19/11.jpg,815,1,2023-06-28_13h38.13.367,Occlusion_Psychophysics,2022.1.4,MacIntel,60.0024001,,,right,"[""left""]",[1.8354999999999109],False,,0.0,0.0,2.0,2.0,2.0,1.0,,,,,,
,,,,,,,,,,,,,,,,,,,,,0.05,,,,,,,,,,Stimuli/psy_flexible_rotation_30_objects_occ0.7_0.9s/images/train/n02828884_4/n02883344_15/img_b05_c-5_classic_series_bench-2012_microwave_box_2007_gray.jpg,n02828884_4,n02883344_15,flexible,0.707925,n04256520_5,Stimuli/psy_fixed_rotation_30_objects_occ0.7_0.9s/images/train/n03928116_0/n04256520_5/img_b02_piano_meridiani_belmondo_bench_sofa_2009-3_gray.png,random,fixed,n02828884_4,n02883344_15,Stimuli/canonical view 2/img_n02828884_4_gray.jpg,Stimuli/canonical view 2/img_n02883344_15_gray.jpg,foreground,right,Experiments/experiment_19/12.jpg,Experiments/experiment_19/13.jpg,Experiments/experiment_19/14.jpg,Experiments/experiment_19/15.jpg,815,1,2023-06-28_13h38.13.367,Occlusion_Psychophysics,2022.1.4,MacIntel,60.0024001,,,right,"[""right""]",[1.1907000000029484],False,,0.0,0.0,3.0,3.0,3.0,1.0,,,,,,
,,,,,,,,,,,,,,,,,,,,,0.05,,,,,,,,,,Stimuli/psy_fixed_rotation_30_objects_occ0.7_0.9s/images/train/n04256520_4/n02818832_9/img_club_house_italia_nautilus_sofa_bed01_blue_2000_gray.jpg,n04256520_4,n02818832_9,fixed,0.71549,n02818832_9,Stimuli/psy_fixed_rotation_30_objects_occ0.7_0.9s/images/train/n04256520_4/n02818832_9/img_club_house_italia_nautilus_sofa_bed01_blue_2000-3_gray.png,foreground,same as foreground,n04256520_4,n02818832_9,Stimuli/canonical view 2/img_n04256520_4_gray.jpg,Stimuli/canonical view 2/img_n02818832_9_gray.jpg,foreground,left,Experiments/experiment_19/16.jpg,Experiments/experiment_19/17.jpg,Experiments/experiment_19/18.jpg,Experiments/experiment_19/19.jpg,815,1,2023-06-28_13h38.13.367,Occlusion_Psychophysics,2022.1.4,MacIntel,60.0024001,,,left,"[""left""]",[1.2797000000028902],False,,0.0,0.0,4.0,4.0,4.0,1.0,,,,,,
,,,,,,,,,,,,,,,,,,,,,0.05,,,,,,,,,,Stimuli/psy_flexible_rotation_30_objects_occ0.7_0.9s/images/train/n02933112_-18/n02883344_15/img_cgaxis_models_48_26_vray_composite_microwave_box_2005_gray.jpg,n02933112_-18,n02883344_15,flexible,0.740804,n04405907_9,Stimuli/psy_flexible_rotation_30_objects_occ0.7_0.9s/images/train/n04405907_5/n04405907_9/img_samsung_40_uhd_smart_tv_2011_vray_004_2003-3_gray.png,random,flexible,n02933112_-18,n03001627_9,Stimuli/canonical view 2/img_n02933112_-18_gray.jpg,Stimuli/canonical view 2/img_n03001627_9_gray.jpg,random,left,Experiments/experiment_19/20.jpg,Experiments/experiment_19/21.jpg,Experiments/experiment_19/22.jpg,Experiments/experiment_19/23.jpg,815,1,2023-06-28_13h38.13.367,Occlusion_Psychophysics,2022.1.4,MacIntel,60.0024001,,,left,"[""left""]",[1.4027999999970007],False,,0.0,0.0,5.0,5.0,5.0,1.0,,,,,,
,,,,,,,,,,,,,,,,,,,,,0.025,,,,,,,,,,Stimuli/psy_fixed_rotation_30_objects_occ0.7_0.9s/images/train/n04405907_5/n04256520_4/img_samsung_40_uhd_smart_tv_2011_club_house_italia_nautilus_sofa_2010_gray.jpg,n04405907_5,n04256520_4,fixed,0.885047,n02883344_0,Stimuli/psy_fixed_rotation_30_objects_occ0.7_0.9s/images/train/n02933112_4/n02883344_0/img_buffet_b03_box_2007-3_gray.png,random,fixed,n04405907_5,n02883344_0,Stimuli/canonical view 2/img_n04405907_5_gray.jpg,Stimuli/canonical view 2/img_n02883344_0_gray.jpg,random,left,Experiments/experiment_19/24.jpg,Experiments/experiment_19/25.jpg,Experiments/experiment_19/26.jpg,Experiments/experiment_19/27.jpg,815,1,2023-06-28_13h38.13.367,Occlusion_Psychophysics,2022.1.4,MacIntel,60.0024001,,,left,"[""right""]",[1.4902999999970916],False,,0.0,0.0,6.0,6.0,6.0,1.0,,,,,,
,,,,,,,,,,,,,,,,,,,,,0.05,,,,,,,,,,Stimuli/psy_fixed_rotation_30_objects_occ0.7_0.9s/images/train/n04256520_9/n02933112_-2/img_napoleon_iii_sofa_sink_base_white_wood_2009_gray.jpg,n04256520_9,n02933112_-2,fixed,0.716103,n03928116_4,Stimuli/psy_fixed_rotation_30_objects_occ0.7_0.9s/images/train/n02883344_0/n03928116_4/img_b03_box_dp_33_b_2013__vray_2002-3_gray.png,random,fixed,n04256520_9,n02828884_9,Stimuli/canonical view 2/img_n04256520_9_gray.jpg,Stimuli/canonical view 2/img_n02828884_9_gray.jpg,random,left,Experiments/experiment_19/28.jpg,Experiments/experiment_19/29.jpg,Experiments/experiment_19/30.jpg,Experiments/experiment_19/31.jpg,815,1,2023-06-28_13h38.13.367,Occlusion_Psychophysics,2022.1.4,MacIntel,60.0024001,,,left,"[""right""]",[1.4889000000059696],False,,0.0,0.0,7.0,7.0,7.0,1.0,,,,,,
,,,,,,,,,,,,,,,,,,,,,0.025,,,,,,,,,,Stimuli/psy_fixed_rotation_30_objects_occ0.7_0.9s/images/train/n04379243_-7/n04405907_8/img_quatre_dining_table_stylized_tv_2013_gray.jpg,n04379243_-7,n04405907_8,fixed,0.793701,n02818832_0,Stimuli/psy_fixed_rotation_30_objects_occ0.7_0.9s/images/train/n02828884_4/n02818832_0/img_b05_c-5_classic_series_bench-2012_b03_the_sofa_and_chair_company_-_stanley_bed_2014_2001-3_gray.png,random,fixed,n04379243_-7,n02828884_9,Stimuli/canonical view 2/img_n04379243_-7_gray.jpg,Stimuli/canonical view 2/img_n02828884_9_gray.jpg,random,right,Experiments/experiment_19/32.jpg,Experiments/experiment_19/33.jpg,Experiments/experiment_19/34.jpg,Experiments/experiment_19/35.jpg,815,1,2023-06-28_13h38.13.367,Occlusion_Psychophysics,2022.1.4,MacIntel,60.0024001,,,right,"[""right""]",[1.4927999999970325],False,,0.0,0.0,8.0,8.0,8.0,1.0,,,,,,
,,,,,,,,,,,,,,,,,,,,,0.05,,,,,,,,,,Stimuli/psy_fixed_rotation_30_objects_occ0.7_0.9s/images/train/n04379243_-7/n02828884_4/img_quatre_dining_table_b05_c-5_classic_series_bench-2012_2002_gray.jpg,n04379243_-7,n02828884_4,fixed,0.723731,n02828884_4,Stimuli/psy_fixed_rotation_30_objects_occ0.7_0.9s/images/train/n04379243_-7/n02828884_4/img_quatre_dining_table_b05_c-5_classic_series_bench-2012_2002-3_gray.png,foreground,same as foreground,n04379243_-7,n02828884_4,Stimuli/canonical view 2/img_n04379243_-7_gray.jpg,Stimuli/canonical view 2/img_n02828884_4_gray.jpg,foreground,left,Experiments/experiment_19/36.jpg,Experiments/experiment_19/37.jpg,Experiments/experiment_19/38.jpg,Experiments/experiment_19/39.jpg,815,1,2023-06-28_13h38.13.367,Occlusion_Psychophysics,2022.1.4,MacIntel,60.0024001,,,right,"[""right""]",[1.274499999999989],False,,0.0,0.0,9.0,9.0,9.0,1.0,,,,,,
,,,,,,,,,,,,,,,,,,,,,0.025,,,,,,,,,,Stimuli/psy_flexible_rotation_30_objects_occ0.7_0.9s/images/train/n02818832_9/n02828884_4/img_bed01_blue_b05_c-5_classic_series_bench-2012_2012_gray.jpg,n02818832_9,n02828884_4,flexible,0.714555,n02883344_0,Stimuli/psy_fixed_rotation_30_objects_occ0.7_0.9s/images/train/n04256520_4/n02883344_0/img_club_house_italia_nautilus_sofa_b03_box_2004-3_gray.png,random,fixed,n02818832_9,n02828884_4,Stimuli/canonical view 2/img_n02818832_9_gray.jpg,Stimuli/canonical view 2/img_n02828884_4_gray.jpg,foreground,right,Experiments/experiment_19/40.jpg,Experiments/experiment_19/41.jpg,Experiments/experiment_19/42.jpg,Experiments/experiment_19/43.jpg,815,1,2023-06-28_13h38.13.367,Occlusion_Psychophysics,2022.1.4,MacIntel,60.0024001,,,right,"[""right""]",[0.9734999999999445],False,,0.0,0.0,10.0,10.0,10.0,1.0,,,,,,
,,,,,,,,,,,,,,,,,,,,,0.025,,,,,,,,,,Stimuli/psy_flexible_rotation_30_objects_occ0.7_0.9s/images/train/n02818832_0/n02933112_-18/img_b03_the_sofa_and_chair_company_-_stanley_bed_2014_cgaxis_models_48_26_vray_composite_2005_gray.jpg,n02818832_0,n02933112_-18,flexible,0.799316,n02933112_-18,Stimuli/psy_flexible_rotation_30_objects_occ0.7_0.9s/images/train/n02818832_0/n02933112_-18/img_b03_the_sofa_and_chair_company_-_stanley_bed_2014_cgaxis_models_48_26_vray_composite_2005-3_gray.png,foreground,same as foreground,n02818832_0,n03928116_0,Stimuli/canonical view 2/img_n02818832_0_gray.jpg,Stimuli/canonical view 2/img_n03928116_0_gray.jpg,random,left,Experiments/experiment_19/44.jpg,Experiments/experiment_19/45.jpg,Experiments/experiment_19/46.jpg,Experiments/experiment_19/47.jpg,815,1,2023-06-28_13h38.13.367,Occlusion_Psychophysics,2022.1.4,MacIntel,60.0024001,,,left,"[""left""]",[1.1564000000059877],False,,0.0,0.0,11.0,11.0,11.0,1.0,,,,,,
,,,,,,,,,,,,,,,,,,,,,0.025,,,,,,,,,,Stimuli/psy_flexible_rotation_30_objects_occ0.7_0.9s/images/train/n04256520_4/n04256520_9/img_club_house_italia_nautilus_sofa_napoleon_iii_sofa_2013_gray.jpg,n04256520_4,n04256520_9,flexible,0.73649,n04405907_5,Stimuli/psy_flexible_rotation_30_objects_occ0.7_0.9s/images/train/n03928116_0/n04405907_5/img_b02_piano_samsung_40_uhd_smart_tv_2011_2002-3_gray.png,random,flexible,n04256520_4,n03928116_4,Stimuli/canonical view 2/img_n04256520_4_gray.jpg,Stimuli/canonical view 2/img_n03928116_4_gray.jpg,random,right,Experiments/experiment_19/48.jpg,Experiments/experiment_19/49.jpg,Experiments/experiment_19/50.jpg,Experiments/experiment_19/51.jpg,815,1,2023-06-28_13h38.13.367,Occlusion_Psychophysics,2022.1.4,MacIntel,60.0024001,,,left,"[""left""]",[1.3742999999971062],False,,0.0,0.0,12.0,12.0,12.0,1.0,,,,,,
,,,,,,,,,,,,,,,,,,,,,0.05,,,,,,,,,,Stimuli/psy_fixed_rotation_30_objects_occ0.7_0.9s/images/train/n02828884_9/n02933112_-2/img_cr-96_bench_sink_base_white_wood_2011_gray.jpg,n02828884_9,n02933112_-2,fixed,0.72253,n02933112_-2,Stimuli/psy_fixed_rotation_30_objects_occ0.7_0.9s/images/train/n02828884_9/n02933112_-2/img_cr-96_bench_sink_base_white_wood_2011-3_gray.png,foreground,same as foreground,n02828884_9,n02828884_4,Stimuli/canonical view 2/img_n02828884_9_gray.jpg,Stimuli/canonical view 2/img_n02828884_4_gray.jpg,random,left,Experiments/experiment_19/52.jpg,Experiments/experiment_19/53.jpg,Experiments/experiment_19/54.jpg,Experiments/experiment_19/55.jpg,815,1,2023-06-28_13h38.13.367,Occlusion_Psychophysics,2022.1.4,MacIntel,60.0024001,,,left,"[""right""]",[0.7084000000060087],False,,0.0,0.0,13.0,13.0,13.0,1.0,,,,,,
,,,,,,,,,,,,,,,,,,,,,0.025,,,,,,,,,,Stimuli/psy_fixed_rotation_30_objects_occ0.7_0.9s/images/train/n03001627_9/n02828884_3/img_chair_eames_plastic_armchair_b04_wood_metal_park_bench_2014_gray.jpg,n03001627_9,n02828884_3,fixed,0.718115,n04379243_-7,Stimuli/psy_fixed_rotation_30_objects_occ0.7_0.9s/images/train/n02883344_15/n04379243_-7/img_microwave_box_quatre_dining_table_2015-3_gray.png,random,fixed,n03001627_9,n02828884_3,Stimuli/canonical view 2/img_n03001627_9_gray.jpg,Stimuli/canonical view 2/img_n02828884_3_gray.jpg,foreground,right,Experiments/experiment_19/56.jpg,Experiments/experiment_19/57.jpg,Experiments/experiment_19/58.jpg,Experiments/experiment_19/59.jpg,815,1,2023-06-28_13h38.13.367,Occlusion_Psychophysics,2022.1.4,MacIntel,60.0024001,,,right,"[""right""]",[0.8906000000089307],False,,0.0,0.0,14.0,14.0,14.0,1.0,,,,,,
,,,,,,,,,,,,,,,,,,,,,0.05,,,,,,,,,,Stimuli/psy_flexible_rotation_30_objects_occ0.7_0.9s/images/train/n02883344_0/n04256520_9/img_b03_box_napoleon_iii_sofa_2008_gray.jpg,n02883344_0,n04256520_9,flexible,0.740431,n02883344_-1,Stimuli/psy_flexible_rotation_30_objects_occ0.7_0.9s/images/train/n02828884_4/n02883344_-1/img_b05_c-5_classic_series_bench-2012_woven_box_2009-3_gray.png,random,flexible,n02883344_0,n02933112_-18,Stimuli/canonical view 2/img_n02883344_0_gray.jpg,Stimuli/canonical view 2/img_n02933112_-18_gray.jpg,random,right,Experiments/experiment_19/60.jpg,Experiments/experiment_19/61.jpg,Experiments/experiment_19/62.jpg,Experiments/experiment_19/63.jpg,815,1,2023-06-28_13h38.13.367,Occlusion_Psychophysics,2022.1.4,MacIntel,60.0024001,,,left,"[""left""]",[0.6890999999940277],False,,0.0,0.0,15.0,15.0,15.0,1.0,,,,,,
,,,,,,,,,,,,,,,,,,,,,0.05,,,,,,,,,,Stimuli/psy_fixed_rotation_30_objects_occ0.7_0.9s/images/train/n04256520_5/n02883344_15/img_meridiani_belmondo_bench_sofa_microwave_box_2011_gray.jpg,n04256520_5,n02883344_15,fixed,0.866971,n04256520_5,Stimuli/psy_fixed_rotation_30_objects_occ0.7_0.9s/images/train/n02818832_0/n04256520_5/img_b03_the_sofa_and_chair_company_-_stanley_bed_2014_meridiani_belmondo_bench_sofa_2003-3_gray.png,random,fixed,n04256520_5,n03928116_4,Stimuli/canonical view 2/img_n04256520_5_gray.jpg,Stimuli/canonical view 2/img_n03928116_4_gray.jpg,random,right,Experiments/experiment_19/64.jpg,Experiments/experiment_19/65.jpg,Experiments/experiment_19/66.jpg,Experiments/experiment_19/67.jpg,815,1,2023-06-28_13h38.13.367,Occlusion_Psychophysics,2022.1.4,MacIntel,60.0024001,,,right,"[""right""]",[1.366700000002993],False,,0.0,0.0,16.0,16.0,16.0,1.0,,,,,,
,,,,,,,,,,,,,,,,,,,,,0.025,,,,,,,,,,Stimuli/psy_flexible_rotation_30_objects_occ0.7_0.9s/images/train/n04379243_0/n04405907_5/img_17th_c._monastery_dining_table_2010_samsung_40_uhd_smart_tv_2011_2014_gray.jpg,n04379243_0,n04405907_5,flexible,0.707997,n04256520_9,Stimuli/psy_fixed_rotation_30_objects_occ0.7_0.9s/images/train/n03001627_9/n04256520_9/img_chair_eames_plastic_armchair_napoleon_iii_sofa_2007-3_gray.png,random,fixed,n04379243_0,n04405907_5,Stimuli/canonical view 2/img_n04379243_0_gray.jpg,Stimuli/canonical view 2/img_n04405907_5_gray.jpg,foreground,left,Experiments/experiment_19/68.jpg,Experiments/experiment_19/69.jpg,Experiments/experiment_19/70.jpg,Experiments/experiment_19/71.jpg,815,1,2023-06-28_13h38.13.367,Occlusion_Psychophysics,2022.1.4,MacIntel,60.0024001,,,left,"[""left""]",[1.1111000000089462],False,,0.0,0.0,17.0,17.0,17.0,1.0,,,,,,
,,,,,,,,,,,,,,,,,,,,,0.025,,,,,,,,,,Stimuli/psy_fixed_rotation_30_objects_occ0.7_0.9s/images/train/n03928116_4/n02933112_4/img_dp_33_b_2013__vray_buffet_2000_gray.jpg,n03928116_4,n02933112_4,fixed,0.772256,n02933112_4,Stimuli/psy_fixed_rotation_30_objects_occ0.7_0.9s/images/train/n03928116_4/n02933112_4/img_dp_33_b_2013__vray_buffet_2000-3_gray.png,foreground,same as foreground,n03928116_4,n02933112_4,Stimuli/canonical view 2/img_n03928116_4_gray.jpg,Stimuli/canonical view 2/img_n02933112_4_gray.jpg,foreground,left,Experiments/experiment_19/72.jpg,Experiments/experiment_19/73.jpg,Experiments/experiment_19/74.jpg,Experiments/experiment_19/75.jpg,815,1,2023-06-28_13h38.13.367,Occlusion_Psychophysics,2022.1.4,MacIntel,60.0024001,,,left,"[""right""]",[0.618100000009008],False,,0.0,0.0,18.0,18.0,18.0,1.0,,,,,,
,,,,,,,,,,,,,,,,,,,,,0.025,,,,,,,,,,Stimuli/psy_fixed_rotation_30_objects_occ0.7_0.9s/images/train/n04256520_9/n02933112_4/img_napoleon_iii_sofa_buffet_2009_gray.jpg,n04256520_9,n02933112_4,fixed,0.721639,n03928116_0,Stimuli/psy_flexible_rotation_30_objects_occ0.7_0.9s/images/train/n02883344_0/n03928116_0/img_b03_box_b02_piano_2012-3_gray.png,random,flexible,n04256520_9,n02818832_9,Stimuli/canonical view 2/img_n04256520_9_gray.jpg,Stimuli/canonical view 2/img_n02818832_9_gray.jpg,random,right,Experiments/experiment_19/76.jpg,Experiments/experiment_19/77.jpg,Experiments/experiment_19/78.jpg,Experiments/experiment_19/79.jpg,815,1,2023-06-28_13h38.13.367,Occlusion_Psychophysics,2022.1.4,MacIntel,60.0024001,,,left,"[""left""]",[1.5727999999970734],False,,0.0,0.0,19.0,19.0,19.0,1.0,,,,,,
,,,,,,,,,,,,,,,,,,,,,0.025,,,,,,,,,,Stimuli/psy_flexible_rotation_30_objects_occ0.7_0.9s/images/train/n02828884_9/n04379243_0/img_cr-96_bench_17th_c._monastery_dining_table_2010_2010_gray.jpg,n02828884_9,n04379243_0,flexible,0.710036,n04379243_0,Stimuli/psy_flexible_rotation_30_objects_occ0.7_0.9s/images/train/n02828884_9/n04379243_0/img_cr-96_bench_17th_c._monastery_dining_table_2010_2010-3_gray.png,foreground,same as foreground,n02828884_9,n03928116_10,Stimuli/canonical view 2/img_n02828884_9_gray.jpg,Stimuli/canonical view 2/img_n03928116_10_gray.jpg,random,left,Experiments/experiment_19/80.jpg,Experiments/experiment_19/81.jpg,Experiments/experiment_19/82.jpg,Experiments/experiment_19/83.jpg,815,1,2023-06-28_13h38.13.367,Occlusion_Psychophysics,2022.1.4,MacIntel,60.0024001,,,right,"[""right""]",[0.7956999999880736],False,,0.0,0.0,20.0,20.0,20.0,1.0,,,,,,
,,,,,,,,,,,,,,,,,,,,,0.025,,,,,,,,,,Stimuli/psy_fixed_rotation_30_objects_occ0.7_0.9s/images/train/n02818832_0/n04379243_8/img_b03_the_sofa_and_chair_company_-_stanley_bed_2014_glass_table_2000_gray.jpg,n02818832_0,n04379243_8,fixed,0.76245,n03928116_0,Stimuli/psy_fixed_rotation_30_objects_occ0.7_0.9s/images/train/n03928116_4/n03928116_0/img_dp_33_b_2013__vray_b02_piano_2002-3_gray.png,random,fixed,n02818832_0,n04379243_8,Stimuli/canonical view 2/img_n02818832_0_gray.jpg,Stimuli/canonical view 2/img_n04379243_8_gray.jpg,foreground,right,Experiments/experiment_19/84.jpg,Experiments/experiment_19/85.jpg,Experiments/experiment_19/86.jpg,Experiments/experiment_19/87.jpg,815,1,2023-06-28_13h38.13.367,Occlusion_Psychophysics,2022.1.4,MacIntel,60.0024001,,,right,"[""right""]",[1.120599999994056],False,,0.0,0.0,21.0,21.0,21.0,1.0,,,,,,
,,,,,,,,,,,,,,,,,,,,,0.025,,,,,,,,,,Stimuli/psy_fixed_rotation_30_objects_occ0.7_0.9s/images/train/n02883344_-1/n03928116_0/img_woven_box_b02_piano_2008_gray.jpg,n02883344_-1,n03928116_0,fixed,0.800602,n03928116_0,Stimuli/psy_fixed_rotation_30_objects_occ0.7_0.9s/images/train/n02883344_-1/n03928116_0/img_woven_box_b02_piano_2008-3_gray.png,foreground,same as foreground,n02883344_-1,n02883344_15,Stimuli/canonical view 2/img_n02883344_-1_gray.jpg,Stimuli/canonical view 2/img_n02883344_15_gray.jpg,random,left,Experiments/experiment_19/88.jpg,Experiments/experiment_19/89.jpg,Experiments/experiment_19/90.jpg,Experiments/experiment_19/91.jpg,815,1,2023-06-28_13h38.13.367,Occlusion_Psychophysics,2022.1.4,MacIntel,60.0024001,,,left,"[""right""]",[1.2109000000059496],False,,0.0,0.0,22.0,22.0,22.0,1.0,,,,,,
,,,,,,,,,,,,,,,,,,,,,0.025,,,,,,,,,,Stimuli/psy_fixed_rotation_30_objects_occ0.7_0.9s/images/train/n04379243_8/n04405907_5/img_glass_table_samsung_40_uhd_smart_tv_2011_2005_gray.jpg,n04379243_8,n04405907_5,fixed,0.756343,n04405907_5,Stimuli/psy_fixed_rotation_30_objects_occ0.7_0.9s/images/train/n04379243_8/n04405907_5/img_glass_table_samsung_40_uhd_smart_tv_2011_2005-3_gray.png,foreground,same as foreground,n04379243_8,n02828884_9,Stimuli/canonical view 2/img_n04379243_8_gray.jpg,Stimuli/canonical view 2/img_n02828884_9_gray.jpg,random,right,Experiments/experiment_19/92.jpg,Experiments/experiment_19/93.jpg,Experiments/experiment_19/94.jpg,Experiments/experiment_19/95.jpg,815,1,2023-06-28_13h38.13.367,Occlusion_Psychophysics,2022.1.4,MacIntel,60.0024001,,,right,"[""right""]",[0.6720000000000255],False,,0.0,0.0,23.0,23.0,23.0,1.0,,,,,,
,,,,,,,,,,,,,,,,,,,,,0.025,,,,,,,,,,Stimuli/psy_flexible_rotation_30_objects_occ0.7_0.9s/images/train/n04379243_8/n02933112_-2/img_glass_table_sink_base_white_wood_2006_gray.jpg,n04379243_8,n02933112_-2,flexible,0.701162,n04256520_4,Stimuli/psy_flexible_rotation_30_objects_occ0.7_0.9s/images/train/n03928116_0/n04256520_4/img_b02_piano_club_house_italia_nautilus_sofa_2006-3_gray.png,random,flexible,n04379243_8,n02933112_-2,Stimuli/canonical view 2/img_n04379243_8_gray.jpg,Stimuli/canonical view 2/img_n02933112_-2_gray.jpg,foreground,left,Experiments/experiment_19/96.jpg,Experiments/experiment_19/97.jpg,Experiments/experiment_19/98.jpg,Experiments/experiment_19/99.jpg,815,1,2023-06-28_13h38.13.367,Occlusion_Psychophysics,2022.1.4,MacIntel,60.0024001,,,left,"[""left""]",[1.1432000000029348],False,,0.0,0.0,24.0,24.0,24.0,1.0,,,,,,
,,,,,,,,,,,,,,,,,,,,,0.05,,,,,,,,,,Stimuli/psy_flexible_rotation_30_objects_occ0.7_0.9s/images/train/n04379243_-7/n04405907_5/img_quatre_dining_table_samsung_40_uhd_smart_tv_2011_2010_gray.jpg,n04379243_-7,n04405907_5,flexible,0.725539,n02883344_-1,Stimuli/psy_fixed_rotation_30_objects_occ0.7_0.9s/images/train/n04379243_8/n02883344_-1/img_glass_table_woven_box_2011-3_gray.png,random,fixed,n04379243_-7,n04405907_5,Stimuli/canonical view 2/img_n04379243_-7_gray.jpg,Stimuli/canonical view 2/img_n04405907_5_gray.jpg,foreground,right,Experiments/experiment_19/100.jpg,Experiments/experiment_19/101.jpg,Experiments/experiment_19/102.jpg,Experiments/experiment_19/103.jpg,815,1,2023-06-28_13h38.13.367,Occlusion_Psychophysics,2022.1.4,MacIntel,60.0024001,,,right,"[""right""]",[0.9719000000060305],False,,0.0,0.0,25.0,25.0,25.0,1.0,,,,,,
,,,,,,,,,,,,,,,,,,,,,0.05,,,,,,,,,,Stimuli/psy_flexible_rotation_30_objects_occ0.7_0.9s/images/train/n02883344_-1/n02883344_15/img_woven_box_microwave_box_2001_gray.jpg,n02883344_-1,n02883344_15,flexible,0.830275,n02883344_15,Stimuli/psy_flexible_rotation_30_objects_occ0.7_0.9s/images/train/n02883344_-1/n02883344_15/img_woven_box_microwave_box_2001-3_gray.png,foreground,same as foreground,n02883344_-1,n02883344_15,Stimuli/canonical view 2/img_n02883344_-1_gray.jpg,Stimuli/canonical view 2/img_n02883344_15_gray.jpg,foreground,left,Experiments/experiment_19/104.jpg,Experiments/experiment_19/105.jpg,Experiments/experiment_19/106.jpg,Experiments/experiment_19/107.jpg,815,1,2023-06-28_13h38.13.367,Occlusion_Psychophysics,2022.1.4,MacIntel,60.0024001,,,right,"[""left""]",[0.8706000000088352],False,,0.0,0.0,26.0,26.0,26.0,1.0,,,,,,
,,,,,,,,,,,,,,,,,,,,,0.05,,,,,,,,,,Stimuli/psy_fixed_rotation_30_objects_occ0.7_0.9s/images/train/n04405907_8/n04379243_0/img_stylized_tv_17th_c._monastery_dining_table_2010_2000_gray.jpg,n04405907_8,n04379243_0,fixed,0.705989,n04379243_0,Stimuli/psy_fixed_rotation_30_objects_occ0.7_0.9s/images/train/n04405907_8/n04379243_0/img_stylized_tv_17th_c._monastery_dining_table_2010_2000-3_gray.png,foreground,same as foreground,n04405907_8,n04379243_0,Stimuli/canonical view 2/img_n04405907_8_gray.jpg,Stimuli/canonical view 2/img_n04379243_0_gray.jpg,foreground,right,Experiments/experiment_19/108.jpg,Experiments/experiment_19/109.jpg,Experiments/experiment_19/110.jpg,Experiments/experiment_19/111.jpg,815,1,2023-06-28_13h38.13.367,Occlusion_Psychophysics,2022.1.4,MacIntel,60.0024001,,,left,"[""left""]",[0.7446000000089725],False,,0.0,0.0,27.0,27.0,27.0,1.0,,,,,,
,,,,,,,,,,,,,,,,,,,,,0.05,,,,,,,,,,Stimuli/psy_fixed_rotation_30_objects_occ0.7_0.9s/images/train/n02933112_-2/n04405907_5/img_sink_base_white_wood_samsung_40_uhd_smart_tv_2011_2012_gray.jpg,n02933112_-2,n04405907_5,fixed,0.820502,n04405907_5,Stimuli/psy_fixed_rotation_30_objects_occ0.7_0.9s/images/train/n02933112_-2/n04405907_5/img_sink_base_white_wood_samsung_40_uhd_smart_tv_2011_2012-3_gray.png,foreground,same as foreground,n02933112_-2,n03928116_0,Stimuli/canonical view 2/img_n02933112_-2_gray.jpg,Stimuli/canonical view 2/img_n03928116_0_gray.jpg,random,left,Experiments/experiment_19/112.jpg,Experiments/experiment_19/113.jpg,Experiments/experiment_19/114.jpg,Experiments/experiment_19/115.jpg,815,1,2023-06-28_13h38.13.367,Occlusion_Psychophysics,2022.1.4,MacIntel,60.0024001,,,left,"[""left""]",[1.087900000006016],False,,0.0,0.0,28.0,28.0,28.0,1.0,,,,,,
,,,,,,,,,,,,,,,,,,,,,0.05,,,,,,,,,,Stimuli/psy_flexible_rotation_30_objects_occ0.7_0.9s/images/train/n03928116_10/n02933112_-2/img_ydp_103_r_2012__vray_sink_base_white_wood_2012_gray.jpg,n03928116_10,n02933112_-2,flexible,0.718361,n02933112_-2,Stimuli/psy_flexible_rotation_30_objects_occ0.7_0.9s/images/train/n03928116_10/n02933112_-2/img_ydp_103_r_2012__vray_sink_base_white_wood_2012-3_gray.png,foreground,same as foreground,n03928116_10,n02933112_-2,Stimuli/canonical view 2/img_n03928116_10_gray.jpg,Stimuli/canonical view 2/img_n02933112_-2_gray.jpg,foreground,left,Experiments/experiment_19/116.jpg,Experiments/experiment_19/117.jpg,Experiments/experiment_19/118.jpg,Experiments/experiment_19/119.jpg,815,1,2023-06-28_13h38.13.367,Occlusion_Psychophysics,2022.1.4,MacIntel,60.0024001,,,right,"[""right""]",[0.5476999999880263],False,,0.0,0.0,29.0,29.0,29.0,1.0,,,,,,
,,,,,,,,,,,,,,,,,,,,,0.05,,,,,,,,,,Stimuli/psy_fixed_rotation_30_objects_occ0.7_0.9s/images/train/n02933112_-18/n04405907_8/img_cgaxis_models_48_26_vray_composite_stylized_tv_2011_gray.jpg,n02933112_-18,n04405907_8,fixed,0.793856,n04256520_9,Stimuli/psy_flexible_rotation_30_objects_occ0.7_0.9s/images/train/n03001627_-2/n04256520_9/img_wood_chair_napoleon_iii_sofa_2003-3_gray.png,random,flexible,n02933112_-18,n04405907_8,Stimuli/canonical view 2/img_n02933112_-18_gray.jpg,Stimuli/canonical view 2/img_n04405907_8_gray.jpg,foreground,left,Experiments/experiment_19/120.jpg,Experiments/experiment_19/121.jpg,Experiments/experiment_19/122.jpg,Experiments/experiment_19/123.jpg,815,1,2023-06-28_13h38.13.367,Occlusion_Psychophysics,2022.1.4,MacIntel,60.0024001,,,left,"[""left""]",[1.0070999999940113],False,,0.0,0.0,30.0,30.0,30.0,1.0,,,,,,
,,,,,,,,,,,,,,,,,,,,,0.05,,,,,,,,,,Stimuli/psy_fixed_rotation_30_objects_occ0.7_0.9s/images/train/n02883344_15/n02883344_-1/img_microwave_box_woven_box_2002_gray.jpg,n02883344_15,n02883344_-1,fixed,0.761893,n02828884_4,Stimuli/psy_flexible_rotation_30_objects_occ0.7_0.9s/images/train/n02828884_4/n02828884_4/img_b05_c-5_classic_series_bench-2012_b05_c-5_classic_series_bench-2012_2014-3_gray.png,random,flexible,n02883344_15,n02883344_-1,Stimuli/canonical view 2/img_n02883344_15_gray.jpg,Stimuli/canonical view 2/img_n02883344_-1_gray.jpg,foreground,right,Experiments/experiment_19/124.jpg,Experiments/experiment_19/125.jpg,Experiments/experiment_19/126.jpg,Experiments/experiment_19/127.jpg,815,1,2023-06-28_13h38.13.367,Occlusion_Psychophysics,2022.1.4,MacIntel,60.0024001,,,right,"[""right""]",[0.6349000000059277],False,,0.0,0.0,31.0,31.0,31.0,1.0,,,,,,
,,,,,,,,,,,,,,,,,,,,,0.025,,,,,,,,,,Stimuli/psy_flexible_rotation_30_objects_occ0.7_0.9s/images/train/n02818832_9/n04405907_5/img_bed01_blue_samsung_40_uhd_smart_tv_2011_2005_gray.jpg,n02818832_9,n04405907_5,flexible,0.706463,n04405907_8,Stimuli/psy_flexible_rotation_30_objects_occ0.7_0.9s/images/train/n04379243_-7/n04405907_8/img_quatre_dining_table_stylized_tv_2008-3_gray.png,random,flexible,n02818832_9,n04405907_5,Stimuli/canonical view 2/img_n02818832_9_gray.jpg,Stimuli/canonical view 2/img_n04405907_5_gray.jpg,foreground,right,Experiments/experiment_19/128.jpg,Experiments/experiment_19/129.jpg,Experiments/experiment_19/130.jpg,Experiments/experiment_19/131.jpg,815,1,2023-06-28_13h38.13.367,Occlusion_Psychophysics,2022.1.4,MacIntel,60.0024001,,,left,"[""left""]",[0.9132999999970934],False,,0.0,0.0,32.0,32.0,32.0,1.0,,,,,,
,,,,,,,,,,,,,,,,,,,,,0.05,,,,,,,,,,Stimuli/psy_flexible_rotation_30_objects_occ0.7_0.9s/images/train/n03928116_4/n04405907_5/img_dp_33_b_2013__vray_samsung_40_uhd_smart_tv_2011_2008_gray.jpg,n03928116_4,n04405907_5,flexible,0.740814,n02933112_-18,Stimuli/psy_flexible_rotation_30_objects_occ0.7_0.9s/images/train/n02828884_3/n02933112_-18/img_b04_wood_metal_park_bench_cgaxis_models_48_26_vray_composite_2007-3_gray.png,random,flexible,n03928116_4,n04256520_5,Stimuli/canonical view 2/img_n03928116_4_gray.jpg,Stimuli/canonical view 2/img_n04256520_5_gray.jpg,random,left,Experiments/experiment_19/132.jpg,Experiments/experiment_19/133.jpg,Experiments/experiment_19/134.jpg,Experiments/experiment_19/135.jpg,815,1,2023-06-28_13h38.13.367,Occlusion_Psychophysics,2022.1.4,MacIntel,60.0024001,,,left,"[""left""]",[1.029799999997067],False,,0.0,0.0,33.0,33.0,33.0,1.0,,,,,,
,,,,,,,,,,,,,,,,,,,,,0.05,,,,,,,,,,Stimuli/psy_flexible_rotation_30_objects_occ0.7_0.9s/images/train/n02883344_-1/n03928116_0/img_woven_box_b02_piano_2006_gray.jpg,n02883344_-1,n03928116_0,flexible,0.78957,n04379243_0,Stimuli/psy_fixed_rotation_30_objects_occ0.7_0.9s/images/train/n02933112_-2/n04379243_0/img_sink_base_white_wood_17th_c._monastery_dining_table_2010_2012-3_gray.png,random,fixed,n02883344_-1,n03928116_0,Stimuli/canonical view 2/img_n02883344_-1_gray.jpg,Stimuli/canonical view 2/img_n03928116_0_gray.jpg,foreground,right,Experiments/experiment_19/136.jpg,Experiments/experiment_19/137.jpg,Experiments/experiment_19/138.jpg,Experiments/experiment_19/139.jpg,815,1,2023-06-28_13h38.13.367,Occlusion_Psychophysics,2022.1.4,MacIntel,60.0024001,,,right,"[""right""]",[0.6888999999910084],False,,0.0,0.0,34.0,34.0,34.0,1.0,,,,,,
,,,,,,,,,,,,,,,,,,,,,0.05,,,,,,,,,,Stimuli/psy_flexible_rotation_30_objects_occ0.7_0.9s/images/train/n02933112_-2/n04405907_8/img_sink_base_white_wood_stylized_tv_2007_gray.jpg,n02933112_-2,n04405907_8,flexible,0.722985,n02828884_3,Stimuli/psy_flexible_rotation_30_objects_occ0.7_0.9s/images/train/n03928116_0/n02828884_3/img_b02_piano_b04_wood_metal_park_bench_2008-3_gray.png,random,flexible,n02933112_-2,n04405907_8,Stimuli/canonical view 2/img_n02933112_-2_gray.jpg,Stimuli/canonical view 2/img_n04405907_8_gray.jpg,foreground,right,Experiments/experiment_19/140.jpg,Experiments/experiment_19/141.jpg,Experiments/experiment_19/142.jpg,Experiments/experiment_19/143.jpg,815,1,2023-06-28_13h38.13.367,Occlusion_Psychophysics,2022.1.4,MacIntel,60.0024001,,,left,"[""left""]",[0.5884999999999536],False,,0.0,0.0,35.0,35.0,35.0,1.0,,,,,,
,,,,,,,,,,,,,,,,,,,,,0.025,,,,,,,,,,Stimuli/psy_flexible_rotation_30_objects_occ0.7_0.9s/images/train/n03928116_4/n03928116_10/img_dp_33_b_2013__vray_ydp_103_r_2012__vray_2013_gray.jpg,n03928116_4,n03928116_10,flexible,0.807209,n02818832_0,Stimuli/psy_fixed_rotation_30_objects_occ0.7_0.9s/images/train/n04379243_-7/n02818832_0/img_quatre_dining_table_b03_the_sofa_and_chair_company_-_stanley_bed_2014_2006-3_gray.png,random,fixed,n03928116_4,n03001627_9,Stimuli/canonical view 2/img_n03928116_4_gray.jpg,Stimuli/canonical view 2/img_n03001627_9_gray.jpg,random,right,Experiments/experiment_19/144.jpg,Experiments/experiment_19/145.jpg,Experiments/experiment_19/146.jpg,Experiments/experiment_19/147.jpg,815,1,2023-06-28_13h38.13.367,Occlusion_Psychophysics,2022.1.4,MacIntel,60.0024001,,,left,"[""left""]",[0.8165000000000191],False,,0.0,0.0,36.0,36.0,36.0,1.0,,,,,,
,,,,,,,,,,,,,,,,,,,,,0.05,,,,,,,,,,Stimuli/psy_fixed_rotation_30_objects_occ0.7_0.9s/images/train/n02828884_4/n02828884_3/img_b05_c-5_classic_series_bench-2012_b04_wood_metal_park_bench_2007_gray.jpg,n02828884_4,n02828884_3,fixed,0.713395,n04256520_4,Stimuli/psy_fixed_rotation_30_objects_occ0.7_0.9s/images/train/n02883344_0/n04256520_4/img_b03_box_club_house_italia_nautilus_sofa_2013-3_gray.png,random,fixed,n02828884_4,n02828884_3,Stimuli/canonical view 2/img_n02828884_4_gray.jpg,Stimuli/canonical view 2/img_n02828884_3_gray.jpg,foreground,right,Experiments/experiment_19/148.jpg,Experiments/experiment_19/149.jpg,Experiments/experiment_19/150.jpg,Experiments/experiment_19/151.jpg,815,1,2023-06-28_13h38.13.367,Occlusion_Psychophysics,2022.1.4,MacIntel,60.0024001,,,left,"[""left""]",[0.7437999999970089],False,,0.0,0.0,37.0,37.0,37.0,1.0,,,,,,
,,,,,,,,,,,,,,,,,,,,,0.05,,,,,,,,,,Stimuli/psy_fixed_rotation_30_objects_occ0.7_0.9s/images/train/n02883344_-1/n03928116_0/img_woven_box_b02_piano_2002_gray.jpg,n02883344_-1,n03928116_0,fixed,0.810041,n03928116_0,Stimuli/psy_fixed_rotation_30_objects_occ0.7_0.9s/images/train/n02883344_-1/n03928116_0/img_woven_box_b02_piano_2002-3_gray.png,foreground,same as foreground,n02883344_-1,n04256520_9,Stimuli/canonical view 2/img_n02883344_-1_gray.jpg,Stimuli/canonical view 2/img_n04256520_9_gray.jpg,random,left,Experiments/experiment_19/152.jpg,Experiments/experiment_19/153.jpg,Experiments/experiment_19/154.jpg,Experiments/experiment_19/155.jpg,815,1,2023-06-28_13h38.13.367,Occlusion_Psychophysics,2022.1.4,MacIntel,60.0024001,,,right,"[""right""]",[1.1236999999880481],False,,0.0,0.0,38.0,38.0,38.0,1.0,,,,,,
,,,,,,,,,,,,,,,,,,,,,0.025,,,,,,,,,,Stimuli/psy_fixed_rotation_30_objects_occ0.7_0.9s/images/train/n02818832_0/n04379243_0/img_b03_the_sofa_and_chair_company_-_stanley_bed_2014_17th_c._monastery_dining_table_2010_2000_gray.jpg,n02818832_0,n04379243_0,fixed,0.832323,n03928116_10,Stimuli/psy_fixed_rotation_30_objects_occ0.7_0.9s/images/train/n02883344_0/n03928116_10/img_b03_box_ydp_103_r_2012__vray_2015-3_gray.png,random,fixed,n02818832_0,n04379243_0,Stimuli/canonical view 2/img_n02818832_0_gray.jpg,Stimuli/canonical view 2/img_n04379243_0_gray.jpg,foreground,left,Experiments/experiment_19/156.jpg,Experiments/experiment_19/157.jpg,Experiments/experiment_19/158.jpg,Experiments/experiment_19/159.jpg,815,1,2023-06-28_13h38.13.367,Occlusion_Psychophysics,2022.1.4,MacIntel,60.0024001,,,left,"[""left""]",[0.9381000000088306],False,,0.0,0.0,39.0,39.0,39.0,1.0,,,,,,
,,,,,,,,,,,,,,,,,,,,,0.025,,,,,,,,,,Stimuli/psy_flexible_rotation_30_objects_occ0.7_0.9s/images/train/n04379243_8/n03928116_4/img_glass_table_dp_33_b_2013__vray_2010_gray.jpg,n04379243_8,n03928116_4,flexible,0.711224,n03928116_4,Stimuli/psy_flexible_rotation_30_objects_occ0.7_0.9s/images/train/n04379243_8/n03928116_4/img_glass_table_dp_33_b_2013__vray_2010-3_gray.png,foreground,same as foreground,n04379243_8,n02818832_9,Stimuli/canonical view 2/img_n04379243_8_gray.jpg,Stimuli/canonical view 2/img_n02818832_9_gray.jpg,random,left,Experiments/experiment_19/160.jpg,Experiments/experiment_19/161.jpg,Experiments/experiment_19/162.jpg,Experiments/experiment_19/163.jpg,815,1,2023-06-28_13h38.13.367,Occlusion_Psychophysics,2022.1.4,MacIntel,60.0024001,,,right,"[""right""]",[0.6280000000000427],False,,0.0,0.0,40.0,40.0,40.0,1.0,,,,,,
,,,,,,,,,,,,,,,,,,,,,0.05,,,,,,,,,,Stimuli/psy_fixed_rotation_30_objects_occ0.7_0.9s/images/train/n04405907_9/n04379243_8/img_vray_004_glass_table_2002_gray.jpg,n04405907_9,n04379243_8,fixed,0.722945,n03928116_10,Stimuli/psy_fixed_rotation_30_objects_occ0.7_0.9s/images/train/n04379243_-7/n03928116_10/img_quatre_dining_table_ydp_103_r_2012__vray_2014-3_gray.png,random,fixed,n04405907_9,n03928116_10,Stimuli/canonical view 2/img_n04405907_9_gray.jpg,Stimuli/canonical view 2/img_n03928116_10_gray.jpg,random,left,Experiments/experiment_19/164.jpg,Experiments/experiment_19/165.jpg,Experiments/experiment_19/166.jpg,Experiments/experiment_19/167.jpg,815,1,2023-06-28_13h38.13.367,Occlusion_Psychophysics,2022.1.4,MacIntel,60.0024001,,,left,"[""left""]",[1.1270000000000664],False,,0.0,0.0,41.0,41.0,41.0,1.0,,,,,,
,,,,,,,,,,,,,,,,,,,,,0.05,,,,,,,,,,Stimuli/psy_flexible_rotation_30_objects_occ0.7_0.9s/images/train/n02883344_0/n04405907_9/img_b03_box_vray_004_2005_gray.jpg,n02883344_0,n04405907_9,flexible,0.782092,n04405907_9,Stimuli/psy_flexible_rotation_30_objects_occ0.7_0.9s/images/train/n02883344_0/n04405907_9/img_b03_box_vray_004_2005-3_gray.png,foreground,same as foreground,n02883344_0,n04379243_8,Stimuli/canonical view 2/img_n02883344_0_gray.jpg,Stimuli/canonical view 2/img_n04379243_8_gray.jpg,random,left,Experiments/experiment_19/168.jpg,Experiments/experiment_19/169.jpg,Experiments/experiment_19/170.jpg,Experiments/experiment_19/171.jpg,815,1,2023-06-28_13h38.13.367,Occlusion_Psychophysics,2022.1.4,MacIntel,60.0024001,,,right,"[""left""]",[1.3552999999971007],False,,0.0,0.0,42.0,42.0,42.0,1.0,,,,,,
,,,,,,,,,,,,,,,,,,,,,0.05,,,,,,,,,,Stimuli/psy_flexible_rotation_30_objects_occ0.7_0.9s/images/train/n04405907_8/n02883344_15/img_stylized_tv_microwave_box_2001_gray.jpg,n04405907_8,n02883344_15,flexible,0.730957,n04379243_0,Stimuli/psy_fixed_rotation_30_objects_occ0.7_0.9s/images/train/n02828884_9/n04379243_0/img_cr-96_bench_17th_c._monastery_dining_table_2010_2000-3_gray.png,random,fixed,n04405907_8,n02883344_15,Stimuli/canonical view 2/img_n04405907_8_gray.jpg,Stimuli/canonical view 2/img_n02883344_15_gray.jpg,foreground,right,Experiments/experiment_19/172.jpg,Experiments/experiment_19/173.jpg,Experiments/experiment_19/174.jpg,Experiments/experiment_19/175.jpg,815,1,2023-06-28_13h38.13.367,Occlusion_Psychophysics,2022.1.4,MacIntel,60.0024001,,,left,"[""left""]",[0.9210000000000491],False,,0.0,0.0,43.0,43.0,43.0,1.0,,,,,,
,,,,,,,,,,,,,,,,,,,,,0.05,,,,,,,,,,Stimuli/psy_flexible_rotation_30_objects_occ0.7_0.9s/images/train/n03928116_4/n02933112_-2/img_dp_33_b_2013__vray_sink_base_white_wood_2003_gray.jpg,n03928116_4,n02933112_-2,flexible,0.711558,n02933112_-2,Stimuli/psy_flexible_rotation_30_objects_occ0.7_0.9s/images/train/n03928116_4/n02933112_-2/img_dp_33_b_2013__vray_sink_base_white_wood_2003-3_gray.png,foreground,same as foreground,n03928116_4,n02933112_-2,Stimuli/canonical view 2/img_n03928116_4_gray.jpg,Stimuli/canonical view 2/img_n02933112_-2_gray.jpg,foreground,left,Experiments/experiment_19/176.jpg,Experiments/experiment_19/177.jpg,Experiments/experiment_19/178.jpg,Experiments/experiment_19/179.jpg,815,1,2023-06-28_13h38.13.367,Occlusion_Psychophysics,2022.1.4,MacIntel,60.0024001,,,right,"[""left""]",[1.0570000000000164],False,,0.0,0.0,44.0,44.0,44.0,1.0,,,,,,
,,,,,,,,,,,,,,,,,,,,,0.05,,,,,,,,,,Stimuli/psy_fixed_rotation_30_objects_occ0.7_0.9s/images/train/n03001627_8/n02818832_0/img_chair_billiani_doll_b03_the_sofa_and_chair_company_-_stanley_bed_2014_2009_gray.jpg,n03001627_8,n02818832_0,fixed,0.77448,n04379243_-7,Stimuli/psy_flexible_rotation_30_objects_occ0.7_0.9s/images/train/n02883344_-1/n04379243_-7/img_woven_box_quatre_dining_table_2012-3_gray.png,random,flexible,n03001627_8,n02828884_4,Stimuli/canonical view 2/img_n03001627_8_gray.jpg,Stimuli/canonical view 2/img_n02828884_4_gray.jpg,random,left,Experiments/experiment_19/180.jpg,Experiments/experiment_19/181.jpg,Experiments/experiment_19/182.jpg,Experiments/experiment_19/183.jpg,815,1,2023-06-28_13h38.13.367,Occlusion_Psychophysics,2022.1.4,MacIntel,60.0024001,,,left,"[""left""]",[0.9625999999940404],False,,0.0,0.0,45.0,45.0,45.0,1.0,,,,,,
,,,,,,,,,,,,,,,,,,,,,0.05,,,,,,,,,,Stimuli/psy_fixed_rotation_30_objects_occ0.7_0.9s/images/train/n04256520_5/n04405907_9/img_meridiani_belmondo_bench_sofa_vray_004_2006_gray.jpg,n04256520_5,n04405907_9,fixed,0.7287,n04405907_9,Stimuli/psy_fixed_rotation_30_objects_occ0.7_0.9s/images/train/n04256520_5/n04405907_9/img_meridiani_belmondo_bench_sofa_vray_004_2006-3_gray.png,foreground,same as foreground,n04256520_5,n04405907_9,Stimuli/canonical view 2/img_n04256520_5_gray.jpg,Stimuli/canonical view 2/img_n04405907_9_gray.jpg,foreground,left,Experiments/experiment_19/184.jpg,Experiments/experiment_19/185.jpg,Experiments/experiment_19/186.jpg,Experiments/experiment_19/187.jpg,815,1,2023-06-28_13h38.13.367,Occlusion_Psychophysics,2022.1.4,MacIntel,60.0024001,,,left,"[""left""]",[1.0194999999999936],False,,0.0,0.0,46.0,46.0,46.0,1.0,,,,,,
,,,,,,,,,,,,,,,,,,,,,0.025,,,,,,,,,,Stimuli/psy_flexible_rotation_30_objects_occ0.7_0.9s/images/train/n04256520_5/n04379243_-7/img_meridiani_belmondo_bench_sofa_quatre_dining_table_2012_gray.jpg,n04256520_5,n04379243_-7,flexible,0.771332,n04405907_5,Stimuli/psy_fixed_rotation_30_objects_occ0.7_0.9s/images/train/n03001627_9/n04405907_5/img_chair_eames_plastic_armchair_samsung_40_uhd_smart_tv_2011_2015-3_gray.png,random,fixed,n04256520_5,n02828884_4,Stimuli/canonical view 2/img_n04256520_5_gray.jpg,Stimuli/canonical view 2/img_n02828884_4_gray.jpg,random,left,Experiments/experiment_19/188.jpg,Experiments/experiment_19/189.jpg,Experiments/experiment_19/190.jpg,Experiments/experiment_19/191.jpg,815,1,2023-06-28_13h38.13.367,Occlusion_Psychophysics,2022.1.4,MacIntel,60.0024001,,,right,"[""left""]",[1.1937999999969406],False,,0.0,0.0,47.0,47.0,47.0,1.0,,,,,,
,,,,,,,,,,,,,,,,,,,,,0.025,,,,,,,,,,Stimuli/psy_flexible_rotation_30_objects_occ0.7_0.9s/images/train/n04405907_9/n02883344_15/img_vray_004_microwave_box_2015_gray.jpg,n04405907_9,n02883344_15,flexible,0.750674,n02883344_15,Stimuli/psy_flexible_rotation_30_objects_occ0.7_0.9s/images/train/n04405907_9/n02883344_15/img_vray_004_microwave_box_2015-3_gray.png,foreground,same as foreground,n04405907_9,n02883344_0,Stimuli/canonical view 2/img_n04405907_9_gray.jpg,Stimuli/canonical view 2/img_n02883344_0_gray.jpg,random,left,Experiments/experiment_19/192.jpg,Experiments/experiment_19/193.jpg,Experiments/experiment_19/194.jpg,Experiments/experiment_19/195.jpg,815,1,2023-06-28_13h38.13.367,Occlusion_Psychophysics,2022.1.4,MacIntel,60.0024001,,,left,"[""left""]",[0.5558999999910839],False,,0.0,0.0,48.0,48.0,48.0,1.0,,,,,,
,,,,,,,,,,,,,,,,,,,,,0.05,,,,,,,,,,Stimuli/psy_fixed_rotation_30_objects_occ0.7_0.9s/images/train/n04379243_-7/n02828884_3/img_quatre_dining_table_b04_wood_metal_park_bench_2013_gray.jpg,n04379243_-7,n02828884_3,fixed,0.715159,n02828884_3,Stimuli/psy_fixed_rotation_30_objects_occ0.7_0.9s/images/train/n04379243_-7/n02828884_3/img_quatre_dining_table_b04_wood_metal_park_bench_2013-3_gray.png,foreground,same as foreground,n04379243_-7,n02828884_3,Stimuli/canonical view 2/img_n04379243_-7_gray.jpg,Stimuli/canonical view 2/img_n02828884_3_gray.jpg,foreground,right,Experiments/experiment_19/196.jpg,Experiments/experiment_19/197.jpg,Experiments/experiment_19/198.jpg,Experiments/experiment_19/199.jpg,815,1,2023-06-28_13h38.13.367,Occlusion_Psychophysics,2022.1.4,MacIntel,60.0024001,,,left,"[""left""]",[0.84800000000007],False,,0.0,0.0,49.0,49.0,49.0,1.0,,,,,,
,,,,,,,,,,,,,,,,,,,,,0.025,,,,,,,,,,Stimuli/psy_flexible_rotation_30_objects_occ0.7_0.9s/images/train/n02828884_9/n02883344_15/img_cr-96_bench_microwave_box_2010_gray.jpg,n02828884_9,n02883344_15,flexible,0.789657,n03001627_-2,Stimuli/psy_flexible_rotation_30_objects_occ0.7_0.9s/images/train/n03928116_10/n03001627_-2/img_ydp_103_r_2012__vray_wood_chair_2000-3_gray.png,random,flexible,n02828884_9,n02883344_15,Stimuli/canonical view 2/img_n02828884_9_gray.jpg,Stimuli/canonical view 2/img_n02883344_15_gray.jpg,foreground,left,Experiments/experiment_19/200.jpg,Experiments/experiment_19/201.jpg,Experiments/experiment_19/202.jpg,Experiments/experiment_19/203.jpg,815,1,2023-06-28_13h38.13.367,Occlusion_Psychophysics,2022.1.4,MacIntel,60.0024001,,,right,"[""right""]",[0.9262000000029502],False,,0.0,0.0,50.0,50.0,50.0,1.0,,,,,,
,,,,,,,,,,,,,,,,,,,,,0.05,,,,,,,,,,Stimuli/psy_flexible_rotation_30_objects_occ0.7_0.9s/images/train/n02883344_-1/n04379243_-7/img_woven_box_quatre_dining_table_2013_gray.jpg,n02883344_-1,n04379243_-7,flexible,0.80718,n04256520_4,Stimuli/psy_flexible_rotation_30_objects_occ0.7_0.9s/images/train/n02828884_9/n04256520_4/img_cr-96_bench_club_house_italia_nautilus_sofa_2000-3_gray.png,random,flexible,n02883344_-1,n04379243_-7,Stimuli/canonical view 2/img_n02883344_-1_gray.jpg,Stimuli/canonical view 2/img_n04379243_-7_gray.jpg,foreground,right,Experiments/experiment_19/204.jpg,Experiments/experiment_19/205.jpg,Experiments/experiment_19/206.jpg,Experiments/experiment_19/207.jpg,815,1,2023-06-28_13h38.13.367,Occlusion_Psychophysics,2022.1.4,MacIntel,60.0024001,,,right,"[""right""]",[1.0049999999999955],False,,0.0,0.0,51.0,51.0,51.0,1.0,,,,,,
,,,,,,,,,,,,,,,,,,,,,0.025,,,,,,,,,,Stimuli/psy_flexible_rotation_30_objects_occ0.7_0.9s/images/train/n04405907_8/n02933112_-2/img_stylized_tv_sink_base_white_wood_2000_gray.jpg,n04405907_8,n02933112_-2,flexible,0.829611,n02933112_4,Stimuli/psy_fixed_rotation_30_objects_occ0.7_0.9s/images/train/n04379243_-7/n02933112_4/img_quatre_dining_table_buffet_2014-3_gray.png,random,fixed,n04405907_8,n02933112_-2,Stimuli/canonical view 2/img_n04405907_8_gray.jpg,Stimuli/canonical view 2/img_n02933112_-2_gray.jpg,foreground,left,Experiments/experiment_19/208.jpg,Experiments/experiment_19/209.jpg,Experiments/experiment_19/210.jpg,Experiments/experiment_19/211.jpg,815,1,2023-06-28_13h38.13.367,Occlusion_Psychophysics,2022.1.4,MacIntel,60.0024001,,,left,"[""right""]",[0.8492000000030657],False,,0.0,0.0,52.0,52.0,52.0,1.0,,,,,,
,,,,,,,,,,,,,,,,,,,,,0.05,,,,,,,,,,Stimuli/psy_flexible_rotation_30_objects_occ0.7_0.9s/images/train/n03001627_-2/n02883344_-1/img_wood_chair_woven_box_2011_gray.jpg,n03001627_-2,n02883344_-1,flexible,0.765202,n02818832_9,Stimuli/psy_flexible_rotation_30_objects_occ0.7_0.9s/images/train/n02933112_-2/n02818832_9/img_sink_base_white_wood_bed01_blue_2012-3_gray.png,random,flexible,n03001627_-2,n04379243_0,Stimuli/canonical view 2/img_n03001627_-2_gray.jpg,Stimuli/canonical view 2/img_n04379243_0_gray.jpg,random,right,Experiments/experiment_19/212.jpg,Experiments/experiment_19/213.jpg,Experiments/experiment_19/214.jpg,Experiments/experiment_19/215.jpg,815,1,2023-06-28_13h38.13.367,Occlusion_Psychophysics,2022.1.4,MacIntel,60.0024001,,,right,"[""right""]",[1.282300000011901],True,right,1.0,0.0,53.0,53.0,53.0,1.0,1.072,,,,,
,,,,,,,,,,,,,,,,,,,,,0.025,,,,,,,,,,Stimuli/psy_fixed_rotation_30_objects_occ0.7_0.9s/images/train/n04405907_5/n03928116_4/img_samsung_40_uhd_smart_tv_2011_dp_33_b_2013__vray_2003_gray.jpg,n04405907_5,n03928116_4,fixed,0.784391,n03928116_4,Stimuli/psy_fixed_rotation_30_objects_occ0.7_0.9s/images/train/n04405907_5/n03928116_4/img_samsung_40_uhd_smart_tv_2011_dp_33_b_2013__vray_2003-3_gray.png,foreground,same as foreground,n04405907_5,n02828884_3,Stimuli/canonical view 2/img_n04405907_5_gray.jpg,Stimuli/canonical view 2/img_n02828884_3_gray.jpg,random,left,Experiments/experiment_19/216.jpg,Experiments/experiment_19/217.jpg,Experiments/experiment_19/218.jpg,Experiments/experiment_19/219.jpg,815,1,2023-06-28_13h38.13.367,Occlusion_Psychophysics,2022.1.4,MacIntel,60.0024001,,,right,"[""left""]",[1.6275000000000546],False,,0.0,0.0,54.0,54.0,54.0,1.0,,,,,,
,,,,,,,,,,,,,,,,,,,,,0.025,,,,,,,,,,Stimuli/psy_fixed_rotation_30_objects_occ0.7_0.9s/images/train/n04256520_4/n02818832_0/img_club_house_italia_nautilus_sofa_b03_the_sofa_and_chair_company_-_stanley_bed_2014_2005_gray.jpg,n04256520_4,n02818832_0,fixed,0.729124,n02818832_0,Stimuli/psy_fixed_rotation_30_objects_occ0.7_0.9s/images/train/n04256520_4/n02818832_0/img_club_house_italia_nautilus_sofa_b03_the_sofa_and_chair_company_-_stanley_bed_2014_2005-3_gray.png,foreground,same as foreground,n04256520_4,n03001627_9,Stimuli/canonical view 2/img_n04256520_4_gray.jpg,Stimuli/canonical view 2/img_n03001627_9_gray.jpg,random,right,Experiments/experiment_19/220.jpg,Experiments/experiment_19/221.jpg,Experiments/experiment_19/222.jpg,Experiments/experiment_19/223.jpg,815,1,2023-06-28_13h38.13.367,Occlusion_Psychophysics,2022.1.4,MacIntel,60.0024001,,,left,"[""left""]",[0.7034999999999627],False,,0.0,0.0,55.0,55.0,55.0,1.0,,,,,,
,,,,,,,,,,,,,,,,,,,,,0.05,,,,,,,,,,Stimuli/psy_fixed_rotation_30_objects_occ0.7_0.9s/images/train/n04256520_4/n02883344_-1/img_club_house_italia_nautilus_sofa_woven_box_2007_gray.jpg,n04256520_4,n02883344_-1,fixed,0.859153,n02883344_15,Stimuli/psy_fixed_rotation_30_objects_occ0.7_0.9s/images/train/n04070727_0/n02883344_15/img_b03_ka90ivi20r_2013__vray_microwave_box_2006-3_gray.png,random,fixed,n04256520_4,n02828884_4,Stimuli/canonical view 2/img_n04256520_4_gray.jpg,Stimuli/canonical view 2/img_n02828884_4_gray.jpg,random,right,Experiments/experiment_19/224.jpg,Experiments/experiment_19/225.jpg,Experiments/experiment_19/226.jpg,Experiments/experiment_19/227.jpg,815,1,2023-06-28_13h38.13.367,Occlusion_Psychophysics,2022.1.4,MacIntel,60.0024001,,,left,"[""right""]",[1.3722000000029766],False,,0.0,0.0,56.0,56.0,56.0,1.0,,,,,,
,,,,,,,,,,,,,,,,,,,,,0.025,,,,,,,,,,Stimuli/psy_fixed_rotation_30_objects_occ0.7_0.9s/images/train/n04379243_0/n04405907_5/img_17th_c._monastery_dining_table_2010_samsung_40_uhd_smart_tv_2011_2000_gray.jpg,n04379243_0,n04405907_5,fixed,0.768421,n03928116_0,Stimuli/psy_fixed_rotation_30_objects_occ0.7_0.9s/images/train/n02818832_0/n03928116_0/img_b03_the_sofa_and_chair_company_-_stanley_bed_2014_b02_piano_2003-3_gray.png,random,fixed,n04379243_0,n04405907_9,Stimuli/canonical view 2/img_n04379243_0_gray.jpg,Stimuli/canonical view 2/img_n04405907_9_gray.jpg,random,right,Experiments/experiment_19/228.jpg,Experiments/experiment_19/229.jpg,Experiments/experiment_19/230.jpg,Experiments/experiment_19/231.jpg,815,1,2023-06-28_13h38.13.367,Occlusion_Psychophysics,2022.1.4,MacIntel,60.0024001,,,left,"[""left""]",[1.4909999999999854],False,,0.0,0.0,57.0,57.0,57.0,1.0,,,,,,
,,,,,,,,,,,,,,,,,,,,,0.025,,,,,,,,,,Stimuli/psy_fixed_rotation_30_objects_occ0.7_0.9s/images/train/n04379243_0/n02933112_-18/img_17th_c._monastery_dining_table_2010_cgaxis_models_48_26_vray_composite_2006_gray.jpg,n04379243_0,n02933112_-18,fixed,0.708601,n02933112_-18,Stimuli/psy_fixed_rotation_30_objects_occ0.7_0.9s/images/train/n04379243_0/n02933112_-18/img_17th_c._monastery_dining_table_2010_cgaxis_models_48_26_vray_composite_2006-3_gray.png,foreground,same as foreground,n04379243_0,n02933112_-18,Stimuli/canonical view 2/img_n04379243_0_gray.jpg,Stimuli/canonical view 2/img_n02933112_-18_gray.jpg,foreground,right,Experiments/experiment_19/232.jpg,Experiments/experiment_19/233.jpg,Experiments/experiment_19/234.jpg,Experiments/experiment_19/235.jpg,815,1,2023-06-28_13h38.13.367,Occlusion_Psychophysics,2022.1.4,MacIntel,60.0024001,,,right,"[""right""]",[0.6815000000000282],False,,0.0,0.0,58.0,58.0,58.0,1.0,,,,,,
,,,,,,,,,,,,,,,,,,,,,0.025,,,,,,,,,,Stimuli/psy_flexible_rotation_30_objects_occ0.7_0.9s/images/train/n04405907_9/n03928116_4/img_vray_004_dp_33_b_2013__vray_2005_gray.jpg,n04405907_9,n03928116_4,flexible,0.741992,n03928116_4,Stimuli/psy_flexible_rotation_30_objects_occ0.7_0.9s/images/train/n04405907_9/n03928116_4/img_vray_004_dp_33_b_2013__vray_2005-3_gray.png,foreground,same as foreground,n04405907_9,n03928116_4,Stimuli/canonical view 2/img_n04405907_9_gray.jpg,Stimuli/canonical view 2/img_n03928116_4_gray.jpg,foreground,right,Experiments/experiment_19/236.jpg,Experiments/experiment_19/237.jpg,Experiments/experiment_19/238.jpg,Experiments/experiment_19/239.jpg,815,1,2023-06-28_13h38.13.367,Occlusion_Psychophysics,2022.1.4,MacIntel,60.0024001,,,right,"[""right""]",[1.3899999999999864],False,,0.0,0.0,59.0,59.0,59.0,1.0,,,,,,
,,,,,,,,,,,,,,,,,,,,,0.05,,,,,,,,,,Stimuli/psy_fixed_rotation_30_objects_occ0.7_0.9s/images/train/n04256520_4/n02933112_-2/img_club_house_italia_nautilus_sofa_sink_base_white_wood_2013_gray.jpg,n04256520_4,n02933112_-2,fixed,0.794054,n02933112_-2,Stimuli/psy_fixed_rotation_30_objects_occ0.7_0.9s/images/train/n04256520_4/n02933112_-2/img_club_house_italia_nautilus_sofa_sink_base_white_wood_2013-3_gray.png,foreground,same as foreground,n04256520_4,n03001627_8,Stimuli/canonical view 2/img_n04256520_4_gray.jpg,Stimuli/canonical view 2/img_n03001627_8_gray.jpg,random,right,Experiments/experiment_19/240.jpg,Experiments/experiment_19/241.jpg,Experiments/experiment_19/242.jpg,Experiments/experiment_19/243.jpg,815,1,2023-06-28_13h38.13.367,Occlusion_Psychophysics,2022.1.4,MacIntel,60.0024001,,,right,"[""right""]",[1.0190000000000055],False,,0.0,0.0,60.0,60.0,60.0,1.0,,,,,,
,,,,,,,,,,,,,,,,,,,,,0.025,,,,,,,,,,Stimuli/psy_fixed_rotation_30_objects_occ0.7_0.9s/images/train/n02933112_-18/n02818832_3/img_cgaxis_models_48_26_vray_composite_b05_ccm_contemporary_bed_max2013_2006_gray.jpg,n02933112_-18,n02818832_3,fixed,0.752546,n02818832_3,Stimuli/psy_fixed_rotation_30_objects_occ0.7_0.9s/images/train/n02933112_-18/n02818832_3/img_cgaxis_models_48_26_vray_composite_b05_ccm_contemporary_bed_max2013_2006-3_gray.png,foreground,same as foreground,n02933112_-18,n02818832_3,Stimuli/canonical view 2/img_n02933112_-18_gray.jpg,Stimuli/canonical view 2/img_n02818832_3_gray.jpg,foreground,left,Experiments/experiment_19/244.jpg,Experiments/experiment_19/245.jpg,Experiments/experiment_19/246.jpg,Experiments/experiment_19/247.jpg,815,1,2023-06-28_13h38.13.367,Occlusion_Psychophysics,2022.1.4,MacIntel,60.0024001,,,right,"[""left""]",[0.8065000000000282],False,,0.0,0.0,61.0,61.0,61.0,1.0,,,,,,
,,,,,,,,,,,,,,,,,,,,,0.05,,,,,,,,,,Stimuli/psy_fixed_rotation_30_objects_occ0.7_0.9s/images/train/n04256520_4/n02818832_9/img_club_house_italia_nautilus_sofa_bed01_blue_2002_gray.jpg,n04256520_4,n02818832_9,fixed,0.71434,n04405907_9,Stimuli/psy_flexible_rotation_30_objects_occ0.7_0.9s/images/train/n02818832_0/n04405907_9/img_b03_the_sofa_and_chair_company_-_stanley_bed_2014_vray_004_2003-3_gray.png,random,flexible,n04256520_4,n04256520_9,Stimuli/canonical view 2/img_n04256520_4_gray.jpg,Stimuli/canonical view 2/img_n04256520_9_gray.jpg,random,left,Experiments/experiment_19/248.jpg,Experiments/experiment_19/249.jpg,Experiments/experiment_19/250.jpg,Experiments/experiment_19/251.jpg,815,1,2023-06-28_13h38.13.367,Occlusion_Psychophysics,2022.1.4,MacIntel,60.0024001,,,left,"[""right""]",[1.274400000005926],False,,0.0,0.0,62.0,62.0,62.0,1.0,,,,,,
,,,,,,,,,,,,,,,,,,,,,0.025,,,,,,,,,,Stimuli/psy_flexible_rotation_30_objects_occ0.7_0.9s/images/train/n03001627_-2/n03928116_0/img_wood_chair_b02_piano_2015_gray.jpg,n03001627_-2,n03928116_0,flexible,0.749049,n03928116_0,Stimuli/psy_flexible_rotation_30_objects_occ0.7_0.9s/images/train/n03001627_-2/n03928116_0/img_wood_chair_b02_piano_2015-3_gray.png,foreground,same as foreground,n03001627_-2,n03001627_8,Stimuli/canonical view 2/img_n03001627_-2_gray.jpg,Stimuli/canonical view 2/img_n03001627_8_gray.jpg,random,left,Experiments/experiment_19/252.jpg,Experiments/experiment_19/253.jpg,Experiments/experiment_19/254.jpg,Experiments/experiment_19/255.jpg,815,1,2023-06-28_13h38.13.367,Occlusion_Psychophysics,2022.1.4,MacIntel,60.0024001,,,right,"[""right""]",[0.8285999999940259],False,,0.0,0.0,63.0,63.0,63.0,1.0,,,,,,
,,,,,,,,,,,,,,,,,,,,,0.025,,,,,,,,,,Stimuli/psy_flexible_rotation_30_objects_occ0.7_0.9s/images/train/n02828884_9/n02883344_15/img_cr-96_bench_microwave_box_2009_gray.jpg,n02828884_9,n02883344_15,flexible,0.757485,n02883344_15,Stimuli/psy_flexible_rotation_30_objects_occ0.7_0.9s/images/train/n02828884_9/n02883344_15/img_cr-96_bench_microwave_box_2009-3_gray.png,foreground,same as foreground,n02828884_9,n02883344_15,Stimuli/canonical view 2/img_n02828884_9_gray.jpg,Stimuli/canonical view 2/img_n02883344_15_gray.jpg,foreground,left,Experiments/experiment_19/256.jpg,Experiments/experiment_19/257.jpg,Experiments/experiment_19/258.jpg,Experiments/experiment_19/259.jpg,815,1,2023-06-28_13h38.13.367,Occlusion_Psychophysics,2022.1.4,MacIntel,60.0024001,,,left,"[""left""]",[0.6063999999910266],False,,0.0,0.0,64.0,64.0,64.0,1.0,,,,,,
,,,,,,,,,,,,,,,,,,,,,0.025,,,,,,,,,,Stimuli/psy_flexible_rotation_30_objects_occ0.7_0.9s/images/train/n04405907_9/n03928116_4/img_vray_004_dp_33_b_2013__vray_2003_gray.jpg,n04405907_9,n03928116_4,flexible,0.822787,n03928116_4,Stimuli/psy_flexible_rotation_30_objects_occ0.7_0.9s/images/train/n04405907_9/n03928116_4/img_vray_004_dp_33_b_2013__vray_2003-3_gray.png,foreground,same as foreground,n04405907_9,n03001627_9,Stimuli/canonical view 2/img_n04405907_9_gray.jpg,Stimuli/canonical view 2/img_n03001627_9_gray.jpg,random,left,Experiments/experiment_19/260.jpg,Experiments/experiment_19/261.jpg,Experiments/experiment_19/262.jpg,Experiments/experiment_19/263.jpg,815,1,2023-06-28_13h38.13.367,Occlusion_Psychophysics,2022.1.4,MacIntel,60.0024001,,,left,"[""left""]",[0.9225999999939631],True,left,1.0,0.0,65.0,65.0,65.0,1.0,1.1432,,,,,
,,,,,,,,,,,,,,,,,,,,,0.025,,,,,,,,,,Stimuli/psy_flexible_rotation_30_objects_occ0.7_0.9s/images/train/n02883344_-1/n03928116_4/img_woven_box_dp_33_b_2013__vray_2012_gray.jpg,n02883344_-1,n03928116_4,flexible,0.715399,n03928116_4,Stimuli/psy_flexible_rotation_30_objects_occ0.7_0.9s/images/train/n02883344_-1/n03928116_4/img_woven_box_dp_33_b_2013__vray_2012-3_gray.png,foreground,same as foreground,n02883344_-1,n03928116_4,Stimuli/canonical view 2/img_n02883344_-1_gray.jpg,Stimuli/canonical view 2/img_n03928116_4_gray.jpg,foreground,left,Experiments/experiment_19/264.jpg,Experiments/experiment_19/265.jpg,Experiments/experiment_19/266.jpg,Experiments/experiment_19/267.jpg,815,1,2023-06-28_13h38.13.367,Occlusion_Psychophysics,2022.1.4,MacIntel,60.0024001,,,right,"[""right""]",[0.7896000000089316],False,,0.0,0.0,66.0,66.0,66.0,1.0,,,,,,
,,,,,,,,,,,,,,,,,,,,,0.025,,,,,,,,,,Stimuli/psy_fixed_rotation_30_objects_occ0.7_0.9s/images/train/n02933112_4/n02933112_-2/img_buffet_sink_base_white_wood_2011_gray.jpg,n02933112_4,n02933112_-2,fixed,0.776774,n02883344_0,Stimuli/psy_flexible_rotation_30_objects_occ0.7_0.9s/images/train/n04256520_9/n02883344_0/img_napoleon_iii_sofa_b03_box_2002-3_gray.png,random,flexible,n02933112_4,n04405907_9,Stimuli/canonical view 2/img_n02933112_4_gray.jpg,Stimuli/canonical view 2/img_n04405907_9_gray.jpg,random,right,Experiments/experiment_19/268.jpg,Experiments/experiment_19/269.jpg,Experiments/experiment_19/270.jpg,Experiments/experiment_19/271.jpg,815,1,2023-06-28_13h38.13.367,Occlusion_Psychophysics,2022.1.4,MacIntel,60.0024001,,,right,"[""right""]",[0.7042999999970334],False,,0.0,0.0,67.0,67.0,67.0,1.0,,,,,,
,,,,,,,,,,,,,,,,,,,,,0.025,,,,,,,,,,Stimuli/psy_flexible_rotation_30_objects_occ0.7_0.9s/images/train/n03928116_10/n04256520_4/img_ydp_103_r_2012__vray_club_house_italia_nautilus_sofa_2012_gray.jpg,n03928116_10,n04256520_4,flexible,0.86737,n02883344_-1,Stimuli/psy_fixed_rotation_30_objects_occ0.7_0.9s/images/train/n02818832_0/n02883344_-1/img_b03_the_sofa_and_chair_company_-_stanley_bed_2014_woven_box_2003-3_gray.png,random,fixed,n03928116_10,n03001627_-2,Stimuli/canonical view 2/img_n03928116_10_gray.jpg,Stimuli/canonical view 2/img_n03001627_-2_gray.jpg,random,right,Experiments/experiment_19/272.jpg,Experiments/experiment_19/273.jpg,Experiments/experiment_19/274.jpg,Experiments/experiment_19/275.jpg,815,1,2023-06-28_13h38.13.367,Occlusion_Psychophysics,2022.1.4,MacIntel,60.0024001,,,right,"[""right""]",[0.9510000000000218],False,,0.0,0.0,68.0,68.0,68.0,1.0,,,,,,
,,,,,,,,,,,,,,,,,,,,,0.05,,,,,,,,,,Stimuli/psy_fixed_rotation_30_objects_occ0.7_0.9s/images/train/n03001627_9/n02883344_15/img_chair_eames_plastic_armchair_microwave_box_2000_gray.jpg,n03001627_9,n02883344_15,fixed,0.744857,n02828884_3,Stimuli/psy_flexible_rotation_30_objects_occ0.7_0.9s/images/train/n02883344_-1/n02828884_3/img_woven_box_b04_wood_metal_park_bench_2001-3_gray.png,random,flexible,n03001627_9,n02883344_15,Stimuli/canonical view 2/img_n03001627_9_gray.jpg,Stimuli/canonical view 2/img_n02883344_15_gray.jpg,foreground,right,Experiments/experiment_19/276.jpg,Experiments/experiment_19/277.jpg,Experiments/experiment_19/278.jpg,Experiments/experiment_19/279.jpg,815,1,2023-06-28_13h38.13.367,Occlusion_Psychophysics,2022.1.4,MacIntel,60.0024001,,,right,"[""right""]",[0.9077000000029329],False,,0.0,0.0,69.0,69.0,69.0,1.0,,,,,,
,,,,,,,,,,,,,,,,,,,,,0.025,,,,,,,,,,Stimuli/psy_fixed_rotation_30_objects_occ0.7_0.9s/images/train/n02828884_4/n04379243_8/img_b05_c-5_classic_series_bench-2012_glass_table_2009_gray.jpg,n02828884_4,n04379243_8,fixed,0.779431,n02828884_3,Stimuli/psy_flexible_rotation_30_objects_occ0.7_0.9s/images/train/n02818832_3/n02828884_3/img_b05_ccm_contemporary_bed_max2013_b04_wood_metal_park_bench_2004-3_gray.png,random,flexible,n02828884_4,n04379243_8,Stimuli/canonical view 2/img_n02828884_4_gray.jpg,Stimuli/canonical view 2/img_n04379243_8_gray.jpg,foreground,left,Experiments/experiment_19/280.jpg,Experiments/experiment_19/281.jpg,Experiments/experiment_19/282.jpg,Experiments/experiment_19/283.jpg,815,1,2023-06-28_13h38.13.367,Occlusion_Psychophysics,2022.1.4,MacIntel,60.0024001,,,left,"[""left""]",[0.8387999999970361],False,,0.0,0.0,70.0,70.0,70.0,1.0,,,,,,
,,,,,,,,,,,,,,,,,,,,,0.05,,,,,,,,,,Stimuli/psy_fixed_rotation_30_objects_occ0.7_0.9s/images/train/n02933112_4/n04405907_8/img_buffet_stylized_tv_2002_gray.jpg,n02933112_4,n04405907_8,fixed,0.811883,n03928116_0,Stimuli/psy_fixed_rotation_30_objects_occ0.7_0.9s/images/train/n03001627_8/n03928116_0/img_chair_billiani_doll_b02_piano_2009-3_gray.png,random,fixed,n02933112_4,n04405907_8,Stimuli/canonical view 2/img_n02933112_4_gray.jpg,Stimuli/canonical view 2/img_n04405907_8_gray.jpg,foreground,left,Experiments/experiment_19/284.jpg,Experiments/experiment_19/285.jpg,Experiments/experiment_19/286.jpg,Experiments/experiment_19/287.jpg,815,1,2023-06-28_13h38.13.367,Occlusion_Psychophysics,2022.1.4,MacIntel,60.0024001,,,left,"[""right""]",[1.0692999999970425],False,,0.0,0.0,71.0,71.0,71.0,1.0,,,,,,
,,,,,,,,,,,,,,,,,,,,,0.05,,,,,,,,,,Stimuli/psy_fixed_rotation_30_objects_occ0.7_0.9s/images/train/n04405907_8/n02818832_3/img_stylized_tv_b05_ccm_contemporary_bed_max2013_2001_gray.jpg,n04405907_8,n02818832_3,fixed,0.784757,n02818832_3,Stimuli/psy_fixed_rotation_30_objects_occ0.7_0.9s/images/train/n04405907_8/n02818832_3/img_stylized_tv_b05_ccm_contemporary_bed_max2013_2001-3_gray.png,foreground,same as foreground,n04405907_8,n02883344_0,Stimuli/canonical view 2/img_n04405907_8_gray.jpg,Stimuli/canonical view 2/img_n02883344_0_gray.jpg,random,left,Experiments/experiment_19/288.jpg,Experiments/experiment_19/289.jpg,Experiments/experiment_19/290.jpg,Experiments/experiment_19/291.jpg,815,1,2023-06-28_13h38.13.367,Occlusion_Psychophysics,2022.1.4,MacIntel,60.0024001,,,left,"[""right""]",[1.490900000006036],False,,0.0,0.0,72.0,72.0,72.0,1.0,,,,,,
,,,,,,,,,,,,,,,,,,,,,0.05,,,,,,,,,,Stimuli/psy_fixed_rotation_30_objects_occ0.7_0.9s/images/train/n04256520_9/n04379243_0/img_napoleon_iii_sofa_17th_c._monastery_dining_table_2010_2002_gray.jpg,n04256520_9,n04379243_0,fixed,0.759145,n04379243_0,Stimuli/psy_fixed_rotation_30_objects_occ0.7_0.9s/images/train/n04256520_9/n04379243_0/img_napoleon_iii_sofa_17th_c._monastery_dining_table_2010_2002-3_gray.png,foreground,same as foreground,n04256520_9,n04379243_0,Stimuli/canonical view 2/img_n04256520_9_gray.jpg,Stimuli/canonical view 2/img_n04379243_0_gray.jpg,foreground,right,Experiments/experiment_19/292.jpg,Experiments/experiment_19/293.jpg,Experiments/experiment_19/294.jpg,Experiments/experiment_19/295.jpg,815,1,2023-06-28_13h38.13.367,Occlusion_Psychophysics,2022.1.4,MacIntel,60.0024001,,,left,"[""left""]",[0.8713000000119564],False,,0.0,0.0,73.0,73.0,73.0,1.0,,,,,,
,,,,,,,,,,,,,,,,,,,,,0.05,,,,,,,,,,Stimuli/psy_fixed_rotation_30_objects_occ0.7_0.9s/images/train/n02818832_3/n02933112_4/img_b05_ccm_contemporary_bed_max2013_buffet_2003_gray.jpg,n02818832_3,n02933112_4,fixed,0.726351,n02933112_4,Stimuli/psy_fixed_rotation_30_objects_occ0.7_0.9s/images/train/n02818832_3/n02933112_4/img_b05_ccm_contemporary_bed_max2013_buffet_2003-3_gray.png,foreground,same as foreground,n02818832_3,n02933112_4,Stimuli/canonical view 2/img_n02818832_3_gray.jpg,Stimuli/canonical view 2/img_n02933112_4_gray.jpg,foreground,right,Experiments/experiment_19/296.jpg,Experiments/experiment_19/297.jpg,Experiments/experiment_19/298.jpg,Experiments/experiment_19/299.jpg,815,1,2023-06-28_13h38.13.367,Occlusion_Psychophysics,2022.1.4,MacIntel,60.0024001,,,right,"[""right""]",[1.2168000000119719],False,,0.0,0.0,74.0,74.0,74.0,1.0,,,,,,
,,,,,,,,,,,,,,,,,,,,,0.05,,,,,,,,,,Stimuli/psy_flexible_rotation_30_objects_occ0.7_0.9s/images/train/n02883344_0/n02883344_15/img_b03_box_microwave_box_2015_gray.jpg,n02883344_0,n02883344_15,flexible,0.721684,n02883344_15,Stimuli/psy_flexible_rotation_30_objects_occ0.7_0.9s/images/train/n02883344_0/n02883344_15/img_b03_box_microwave_box_2015-3_gray.png,foreground,same as foreground,n02883344_0,n03001627_8,Stimuli/canonical view 2/img_n02883344_0_gray.jpg,Stimuli/canonical view 2/img_n03001627_8_gray.jpg,random,right,Experiments/experiment_19/300.jpg,Experiments/experiment_19/301.jpg,Experiments/experiment_19/302.jpg,Experiments/experiment_19/303.jpg,815,1,2023-06-28_13h38.13.367,Occlusion_Psychophysics,2022.1.4,MacIntel,60.0024001,,,right,"[""right""]",[0.6720000000000255],False,,0.0,0.0,75.0,75.0,75.0,1.0,,,,,,
,,,,,,,,,,,,,,,,,,,,,0.025,,,,,,,,,,Stimuli/psy_flexible_rotation_30_objects_occ0.7_0.9s/images/train/n04256520_4/n04379243_0/img_club_house_italia_nautilus_sofa_17th_c._monastery_dining_table_2010_2014_gray.jpg,n04256520_4,n04379243_0,flexible,0.837621,n02883344_0,Stimuli/psy_fixed_rotation_30_objects_occ0.7_0.9s/images/train/n02818832_3/n02883344_0/img_b05_ccm_contemporary_bed_max2013_b03_box_2004-3_gray.png,random,fixed,n04256520_4,n02818832_9,Stimuli/canonical view 2/img_n04256520_4_gray.jpg,Stimuli/canonical view 2/img_n02818832_9_gray.jpg,random,right,Experiments/experiment_19/304.jpg,Experiments/experiment_19/305.jpg,Experiments/experiment_19/306.jpg,Experiments/experiment_19/307.jpg,815,1,2023-06-28_13h38.13.367,Occlusion_Psychophysics,2022.1.4,MacIntel,60.0024001,,,left,"[""left""]",[0.8454999999999018],False,,0.0,0.0,76.0,76.0,76.0,1.0,,,,,,
,,,,,,,,,,,,,,,,,,,,,0.05,,,,,,,,,,Stimuli/psy_flexible_rotation_30_objects_occ0.7_0.9s/images/train/n02818832_9/n02818832_0/img_bed01_blue_b03_the_sofa_and_chair_company_-_stanley_bed_2014_2003_gray.jpg,n02818832_9,n02818832_0,flexible,0.730844,n02818832_0,Stimuli/psy_flexible_rotation_30_objects_occ0.7_0.9s/images/train/n02818832_9/n02818832_0/img_bed01_blue_b03_the_sofa_and_chair_company_-_stanley_bed_2014_2003-3_gray.png,foreground,same as foreground,n02818832_9,n02818832_0,Stimuli/canonical view 2/img_n02818832_9_gray.jpg,Stimuli/canonical view 2/img_n02818832_0_gray.jpg,foreground,right,Experiments/experiment_19/308.jpg,Experiments/experiment_19/309.jpg,Experiments/experiment_19/310.jpg,Experiments/experiment_19/311.jpg,815,1,2023-06-28_13h38.13.367,Occlusion_Psychophysics,2022.1.4,MacIntel,60.0024001,,,left,"[""right""]",[1.2799999999999727],False,,0.0,0.0,77.0,77.0,77.0,1.0,,,,,,
,,,,,,,,,,,,,,,,,,,,,0.025,,,,,,,,,,Stimuli/psy_fixed_rotation_30_objects_occ0.7_0.9s/images/train/n02883344_15/n04256520_4/img_microwave_box_club_house_italia_nautilus_sofa_2010_gray.jpg,n02883344_15,n04256520_4,fixed,0.733151,n04256520_4,Stimuli/psy_fixed_rotation_30_objects_occ0.7_0.9s/images/train/n02883344_15/n04256520_4/img_microwave_box_club_house_italia_nautilus_sofa_2010-3_gray.png,foreground,same as foreground,n02883344_15,n04256520_4,Stimuli/canonical view 2/img_n02883344_15_gray.jpg,Stimuli/canonical view 2/img_n04256520_4_gray.jpg,foreground,left,Experiments/experiment_19/312.jpg,Experiments/experiment_19/313.jpg,Experiments/experiment_19/314.jpg,Experiments/experiment_19/315.jpg,815,1,2023-06-28_13h38.13.367,Occlusion_Psychophysics,2022.1.4,MacIntel,60.0024001,,,right,"[""right""]",[1.1086000000088916],False,,0.0,0.0,78.0,78.0,78.0,1.0,,,,,,
,,,,,,,,,,,,,,,,,,,,,0.05,,,,,,,,,,Stimuli/psy_flexible_rotation_30_objects_occ0.7_0.9s/images/train/n02818832_9/n04256520_4/img_bed01_blue_club_house_italia_nautilus_sofa_2007_gray.jpg,n02818832_9,n04256520_4,flexible,0.730541,n04256520_4,Stimuli/psy_flexible_rotation_30_objects_occ0.7_0.9s/images/train/n02818832_9/n04256520_4/img_bed01_blue_club_house_italia_nautilus_sofa_2007-3_gray.png,foreground,same as foreground,n02818832_9,n04256520_4,Stimuli/canonical view 2/img_n02818832_9_gray.jpg,Stimuli/canonical view 2/img_n04256520_4_gray.jpg,foreground,right,Experiments/experiment_19/316.jpg,Experiments/experiment_19/317.jpg,Experiments/experiment_19/318.jpg,Experiments/experiment_19/319.jpg,815,1,2023-06-28_13h38.13.367,Occlusion_Psychophysics,2022.1.4,MacIntel,60.0024001,,,right,"[""right""]",[0.7082000000029893],False,,0.0,0.0,79.0,79.0,79.0,1.0,,,,,,
,,,,,,,,,,,,,,,,,,,,,0.05,,,,,,,,,,Stimuli/psy_flexible_rotation_30_objects_occ0.7_0.9s/images/train/n02818832_3/n04256520_4/img_b05_ccm_contemporary_bed_max2013_club_house_italia_nautilus_sofa_2015_gray.jpg,n02818832_3,n04256520_4,flexible,0.708424,n04256520_4,Stimuli/psy_flexible_rotation_30_objects_occ0.7_0.9s/images/train/n02818832_3/n04256520_4/img_b05_ccm_contemporary_bed_max2013_club_house_italia_nautilus_sofa_2015-3_gray.png,foreground,same as foreground,n02818832_3,n03001627_-2,Stimuli/canonical view 2/img_n02818832_3_gray.jpg,Stimuli/canonical view 2/img_n03001627_-2_gray.jpg,random,right,Experiments/experiment_19/320.jpg,Experiments/experiment_19/321.jpg,Experiments/experiment_19/322.jpg,Experiments/experiment_19/323.jpg,815,1,2023-06-28_13h38.13.367,Occlusion_Psychophysics,2022.1.4,MacIntel,60.0024001,,,left,"[""left""]",[1.2907000000029711],False,,0.0,0.0,80.0,80.0,80.0,1.0,,,,,,
,,,,,,,,,,,,,,,,,,,,,0.05,,,,,,,,,,Stimuli/psy_flexible_rotation_30_objects_occ0.7_0.9s/images/train/n02883344_15/n04405907_8/img_microwave_box_stylized_tv_2000_gray.jpg,n02883344_15,n04405907_8,flexible,0.737343,n04379243_-7,Stimuli/psy_fixed_rotation_30_objects_occ0.7_0.9s/images/train/n02883344_-1/n04379243_-7/img_woven_box_quatre_dining_table_2012-3_gray.png,random,fixed,n02883344_15,n04405907_8,Stimuli/canonical view 2/img_n02883344_15_gray.jpg,Stimuli/canonical view 2/img_n04405907_8_gray.jpg,foreground,right,Experiments/experiment_19/324.jpg,Experiments/experiment_19/325.jpg,Experiments/experiment_19/326.jpg,Experiments/experiment_19/327.jpg,815,1,2023-06-28_13h38.13.367,Occlusion_Psychophysics,2022.1.4,MacIntel,60.0024001,,,left,"[""left""]",[0.7287999999970225],False,,0.0,0.0,81.0,81.0,81.0,1.0,,,,,,
,,,,,,,,,,,,,,,,,,,,,0.05,,,,,,,,,,Stimuli/psy_fixed_rotation_30_objects_occ0.7_0.9s/images/train/n04379243_8/n03001627_-2/img_glass_table_wood_chair_2002_gray.jpg,n04379243_8,n03001627_-2,fixed,0.74096,n02933112_-2,Stimuli/psy_fixed_rotation_30_objects_occ0.7_0.9s/images/train/n03001627_8/n02933112_-2/img_chair_billiani_doll_sink_base_white_wood_2015-3_gray.png,random,fixed,n04379243_8,n03001627_-2,Stimuli/canonical view 2/img_n04379243_8_gray.jpg,Stimuli/canonical view 2/img_n03001627_-2_gray.jpg,foreground,right,Experiments/experiment_19/328.jpg,Experiments/experiment_19/329.jpg,Experiments/experiment_19/330.jpg,Experiments/experiment_19/331.jpg,815,1,2023-06-28_13h38.13.367,Occlusion_Psychophysics,2022.1.4,MacIntel,60.0024001,,,right,"[""right""]",[1.1080999999940104],False,,0.0,0.0,82.0,82.0,82.0,1.0,,,,,,
,,,,,,,,,,,,,,,,,,,,,0.05,,,,,,,,,,Stimuli/psy_fixed_rotation_30_objects_occ0.7_0.9s/images/train/n02933112_4/n04405907_8/img_buffet_stylized_tv_2009_gray.jpg,n02933112_4,n04405907_8,fixed,0.72758,n02818832_0,Stimuli/psy_fixed_rotation_30_objects_occ0.7_0.9s/images/train/n04379243_8/n02818832_0/img_glass_table_b03_the_sofa_and_chair_company_-_stanley_bed_2014_2003-3_gray.png,random,fixed,n02933112_4,n04405907_8,Stimuli/canonical view 2/img_n02933112_4_gray.jpg,Stimuli/canonical view 2/img_n04405907_8_gray.jpg,foreground,left,Experiments/experiment_19/332.jpg,Experiments/experiment_19/333.jpg,Experiments/experiment_19/334.jpg,Experiments/experiment_19/335.jpg,815,1,2023-06-28_13h38.13.367,Occlusion_Psychophysics,2022.1.4,MacIntel,60.0024001,,,left,"[""left""]",[1.4192000000028884],False,,0.0,0.0,83.0,83.0,83.0,1.0,,,,,,
,,,,,,,,,,,,,,,,,,,,,0.025,,,,,,,,,,Stimuli/psy_fixed_rotation_30_objects_occ0.7_0.9s/images/train/n03001627_8/n03001627_9/img_chair_billiani_doll_chair_eames_plastic_armchair_2013_gray.jpg,n03001627_8,n03001627_9,fixed,0.828646,n03001627_9,Stimuli/psy_fixed_rotation_30_objects_occ0.7_0.9s/images/train/n03001627_8/n03001627_9/img_chair_billiani_doll_chair_eames_plastic_armchair_2013-3_gray.png,foreground,same as foreground,n03001627_8,n02883344_0,Stimuli/canonical view 2/img_n03001627_8_gray.jpg,Stimuli/canonical view 2/img_n02883344_0_gray.jpg,random,left,Experiments/experiment_19/336.jpg,Experiments/experiment_19/337.jpg,Experiments/experiment_19/338.jpg,Experiments/experiment_19/339.jpg,815,1,2023-06-28_13h38.13.367,Occlusion_Psychophysics,2022.1.4,MacIntel,60.0024001,,,right,"[""right""]",[1.0847000000029539],False,,0.0,0.0,84.0,84.0,84.0,1.0,,,,,,
,,,,,,,,,,,,,,,,,,,,,0.025,,,,,,,,,,Stimuli/psy_flexible_rotation_30_objects_occ0.7_0.9s/images/train/n04405907_9/n02933112_4/img_vray_004_buffet_2008_gray.jpg,n04405907_9,n02933112_4,flexible,0.870615,n03928116_4,Stimuli/psy_flexible_rotation_30_objects_occ0.7_0.9s/images/train/n02883344_0/n03928116_4/img_b03_box_dp_33_b_2013__vray_2005-3_gray.png,random,flexible,n04405907_9,n04379243_0,Stimuli/canonical view 2/img_n04405907_9_gray.jpg,Stimuli/canonical view 2/img_n04379243_0_gray.jpg,random,right,Experiments/experiment_19/340.jpg,Experiments/experiment_19/341.jpg,Experiments/experiment_19/342.jpg,Experiments/experiment_19/343.jpg,815,1,2023-06-28_13h38.13.367,Occlusion_Psychophysics,2022.1.4,MacIntel,60.0024001,,,left,"[""left""]",[0.6420999999940022],False,,0.0,0.0,85.0,85.0,85.0,1.0,,,,,,
,,,,,,,,,,,,,,,,,,,,,0.025,,,,,,,,,,Stimuli/psy_fixed_rotation_30_objects_occ0.7_0.9s/images/train/n02933112_-18/n04379243_-7/img_cgaxis_models_48_26_vray_composite_quatre_dining_table_2010_gray.jpg,n02933112_-18,n04379243_-7,fixed,0.816658,n04379243_-7,Stimuli/psy_fixed_rotation_30_objects_occ0.7_0.9s/images/train/n02933112_-18/n04379243_-7/img_cgaxis_models_48_26_vray_composite_quatre_dining_table_2010-3_gray.png,foreground,same as foreground,n02933112_-18,n04379243_-7,Stimuli/canonical view 2/img_n02933112_-18_gray.jpg,Stimuli/canonical view 2/img_n04379243_-7_gray.jpg,foreground,left,Experiments/experiment_19/344.jpg,Experiments/experiment_19/345.jpg,Experiments/experiment_19/346.jpg,Experiments/experiment_19/347.jpg,815,1,2023-06-28_13h38.13.367,Occlusion_Psychophysics,2022.1.4,MacIntel,60.0024001,,,right,"[""right""]",[1.1583999999910475],False,,0.0,0.0,86.0,86.0,86.0,1.0,,,,,,
,,,,,,,,,,,,,,,,,,,,,0.05,,,,,,,,,,Stimuli/psy_fixed_rotation_30_objects_occ0.7_0.9s/images/train/n03001627_-2/n02818832_9/img_wood_chair_bed01_blue_2003_gray.jpg,n03001627_-2,n02818832_9,fixed,0.701553,n02818832_9,Stimuli/psy_fixed_rotation_30_objects_occ0.7_0.9s/images/train/n03001627_-2/n02818832_9/img_wood_chair_bed01_blue_2003-3_gray.png,foreground,same as foreground,n03001627_-2,n02818832_9,Stimuli/canonical view 2/img_n03001627_-2_gray.jpg,Stimuli/canonical view 2/img_n02818832_9_gray.jpg,foreground,left,Experiments/experiment_19/348.jpg,Experiments/experiment_19/349.jpg,Experiments/experiment_19/350.jpg,Experiments/experiment_19/351.jpg,815,1,2023-06-28_13h38.13.367,Occlusion_Psychophysics,2022.1.4,MacIntel,60.0024001,,,left,"[""left""]",[1.2584000000059632],False,,0.0,0.0,87.0,87.0,87.0,1.0,,,,,,
,,,,,,,,,,,,,,,,,,,,,0.05,,,,,,,,,,Stimuli/psy_flexible_rotation_30_objects_occ0.7_0.9s/images/train/n02818832_0/n02933112_-2/img_b03_the_sofa_and_chair_company_-_stanley_bed_2014_sink_base_white_wood_2005_gray.jpg,n02818832_0,n02933112_-2,flexible,0.756984,n02933112_-2,Stimuli/psy_flexible_rotation_30_objects_occ0.7_0.9s/images/train/n02818832_0/n02933112_-2/img_b03_the_sofa_and_chair_company_-_stanley_bed_2014_sink_base_white_wood_2005-3_gray.png,foreground,same as foreground,n02818832_0,n02933112_-2,Stimuli/canonical view 2/img_n02818832_0_gray.jpg,Stimuli/canonical view 2/img_n02933112_-2_gray.jpg,foreground,right,Experiments/experiment_19/352.jpg,Experiments/experiment_19/353.jpg,Experiments/experiment_19/354.jpg,Experiments/experiment_19/355.jpg,815,1,2023-06-28_13h38.13.367,Occlusion_Psychophysics,2022.1.4,MacIntel,60.0024001,,,right,"[""right""]",[0.8059000000059768],False,,0.0,0.0,88.0,88.0,88.0,1.0,,,,,,
,,,,,,,,,,,,,,,,,,,,,0.025,,,,,,,,,,Stimuli/psy_flexible_rotation_30_objects_occ0.7_0.9s/images/train/n02883344_0/n04379243_0/img_b03_box_17th_c._monastery_dining_table_2010_2012_gray.jpg,n02883344_0,n04379243_0,flexible,0.794416,n02828884_3,Stimuli/psy_flexible_rotation_30_objects_occ0.7_0.9s/images/train/n02818832_9/n02828884_3/img_bed01_blue_b04_wood_metal_park_bench_2009-3_gray.png,random,flexible,n02883344_0,n04405907_9,Stimuli/canonical view 2/img_n02883344_0_gray.jpg,Stimuli/canonical view 2/img_n04405907_9_gray.jpg,random,right,Experiments/experiment_19/356.jpg,Experiments/experiment_19/357.jpg,Experiments/experiment_19/358.jpg,Experiments/experiment_19/359.jpg,815,1,2023-06-28_13h38.13.367,Occlusion_Psychophysics,2022.1.4,MacIntel,60.0024001,,,right,"[""right""]",[0.9401000000090107],False,,0.0,0.0,89.0,89.0,89.0,1.0,,,,,,
,,,,,,,,,,,,,,,,,,,,,0.025,,,,,,,,,,Stimuli/psy_fixed_rotation_30_objects_occ0.7_0.9s/images/train/n04256520_9/n03928116_4/img_napoleon_iii_sofa_dp_33_b_2013__vray_2007_gray.jpg,n04256520_9,n03928116_4,fixed,0.739255,n03928116_4,Stimuli/psy_fixed_rotation_30_objects_occ0.7_0.9s/images/train/n04256520_9/n03928116_4/img_napoleon_iii_sofa_dp_33_b_2013__vray_2007-3_gray.png,foreground,same as foreground,n04256520_9,n02933112_-2,Stimuli/canonical view 2/img_n04256520_9_gray.jpg,Stimuli/canonical view 2/img_n02933112_-2_gray.jpg,random,right,Experiments/experiment_19/360.jpg,Experiments/experiment_19/361.jpg,Experiments/experiment_19/362.jpg,Experiments/experiment_19/363.jpg,815,1,2023-06-28_13h38.13.367,Occlusion_Psychophysics,2022.1.4,MacIntel,60.0024001,,,right,"[""left""]",[0.9902000000029147],False,,0.0,0.0,90.0,90.0,90.0,1.0,,,,,,
,,,,,,,,,,,,,,,,,,,,,0.025,,,,,,,,,,Stimuli/psy_fixed_rotation_30_objects_occ0.7_0.9s/images/train/n04256520_4/n02883344_0/img_club_house_italia_nautilus_sofa_b03_box_2005_gray.jpg,n04256520_4,n02883344_0,fixed,0.779001,n02883344_0,Stimuli/psy_fixed_rotation_30_objects_occ0.7_0.9s/images/train/n04256520_4/n02883344_0/img_club_house_italia_nautilus_sofa_b03_box_2005-3_gray.png,foreground,same as foreground,n04256520_4,n02883344_0,Stimuli/canonical view 2/img_n04256520_4_gray.jpg,Stimuli/canonical view 2/img_n02883344_0_gray.jpg,foreground,left,Experiments/experiment_19/364.jpg,Experiments/experiment_19/365.jpg,Experiments/experiment_19/366.jpg,Experiments/experiment_19/367.jpg,815,1,2023-06-28_13h38.13.367,Occlusion_Psychophysics,2022.1.4,MacIntel,60.0024001,,,left,"[""right""]",[1.1464000000059968],True,right,1.0,0.0,91.0,91.0,91.0,1.0,0.8198,,,,,
,,,,,,,,,,,,,,,,,,,,,0.025,,,,,,,,,,Stimuli/psy_fixed_rotation_30_objects_occ0.7_0.9s/images/train/n03928116_10/n03928116_0/img_ydp_103_r_2012__vray_b02_piano_2000_gray.jpg,n03928116_10,n03928116_0,fixed,0.700246,n03928116_0,Stimuli/psy_fixed_rotation_30_objects_occ0.7_0.9s/images/train/n03928116_10/n03928116_0/img_ydp_103_r_2012__vray_b02_piano_2000-3_gray.png,foreground,same as foreground,n03928116_10,n03928116_0,Stimuli/canonical view 2/img_n03928116_10_gray.jpg,Stimuli/canonical view 2/img_n03928116_0_gray.jpg,foreground,left,Experiments/experiment_19/368.jpg,Experiments/experiment_19/369.jpg,Experiments/experiment_19/370.jpg,Experiments/experiment_19/371.jpg,815,1,2023-06-28_13h38.13.367,Occlusion_Psychophysics,2022.1.4,MacIntel,60.0024001,,,left,"[""left""]",[1.0539999999999736],False,,0.0,0.0,92.0,92.0,92.0,1.0,,,,,,
,,,,,,,,,,,,,,,,,,,,,0.05,,,,,,,,,,Stimuli/psy_flexible_rotation_30_objects_occ0.7_0.9s/images/train/n02933112_-2/n02818832_9/img_sink_base_white_wood_bed01_blue_2012_gray.jpg,n02933112_-2,n02818832_9,flexible,0.735654,n03928116_10,Stimuli/psy_flexible_rotation_30_objects_occ0.7_0.9s/images/train/n02828884_3/n03928116_10/img_b04_wood_metal_park_bench_ydp_103_r_2012__vray_2001-3_gray.png,random,flexible,n02933112_-2,n02818832_9,Stimuli/canonical view 2/img_n02933112_-2_gray.jpg,Stimuli/canonical view 2/img_n02818832_9_gray.jpg,foreground,left,Experiments/experiment_19/372.jpg,Experiments/experiment_19/373.jpg,Experiments/experiment_19/374.jpg,Experiments/experiment_19/375.jpg,815,1,2023-06-28_13h38.13.367,Occlusion_Psychophysics,2022.1.4,MacIntel,60.0024001,,,left,"[""right""]",[1.0289999999999964],False,,0.0,0.0,93.0,93.0,93.0,1.0,,,,,,
,,,,,,,,,,,,,,,,,,,,,0.05,,,,,,,,,,Stimuli/psy_fixed_rotation_30_objects_occ0.7_0.9s/images/train/n04379243_-7/n02818832_0/img_quatre_dining_table_b03_the_sofa_and_chair_company_-_stanley_bed_2014_2009_gray.jpg,n04379243_-7,n02818832_0,fixed,0.725579,n02818832_0,Stimuli/psy_fixed_rotation_30_objects_occ0.7_0.9s/images/train/n04379243_-7/n02818832_0/img_quatre_dining_table_b03_the_sofa_and_chair_company_-_stanley_bed_2014_2009-3_gray.png,foreground,same as foreground,n04379243_-7,n02818832_0,Stimuli/canonical view 2/img_n04379243_-7_gray.jpg,Stimuli/canonical view 2/img_n02818832_0_gray.jpg,foreground,left,Experiments/experiment_19/376.jpg,Experiments/experiment_19/377.jpg,Experiments/experiment_19/378.jpg,Experiments/experiment_19/379.jpg,815,1,2023-06-28_13h38.13.367,Occlusion_Psychophysics,2022.1.4,MacIntel,60.0024001,,,right,"[""left""]",[1.0571000000089725],False,,0.0,0.0,94.0,94.0,94.0,1.0,,,,,,
,,,,,,,,,,,,,,,,,,,,,0.05,,,,,,,,,,Stimuli/psy_fixed_rotation_30_objects_occ0.7_0.9s/images/train/n04405907_9/n02818832_3/img_vray_004_b05_ccm_contemporary_bed_max2013_2015_gray.jpg,n04405907_9,n02818832_3,fixed,0.819007,n02883344_15,Stimuli/psy_flexible_rotation_30_objects_occ0.7_0.9s/images/train/n02883344_-1/n02883344_15/img_woven_box_microwave_box_2010-3_gray.png,random,flexible,n04405907_9,n02818832_3,Stimuli/canonical view 2/img_n04405907_9_gray.jpg,Stimuli/canonical view 2/img_n02818832_3_gray.jpg,foreground,left,Experiments/experiment_19/380.jpg,Experiments/experiment_19/381.jpg,Experiments/experiment_19/382.jpg,Experiments/experiment_19/383.jpg,815,1,2023-06-28_13h38.13.367,Occlusion_Psychophysics,2022.1.4,MacIntel,60.0024001,,,left,"[""left""]",[0.8668999999911193],False,,0.0,0.0,95.0,95.0,95.0,1.0,,,,,,
,,,,,,,,,,,,,,,,,,,,,0.025,,,,,,,,,,Stimuli/psy_flexible_rotation_30_objects_occ0.7_0.9s/images/train/n02883344_15/n02933112_4/img_microwave_box_buffet_2004_gray.jpg,n02883344_15,n02933112_4,flexible,0.724959,n02818832_9,Stimuli/psy_fixed_rotation_30_objects_occ0.7_0.9s/images/train/n02828884_3/n02818832_9/img_b04_wood_metal_park_bench_bed01_blue_2002-3_gray.png,random,fixed,n02883344_15,n02933112_4,Stimuli/canonical view 2/img_n02883344_15_gray.jpg,Stimuli/canonical view 2/img_n02933112_4_gray.jpg,foreground,right,Experiments/experiment_19/384.jpg,Experiments/experiment_19/385.jpg,Experiments/experiment_19/386.jpg,Experiments/experiment_19/387.jpg,815,1,2023-06-28_13h38.13.367,Occlusion_Psychophysics,2022.1.4,MacIntel,60.0024001,,,left,"[""right""]",[1.3720999999941341],False,,0.0,0.0,96.0,96.0,96.0,1.0,,,,,,
,,,,,,,,,,,,,,,,,,,,,0.025,,,,,,,,,,Stimuli/psy_flexible_rotation_30_objects_occ0.7_0.9s/images/train/n03001627_9/n04256520_5/img_chair_eames_plastic_armchair_meridiani_belmondo_bench_sofa_2010_gray.jpg,n03001627_9,n04256520_5,flexible,0.709169,n04405907_5,Stimuli/psy_fixed_rotation_30_objects_occ0.7_0.9s/images/train/n03001627_9/n04405907_5/img_chair_eames_plastic_armchair_samsung_40_uhd_smart_tv_2011_2009-3_gray.png,random,fixed,n03001627_9,n04256520_5,Stimuli/canonical view 2/img_n03001627_9_gray.jpg,Stimuli/canonical view 2/img_n04256520_5_gray.jpg,foreground,left,Experiments/experiment_19/388.jpg,Experiments/experiment_19/389.jpg,Experiments/experiment_19/390.jpg,Experiments/experiment_19/391.jpg,815,1,2023-06-28_13h38.13.367,Occlusion_Psychophysics,2022.1.4,MacIntel,60.0024001,,,left,"[""left""]",[1.0382999999969797],False,,0.0,0.0,97.0,97.0,97.0,1.0,,,,,,
,,,,,,,,,,,,,,,,,,,,,0.025,,,,,,,,,,Stimuli/psy_flexible_rotation_30_objects_occ0.7_0.9s/images/train/n04379243_8/n02933112_-2/img_glass_table_sink_base_white_wood_2012_gray.jpg,n04379243_8,n02933112_-2,flexible,0.792462,n04405907_8,Stimuli/psy_flexible_rotation_30_objects_occ0.7_0.9s/images/train/n02828884_3/n04405907_8/img_b04_wood_metal_park_bench_stylized_tv_2004-3_gray.png,random,flexible,n04379243_8,n02933112_-2,Stimuli/canonical view 2/img_n04379243_8_gray.jpg,Stimuli/canonical view 2/img_n02933112_-2_gray.jpg,foreground,left,Experiments/experiment_19/392.jpg,Experiments/experiment_19/393.jpg,Experiments/experiment_19/394.jpg,Experiments/experiment_19/395.jpg,815,1,2023-06-28_13h38.13.367,Occlusion_Psychophysics,2022.1.4,MacIntel,60.0024001,,,left,"[""left""]",[1.069599999994125],False,,0.0,0.0,98.0,98.0,98.0,1.0,,,,,,
,,,,,,,,,,,,,,,,,,,,,0.05,,,,,,,,,,Stimuli/psy_fixed_rotation_30_objects_occ0.7_0.9s/images/train/n04405907_5/n02818832_9/img_samsung_40_uhd_smart_tv_2011_bed01_blue_2005_gray.jpg,n04405907_5,n02818832_9,fixed,0.762628,n03001627_-2,Stimuli/psy_flexible_rotation_30_objects_occ0.7_0.9s/images/train/n04256520_4/n03001627_-2/img_club_house_italia_nautilus_sofa_wood_chair_2003-3_gray.png,random,flexible,n04405907_5,n02818832_9,Stimuli/canonical view 2/img_n04405907_5_gray.jpg,Stimuli/canonical view 2/img_n02818832_9_gray.jpg,foreground,left,Experiments/experiment_19/396.jpg,Experiments/experiment_19/397.jpg,Experiments/experiment_19/398.jpg,Experiments/experiment_19/399.jpg,815,1,2023-06-28_13h38.13.367,Occlusion_Psychophysics,2022.1.4,MacIntel,60.0024001,,,left,"[""right""]",[0.7577999999970189],False,,0.0,0.0,99.0,99.0,99.0,1.0,,,,,,
,,,,,,,,,,,,,,,,,,,,,,,,,,,,,,,,,,,,,,,,,,,,,,,,,,815,1,2023-06-28_13h38.13.367,Occlusion_Psychophysics,2022.1.4,MacIntel,60.0024001,,,,,,,,,,,,,,,0.0,0.0,0.0,0.0,1.0
,,,,,,,,,,,,,,,,,,,,,0.05,,,,,,,,,,Stimuli/psy_fixed_rotation_30_objects_occ0.7_0.9s/images/train/n04256520_9/n02933112_4/img_napoleon_iii_sofa_buffet_2009_gray.jpg,n04256520_9,n02933112_4,fixed,0.721639,n02933112_4,Stimuli/psy_fixed_rotation_30_objects_occ0.7_0.9s/images/train/n04256520_9/n02933112_4/img_napoleon_iii_sofa_buffet_2009-3_gray.png,foreground,same as foreground,n04256520_9,n02933112_4,Stimuli/canonical view 2/img_n04256520_9_gray.jpg,Stimuli/canonical view 2/img_n02933112_4_gray.jpg,foreground,left,Experiments/experiment_19/400.jpg,Experiments/experiment_19/401.jpg,Experiments/experiment_19/402.jpg,Experiments/experiment_19/403.jpg,815,1,2023-06-28_13h38.13.367,Occlusion_Psychophysics,2022.1.4,MacIntel,60.0024001,,,right,"[""right""]",[0.8422999999969534],False,,0.0,0.0,0.0,0.0,0.0,1.0,,,,,,
,,,,,,,,,,,,,,,,,,,,,0.025,,,,,,,,,,Stimuli/psy_fixed_rotation_30_objects_occ0.7_0.9s/images/train/n04379243_-7/n04405907_5/img_quatre_dining_table_samsung_40_uhd_smart_tv_2011_2008_gray.jpg,n04379243_-7,n04405907_5,fixed,0.744448,n04405907_5,Stimuli/psy_fixed_rotation_30_objects_occ0.7_0.9s/images/train/n04379243_-7/n04405907_5/img_quatre_dining_table_samsung_40_uhd_smart_tv_2011_2008-3_gray.png,foreground,same as foreground,n04379243_-7,n02818832_0,Stimuli/canonical view 2/img_n04379243_-7_gray.jpg,Stimuli/canonical view 2/img_n02818832_0_gray.jpg,random,right,Experiments/experiment_19/404.jpg,Experiments/experiment_19/405.jpg,Experiments/experiment_19/406.jpg,Experiments/experiment_19/407.jpg,815,1,2023-06-28_13h38.13.367,Occlusion_Psychophysics,2022.1.4,MacIntel,60.0024001,,,left,"[""right""]",[1.2899000000059004],False,,0.0,0.0,1.0,1.0,1.0,1.0,,,,,,
,,,,,,,,,,,,,,,,,,,,,0.05,,,,,,,,,,Stimuli/psy_fixed_rotation_30_objects_occ0.7_0.9s/images/train/n02933112_-18/n04405907_8/img_cgaxis_models_48_26_vray_composite_stylized_tv_2005_gray.jpg,n02933112_-18,n04405907_8,fixed,0.86086,n04405907_8,Stimuli/psy_fixed_rotation_30_objects_occ0.7_0.9s/images/train/n02933112_-18/n04405907_8/img_cgaxis_models_48_26_vray_composite_stylized_tv_2005-3_gray.png,foreground,same as foreground,n02933112_-18,n02883344_0,Stimuli/canonical view 2/img_n02933112_-18_gray.jpg,Stimuli/canonical view 2/img_n02883344_0_gray.jpg,random,right,Experiments/experiment_19/408.jpg,Experiments/experiment_19/409.jpg,Experiments/experiment_19/410.jpg,Experiments/experiment_19/411.jpg,815,1,2023-06-28_13h38.13.367,Occlusion_Psychophysics,2022.1.4,MacIntel,60.0024001,,,left,"[""right""]",[0.7059000000059541],False,,0.0,0.0,2.0,2.0,2.0,1.0,,,,,,
,,,,,,,,,,,,,,,,,,,,,0.025,,,,,,,,,,Stimuli/psy_flexible_rotation_30_objects_occ0.7_0.9s/images/train/n03001627_9/n04256520_9/img_chair_eames_plastic_armchair_napoleon_iii_sofa_2005_gray.jpg,n03001627_9,n04256520_9,flexible,0.758808,n02828884_3,Stimuli/psy_flexible_rotation_30_objects_occ0.7_0.9s/images/train/n03928116_10/n02828884_3/img_ydp_103_r_2012__vray_b04_wood_metal_park_bench_2002-3_gray.png,random,flexible,n03001627_9,n03928116_0,Stimuli/canonical view 2/img_n03001627_9_gray.jpg,Stimuli/canonical view 2/img_n03928116_0_gray.jpg,random,right,Experiments/experiment_19/412.jpg,Experiments/experiment_19/413.jpg,Experiments/experiment_19/414.jpg,Experiments/experiment_19/415.jpg,815,1,2023-06-28_13h38.13.367,Occlusion_Psychophysics,2022.1.4,MacIntel,60.0024001,,,right,"[""left""]",[1.1057000000030257],False,,0.0,0.0,3.0,3.0,3.0,1.0,,,,,,
,,,,,,,,,,,,,,,,,,,,,0.025,,,,,,,,,,Stimuli/psy_flexible_rotation_30_objects_occ0.7_0.9s/images/train/n04379243_0/n02818832_9/img_17th_c._monastery_dining_table_2010_bed01_blue_2010_gray.jpg,n04379243_0,n02818832_9,flexible,0.71871,n02818832_9,Stimuli/psy_flexible_rotation_30_objects_occ0.7_0.9s/images/train/n04379243_0/n02818832_9/img_17th_c._monastery_dining_table_2010_bed01_blue_2010-3_gray.png,foreground,same as foreground,n04379243_0,n02883344_-1,Stimuli/canonical view 2/img_n04379243_0_gray.jpg,Stimuli/canonical view 2/img_n02883344_-1_gray.jpg,random,right,Experiments/experiment_19/416.jpg,Experiments/experiment_19/417.jpg,Experiments/experiment_19/418.jpg,Experiments/experiment_19/419.jpg,815,1,2023-06-28_13h38.13.367,Occlusion_Psychophysics,2022.1.4,MacIntel,60.0024001,,,left,"[""left""]",[1.2714999999999463],False,,0.0,0.0,4.0,4.0,4.0,1.0,,,,,,
,,,,,,,,,,,,,,,,,,,,,0.05,,,,,,,,,,Stimuli/psy_flexible_rotation_30_objects_occ0.7_0.9s/images/train/n04405907_5/n04405907_9/img_samsung_40_uhd_smart_tv_2011_vray_004_2009_gray.jpg,n04405907_5,n04405907_9,flexible,0.767718,n04405907_9,Stimuli/psy_flexible_rotation_30_objects_occ0.7_0.9s/images/train/n04405907_5/n04405907_9/img_samsung_40_uhd_smart_tv_2011_vray_004_2009-3_gray.png,foreground,same as foreground,n04405907_5,n04405907_9,Stimuli/canonical view 2/img_n04405907_5_gray.jpg,Stimuli/canonical view 2/img_n04405907_9_gray.jpg,foreground,left,Experiments/experiment_19/420.jpg,Experiments/experiment_19/421.jpg,Experiments/experiment_19/422.jpg,Experiments/experiment_19/423.jpg,815,1,2023-06-28_13h38.13.367,Occlusion_Psychophysics,2022.1.4,MacIntel,60.0024001,,,left,"[""right""]",[0.7698999999910257],False,,0.0,0.0,5.0,5.0,5.0,1.0,,,,,,
,,,,,,,,,,,,,,,,,,,,,0.025,,,,,,,,,,Stimuli/psy_fixed_rotation_30_objects_occ0.7_0.9s/images/train/n02883344_-1/n04379243_-7/img_woven_box_quatre_dining_table_2015_gray.jpg,n02883344_-1,n04379243_-7,fixed,0.754877,n04379243_-7,Stimuli/psy_fixed_rotation_30_objects_occ0.7_0.9s/images/train/n02883344_-1/n04379243_-7/img_woven_box_quatre_dining_table_2015-3_gray.png,foreground,same as foreground,n02883344_-1,n04379243_-7,Stimuli/canonical view 2/img_n02883344_-1_gray.jpg,Stimuli/canonical view 2/img_n04379243_-7_gray.jpg,foreground,right,Experiments/experiment_19/424.jpg,Experiments/experiment_19/425.jpg,Experiments/experiment_19/426.jpg,Experiments/experiment_19/427.jpg,815,1,2023-06-28_13h38.13.367,Occlusion_Psychophysics,2022.1.4,MacIntel,60.0024001,,,left,"[""left""]",[0.8907999999969434],False,,0.0,0.0,6.0,6.0,6.0,1.0,,,,,,
,,,,,,,,,,,,,,,,,,,,,0.05,,,,,,,,,,Stimuli/psy_fixed_rotation_30_objects_occ0.7_0.9s/images/train/n02818832_3/n04256520_4/img_b05_ccm_contemporary_bed_max2013_club_house_italia_nautilus_sofa_2008_gray.jpg,n02818832_3,n04256520_4,fixed,0.735897,n04256520_4,Stimuli/psy_fixed_rotation_30_objects_occ0.7_0.9s/images/train/n02818832_3/n04256520_4/img_b05_ccm_contemporary_bed_max2013_club_house_italia_nautilus_sofa_2008-3_gray.png,foreground,same as foreground,n02818832_3,n04256520_4,Stimuli/canonical view 2/img_n02818832_3_gray.jpg,Stimuli/canonical view 2/img_n04256520_4_gray.jpg,foreground,right,Experiments/experiment_19/428.jpg,Experiments/experiment_19/429.jpg,Experiments/experiment_19/430.jpg,Experiments/experiment_19/431.jpg,815,1,2023-06-28_13h38.13.367,Occlusion_Psychophysics,2022.1.4,MacIntel,60.0024001,,,left,"[""left""]",[0.5978000000119437],False,,0.0,0.0,7.0,7.0,7.0,1.0,,,,,,
,,,,,,,,,,,,,,,,,,,,,0.05,,,,,,,,,,Stimuli/psy_fixed_rotation_30_objects_occ0.7_0.9s/images/train/n04405907_9/n02818832_3/img_vray_004_b05_ccm_contemporary_bed_max2013_2013_gray.jpg,n04405907_9,n02818832_3,fixed,0.703319,n04405907_8,Stimuli/psy_fixed_rotation_30_objects_occ0.7_0.9s/images/train/n04070727_3/n04405907_8/img_b05_db_apps_tech_06_02_2_composite_stylized_tv_2014-3_gray.png,random,fixed,n04405907_9,n02818832_3,Stimuli/canonical view 2/img_n04405907_9_gray.jpg,Stimuli/canonical view 2/img_n02818832_3_gray.jpg,foreground,left,Experiments/experiment_19/432.jpg,Experiments/experiment_19/433.jpg,Experiments/experiment_19/434.jpg,Experiments/experiment_19/435.jpg,815,1,2023-06-28_13h38.13.367,Occlusion_Psychophysics,2022.1.4,MacIntel,60.0024001,,,right,"[""right""]",[0.6233999999910793],False,,0.0,0.0,8.0,8.0,8.0,1.0,,,,,,
,,,,,,,,,,,,,,,,,,,,,0.05,,,,,,,,,,Stimuli/psy_fixed_rotation_30_objects_occ0.7_0.9s/images/train/n04256520_4/n04405907_5/img_club_house_italia_nautilus_sofa_samsung_40_uhd_smart_tv_2011_2009_gray.jpg,n04256520_4,n04405907_5,fixed,0.873103,n04405907_5,Stimuli/psy_fixed_rotation_30_objects_occ0.7_0.9s/images/train/n04256520_4/n04405907_5/img_club_house_italia_nautilus_sofa_samsung_40_uhd_smart_tv_2011_2009-3_gray.png,foreground,same as foreground,n04256520_4,n04405907_8,Stimuli/canonical view 2/img_n04256520_4_gray.jpg,Stimuli/canonical view 2/img_n04405907_8_gray.jpg,random,left,Experiments/experiment_19/436.jpg,Experiments/experiment_19/437.jpg,Experiments/experiment_19/438.jpg,Experiments/experiment_19/439.jpg,815,1,2023-06-28_13h38.13.367,Occlusion_Psychophysics,2022.1.4,MacIntel,60.0024001,,,left,"[""right""]",[1.1665999999939913],False,,0.0,0.0,9.0,9.0,9.0,1.0,,,,,,
,,,,,,,,,,,,,,,,,,,,,0.05,,,,,,,,,,Stimuli/psy_flexible_rotation_30_objects_occ0.7_0.9s/images/train/n02883344_15/n03928116_4/img_microwave_box_dp_33_b_2013__vray_2007_gray.jpg,n02883344_15,n03928116_4,flexible,0.716814,n03928116_4,Stimuli/psy_flexible_rotation_30_objects_occ0.7_0.9s/images/train/n02883344_15/n03928116_4/img_microwave_box_dp_33_b_2013__vray_2007-3_gray.png,foreground,same as foreground,n02883344_15,n03928116_4,Stimuli/canonical view 2/img_n02883344_15_gray.jpg,Stimuli/canonical view 2/img_n03928116_4_gray.jpg,foreground,left,Experiments/experiment_19/440.jpg,Experiments/experiment_19/441.jpg,Experiments/experiment_19/442.jpg,Experiments/experiment_19/443.jpg,815,1,2023-06-28_13h38.13.367,Occlusion_Psychophysics,2022.1.4,MacIntel,60.0024001,,,left,"[""left""]",[0.9887999999970134],False,,0.0,0.0,10.0,10.0,10.0,1.0,,,,,,
,,,,,,,,,,,,,,,,,,,,,0.025,,,,,,,,,,Stimuli/psy_fixed_rotation_30_objects_occ0.7_0.9s/images/train/n04379243_-7/n04379243_0/img_quatre_dining_table_17th_c._monastery_dining_table_2010_2009_gray.jpg,n04379243_-7,n04379243_0,fixed,0.711903,n04379243_0,Stimuli/psy_fixed_rotation_30_objects_occ0.7_0.9s/images/train/n04379243_-7/n04379243_0/img_quatre_dining_table_17th_c._monastery_dining_table_2010_2009-3_gray.png,foreground,same as foreground,n04379243_-7,n04405907_8,Stimuli/canonical view 2/img_n04379243_-7_gray.jpg,Stimuli/canonical view 2/img_n04405907_8_gray.jpg,random,right,Experiments/experiment_19/444.jpg,Experiments/experiment_19/445.jpg,Experiments/experiment_19/446.jpg,Experiments/experiment_19/447.jpg,815,1,2023-06-28_13h38.13.367,Occlusion_Psychophysics,2022.1.4,MacIntel,60.0024001,,,right,"[""right""]",[1.0834999999999582],False,,0.0,0.0,11.0,11.0,11.0,1.0,,,,,,
,,,,,,,,,,,,,,,,,,,,,0.025,,,,,,,,,,Stimuli/psy_flexible_rotation_30_objects_occ0.7_0.9s/images/train/n04379243_8/n04405907_8/img_glass_table_stylized_tv_2005_gray.jpg,n04379243_8,n04405907_8,flexible,0.714121,n04405907_8,Stimuli/psy_flexible_rotation_30_objects_occ0.7_0.9s/images/train/n04379243_8/n04405907_8/img_glass_table_stylized_tv_2005-3_gray.png,foreground,same as foreground,n04379243_8,n04405907_8,Stimuli/canonical view 2/img_n04379243_8_gray.jpg,Stimuli/canonical view 2/img_n04405907_8_gray.jpg,foreground,left,Experiments/experiment_19/448.jpg,Experiments/experiment_19/449.jpg,Experiments/experiment_19/450.jpg,Experiments/experiment_19/451.jpg,815,1,2023-06-28_13h38.13.367,Occlusion_Psychophysics,2022.1.4,MacIntel,60.0024001,,,left,"[""left""]",[0.625],False,,0.0,0.0,12.0,12.0,12.0,1.0,,,,,,
,,,,,,,,,,,,,,,,,,,,,0.025,,,,,,,,,,Stimuli/psy_fixed_rotation_30_objects_occ0.7_0.9s/images/train/n04379243_-7/n02828884_3/img_quatre_dining_table_b04_wood_metal_park_bench_2002_gray.jpg,n04379243_-7,n02828884_3,fixed,0.87885,n02828884_3,Stimuli/psy_fixed_rotation_30_objects_occ0.7_0.9s/images/train/n04379243_-7/n02828884_3/img_quatre_dining_table_b04_wood_metal_park_bench_2002-3_gray.png,foreground,same as foreground,n04379243_-7,n02828884_3,Stimuli/canonical view 2/img_n04379243_-7_gray.jpg,Stimuli/canonical view 2/img_n02828884_3_gray.jpg,foreground,right,Experiments/experiment_19/452.jpg,Experiments/experiment_19/453.jpg,Experiments/experiment_19/454.jpg,Experiments/experiment_19/455.jpg,815,1,2023-06-28_13h38.13.367,Occlusion_Psychophysics,2022.1.4,MacIntel,60.0024001,,,left,"[""left""]",[0.8306999999880418],False,,0.0,0.0,13.0,13.0,13.0,1.0,,,,,,
