in_color,Instructions_key.keys,Instructions_key.rt,Tutorial_instruction_key.keys,Tutorial_instruction_key.rt,Tutorial_fixation_ley.keys,Tutorial_fixation_ley.rt,Tutorial_single_img_key.keys,Tutorial_single_img_key.rt,Tutorial_intra_trial_fixation_key.keys,Tutorial_intra_trial_fixation_key.rt,Tutorial_stimulus_key.keys,Tutorial_stimulus_key.rt,Tutorial_response_key.keys,Tutorial_response_key.rt,Tutorial_attention_check_key.keys,Tutorial_attention_check_key.rt,advance_or_repeat.keys,advance_or_repeat.rt,Practice_instructions_key.keys,Practice_instructions_key.rt,intra_trial_duration,Practice_key_response.keys,Practice_key_response.rt,Practice_react_key.keys,Practice_react_key.rt,Practice_loop.thisRepN,Practice_loop.thisTrialN,Practice_loop.thisN,Practice_loop.thisIndex,Practice_loop.ran,multi_object_filepath,background_id,foreground_id,multi_object_rotation,occlusion_level,single_object_id,single_object_filepath,single_is_foreground_or_random,single_object_rotation,background_choice_id,alt_choice_id,background_option_filepath,alternative_option_filepath,alternative_is_foreground_or_random,location_of_correct_answer,multi_object_exp_filename,single_object_exp_filename,background_option_exp_filename,alternative_option_exp_filename,participant,session,date,expName,psychopyVersion,OS,frameRate,Practice_end_key.keys,Practice_end_key.rt,correct_answer,Input_selection.keys,Input_selection.rt,Was_attention_check,Attention_check.keys,Attention_check.corr,Each_session_loop.thisRepN,Each_session_loop.thisTrialN,Each_session_loop.thisN,Each_session_loop.thisIndex,Each_session_loop.ran,Attention_check.rt,Num_sessions.thisRepN,Num_sessions.thisTrialN,Num_sessions.thisN,Num_sessions.thisIndex,Num_sessions.ran
False,space,153.561,space,6.984,space,6.851,space,8.204,space,3.817,space,26.032,space,60.623,space,16.564,a,16.07,space,10.374,0.025,right,3.415,r,7.184,0.0,0.0,0.0,0.0,1.0,Stimuli/psy_flexible_rotation_30_objects_occ0.7_0.9s/images/train/n02818832_9/n02933112_-18/img_bed01_blue_cgaxis_models_48_26_vray_composite_2009_gray.jpg,n02818832_9,n02933112_-18,flexible,0.759926,n02933112_-18,Stimuli/psy_flexible_rotation_30_objects_occ0.7_0.9s/images/train/n02818832_9/n02933112_-18/img_bed01_blue_cgaxis_models_48_26_vray_composite_2009-3_gray.png,foreground,same as foreground,n02818832_9,n02933112_-2,Stimuli/canonical view 2/img_n02818832_9_gray.jpg,Stimuli/canonical view 2/img_n02933112_-2_gray.jpg,random,right,Experiments/experiment_24/1000.jpg,Experiments/experiment_24/1001.jpg,Experiments/experiment_24/1002.jpg,Experiments/experiment_24/1003.jpg,892,1,2023-09-17_10h40.20.333,Occlusion_Psychophysics,2022.1.4,Win32,32,,,,,,,,,,,,,,,,,,,
,,,,,,,,,,,,,,,,,,,,,0.05,left,1.066,r,7.32,0.0,1.0,1.0,1.0,1.0,Stimuli/psy_flexible_rotation_30_objects_occ0.7_0.9s/images/train/n02818832_9/n02818832_0/img_bed01_blue_b03_the_sofa_and_chair_company_-_stanley_bed_2014_2001_gray.jpg,n02818832_9,n02818832_0,flexible,0.857527,n04379243_0,Stimuli/psy_fixed_rotation_30_objects_occ0.7_0.9s/images/train/n04405907_5/n04379243_0/img_samsung_40_uhd_smart_tv_2011_17th_c._monastery_dining_table_2010_2002-3_gray.png,random,fixed,n02818832_9,n02818832_3,Stimuli/canonical view 2/img_n02818832_9_gray.jpg,Stimuli/canonical view 2/img_n02818832_3_gray.jpg,random,left,Experiments/experiment_24/1004.jpg,Experiments/experiment_24/1005.jpg,Experiments/experiment_24/1006.jpg,Experiments/experiment_24/1007.jpg,892,1,2023-09-17_10h40.20.333,Occlusion_Psychophysics,2022.1.4,Win32,32,,,,,,,,,,,,,,,,,,,
,,,,,,,,,,,,,,,,,,,,,0.025,right,1.077,a,4.007,0.0,2.0,2.0,2.0,1.0,Stimuli/psy_flexible_rotation_30_objects_occ0.7_0.9s/images/train/n02818832_0/n02818832_3/img_b03_the_sofa_and_chair_company_-_stanley_bed_2014_b05_ccm_contemporary_bed_max2013_2001_gray.jpg,n02818832_0,n02818832_3,flexible,0.742135,n02883344_15,Stimuli/psy_flexible_rotation_30_objects_occ0.7_0.9s/images/train/n04405907_9/n02883344_15/img_vray_004_microwave_box_2002-3_gray.png,random,flexible,n02818832_0,n04405907_8,Stimuli/canonical view 2/img_n02818832_0_gray.jpg,Stimuli/canonical view 2/img_n04405907_8_gray.jpg,random,right,Experiments/experiment_24/1008.jpg,Experiments/experiment_24/1009.jpg,Experiments/experiment_24/1010.jpg,Experiments/experiment_24/1011.jpg,892,1,2023-09-17_10h40.20.333,Occlusion_Psychophysics,2022.1.4,Win32,32,,,,,,,,,,,,,,,,,,,
,,,,,,,,,,,,,,,,,,,,,0.05,,,,,,,,,,Stimuli/psy_flexible_rotation_30_objects_occ0.7_0.9s/images/train/n03928116_10/n02933112_4/img_ydp_103_r_2012__vray_buffet_2011_gray.jpg,n03928116_10,n02933112_4,flexible,0.803646,n02933112_4,Stimuli/psy_flexible_rotation_30_objects_occ0.7_0.9s/images/train/n03928116_10/n02933112_4/img_ydp_103_r_2012__vray_buffet_2011-3_gray.png,foreground,same as foreground,n03928116_10,n02933112_4,Stimuli/canonical view 2/img_n03928116_10_gray.jpg,Stimuli/canonical view 2/img_n02933112_4_gray.jpg,foreground,left,Experiments/experiment_24/0.jpg,Experiments/experiment_24/1.jpg,Experiments/experiment_24/2.jpg,Experiments/experiment_24/3.jpg,892,1,2023-09-17_10h40.20.333,Occlusion_Psychophysics,2022.1.4,Win32,32,space,6.712,right,"[""left""]",[1.1310000000000855],False,,0.0,0.0,0.0,0.0,0.0,1.0,,,,,,
,,,,,,,,,,,,,,,,,,,,,0.05,,,,,,,,,,Stimuli/psy_flexible_rotation_30_objects_occ0.7_0.9s/images/train/n02883344_15/n03001627_-2/img_microwave_box_wood_chair_2008_gray.jpg,n02883344_15,n03001627_-2,flexible,0.784618,n04405907_8,Stimuli/psy_fixed_rotation_30_objects_occ0.7_0.9s/images/train/n02818832_0/n04405907_8/img_b03_the_sofa_and_chair_company_-_stanley_bed_2014_stylized_tv_2009-3_gray.png,random,fixed,n02883344_15,n04256520_4,Stimuli/canonical view 2/img_n02883344_15_gray.jpg,Stimuli/canonical view 2/img_n04256520_4_gray.jpg,random,right,Experiments/experiment_24/4.jpg,Experiments/experiment_24/5.jpg,Experiments/experiment_24/6.jpg,Experiments/experiment_24/7.jpg,892,1,2023-09-17_10h40.20.333,Occlusion_Psychophysics,2022.1.4,Win32,32,,,left,"[""right""]",[1.3640000000000327],False,,0.0,0.0,1.0,1.0,1.0,1.0,,,,,,
,,,,,,,,,,,,,,,,,,,,,0.05,,,,,,,,,,Stimuli/psy_flexible_rotation_30_objects_occ0.7_0.9s/images/train/n02883344_15/n04405907_8/img_microwave_box_stylized_tv_2013_gray.jpg,n02883344_15,n04405907_8,flexible,0.827707,n02933112_-18,Stimuli/psy_fixed_rotation_30_objects_occ0.7_0.9s/images/train/n03001627_9/n02933112_-18/img_chair_eames_plastic_armchair_cgaxis_models_48_26_vray_composite_2001-3_gray.png,random,fixed,n02883344_15,n04405907_8,Stimuli/canonical view 2/img_n02883344_15_gray.jpg,Stimuli/canonical view 2/img_n04405907_8_gray.jpg,foreground,left,Experiments/experiment_24/8.jpg,Experiments/experiment_24/9.jpg,Experiments/experiment_24/10.jpg,Experiments/experiment_24/11.jpg,892,1,2023-09-17_10h40.20.333,Occlusion_Psychophysics,2022.1.4,Win32,32,,,right,"[""left""]",[1.1480000000000246],False,,0.0,0.0,2.0,2.0,2.0,1.0,,,,,,
,,,,,,,,,,,,,,,,,,,,,0.05,,,,,,,,,,Stimuli/psy_fixed_rotation_30_objects_occ0.7_0.9s/images/train/n02933112_4/n04405907_8/img_buffet_stylized_tv_2012_gray.jpg,n02933112_4,n04405907_8,fixed,0.735931,n03928116_0,Stimuli/psy_flexible_rotation_30_objects_occ0.7_0.9s/images/train/n03928116_10/n03928116_0/img_ydp_103_r_2012__vray_b02_piano_2001-3_gray.png,random,flexible,n02933112_4,n04405907_8,Stimuli/canonical view 2/img_n02933112_4_gray.jpg,Stimuli/canonical view 2/img_n04405907_8_gray.jpg,foreground,right,Experiments/experiment_24/12.jpg,Experiments/experiment_24/13.jpg,Experiments/experiment_24/14.jpg,Experiments/experiment_24/15.jpg,892,1,2023-09-17_10h40.20.333,Occlusion_Psychophysics,2022.1.4,Win32,32,,,left,"[""right""]",[1.177000000000021],False,,0.0,0.0,3.0,3.0,3.0,1.0,,,,,,
,,,,,,,,,,,,,,,,,,,,,0.025,,,,,,,,,,Stimuli/psy_fixed_rotation_30_objects_occ0.7_0.9s/images/train/n04256520_9/n04256520_4/img_napoleon_iii_sofa_club_house_italia_nautilus_sofa_2015_gray.jpg,n04256520_9,n04256520_4,fixed,0.722545,n04256520_4,Stimuli/psy_fixed_rotation_30_objects_occ0.7_0.9s/images/train/n04256520_9/n04256520_4/img_napoleon_iii_sofa_club_house_italia_nautilus_sofa_2015-3_gray.png,foreground,same as foreground,n04256520_9,n04379243_8,Stimuli/canonical view 2/img_n04256520_9_gray.jpg,Stimuli/canonical view 2/img_n04379243_8_gray.jpg,random,right,Experiments/experiment_24/16.jpg,Experiments/experiment_24/17.jpg,Experiments/experiment_24/18.jpg,Experiments/experiment_24/19.jpg,892,1,2023-09-17_10h40.20.333,Occlusion_Psychophysics,2022.1.4,Win32,32,,,right,"[""right""]",[1.615000000000009],False,,0.0,0.0,4.0,4.0,4.0,1.0,,,,,,
,,,,,,,,,,,,,,,,,,,,,0.05,,,,,,,,,,Stimuli/psy_fixed_rotation_30_objects_occ0.7_0.9s/images/train/n04256520_9/n02828884_3/img_napoleon_iii_sofa_b04_wood_metal_park_bench_2001_gray.jpg,n04256520_9,n02828884_3,fixed,0.877855,n02828884_3,Stimuli/psy_fixed_rotation_30_objects_occ0.7_0.9s/images/train/n04256520_9/n02828884_3/img_napoleon_iii_sofa_b04_wood_metal_park_bench_2001-3_gray.png,foreground,same as foreground,n04256520_9,n02828884_3,Stimuli/canonical view 2/img_n04256520_9_gray.jpg,Stimuli/canonical view 2/img_n02828884_3_gray.jpg,foreground,left,Experiments/experiment_24/20.jpg,Experiments/experiment_24/21.jpg,Experiments/experiment_24/22.jpg,Experiments/experiment_24/23.jpg,892,1,2023-09-17_10h40.20.333,Occlusion_Psychophysics,2022.1.4,Win32,32,,,left,"[""right""]",[1.0810000000000173],False,,0.0,0.0,5.0,5.0,5.0,1.0,,,,,,
,,,,,,,,,,,,,,,,,,,,,0.05,,,,,,,,,,Stimuli/psy_fixed_rotation_30_objects_occ0.7_0.9s/images/train/n04405907_8/n04379243_0/img_stylized_tv_17th_c._monastery_dining_table_2010_2012_gray.jpg,n04405907_8,n04379243_0,fixed,0.727298,n04379243_0,Stimuli/psy_fixed_rotation_30_objects_occ0.7_0.9s/images/train/n04405907_8/n04379243_0/img_stylized_tv_17th_c._monastery_dining_table_2010_2012-3_gray.png,foreground,same as foreground,n04405907_8,n03001627_9,Stimuli/canonical view 2/img_n04405907_8_gray.jpg,Stimuli/canonical view 2/img_n03001627_9_gray.jpg,random,right,Experiments/experiment_24/24.jpg,Experiments/experiment_24/25.jpg,Experiments/experiment_24/26.jpg,Experiments/experiment_24/27.jpg,892,1,2023-09-17_10h40.20.333,Occlusion_Psychophysics,2022.1.4,Win32,32,,,right,"[""left""]",[1.6789999999999736],False,,0.0,0.0,6.0,6.0,6.0,1.0,,,,,,
,,,,,,,,,,,,,,,,,,,,,0.05,,,,,,,,,,Stimuli/psy_flexible_rotation_30_objects_occ0.7_0.9s/images/train/n02883344_15/n02818832_9/img_microwave_box_bed01_blue_2006_gray.jpg,n02883344_15,n02818832_9,flexible,0.826069,n04256520_9,Stimuli/psy_fixed_rotation_30_objects_occ0.7_0.9s/images/train/n02933112_4/n04256520_9/img_buffet_napoleon_iii_sofa_2008-3_gray.png,random,fixed,n02883344_15,n02818832_9,Stimuli/canonical view 2/img_n02883344_15_gray.jpg,Stimuli/canonical view 2/img_n02818832_9_gray.jpg,foreground,left,Experiments/experiment_24/28.jpg,Experiments/experiment_24/29.jpg,Experiments/experiment_24/30.jpg,Experiments/experiment_24/31.jpg,892,1,2023-09-17_10h40.20.333,Occlusion_Psychophysics,2022.1.4,Win32,32,,,left,"[""right""]",[1.0230000000000246],False,,0.0,0.0,7.0,7.0,7.0,1.0,,,,,,
,,,,,,,,,,,,,,,,,,,,,0.025,,,,,,,,,,Stimuli/psy_flexible_rotation_30_objects_occ0.7_0.9s/images/train/n04405907_8/n04256520_4/img_stylized_tv_club_house_italia_nautilus_sofa_2002_gray.jpg,n04405907_8,n04256520_4,flexible,0.719151,n04256520_4,Stimuli/psy_flexible_rotation_30_objects_occ0.7_0.9s/images/train/n04405907_8/n04256520_4/img_stylized_tv_club_house_italia_nautilus_sofa_2002-3_gray.png,foreground,same as foreground,n04405907_8,n02883344_0,Stimuli/canonical view 2/img_n04405907_8_gray.jpg,Stimuli/canonical view 2/img_n02883344_0_gray.jpg,random,right,Experiments/experiment_24/32.jpg,Experiments/experiment_24/33.jpg,Experiments/experiment_24/34.jpg,Experiments/experiment_24/35.jpg,892,1,2023-09-17_10h40.20.333,Occlusion_Psychophysics,2022.1.4,Win32,32,,,left,"[""left""]",[0.9250000000000682],False,,0.0,0.0,8.0,8.0,8.0,1.0,,,,,,
,,,,,,,,,,,,,,,,,,,,,0.05,,,,,,,,,,Stimuli/psy_fixed_rotation_30_objects_occ0.7_0.9s/images/train/n04256520_9/n04405907_8/img_napoleon_iii_sofa_stylized_tv_2006_gray.jpg,n04256520_9,n04405907_8,fixed,0.773384,n04405907_8,Stimuli/psy_fixed_rotation_30_objects_occ0.7_0.9s/images/train/n04256520_9/n04405907_8/img_napoleon_iii_sofa_stylized_tv_2006-3_gray.png,foreground,same as foreground,n04256520_9,n04256520_4,Stimuli/canonical view 2/img_n04256520_9_gray.jpg,Stimuli/canonical view 2/img_n04256520_4_gray.jpg,random,right,Experiments/experiment_24/36.jpg,Experiments/experiment_24/37.jpg,Experiments/experiment_24/38.jpg,Experiments/experiment_24/39.jpg,892,1,2023-09-17_10h40.20.333,Occlusion_Psychophysics,2022.1.4,Win32,32,,,right,"[""left""]",[0.92999999999995],False,,0.0,0.0,9.0,9.0,9.0,1.0,,,,,,
,,,,,,,,,,,,,,,,,,,,,0.025,,,,,,,,,,Stimuli/psy_fixed_rotation_30_objects_occ0.7_0.9s/images/train/n03928116_0/n03001627_9/img_b02_piano_chair_eames_plastic_armchair_2006_gray.jpg,n03928116_0,n03001627_9,fixed,0.707363,n03001627_9,Stimuli/psy_fixed_rotation_30_objects_occ0.7_0.9s/images/train/n03928116_0/n03001627_9/img_b02_piano_chair_eames_plastic_armchair_2006-3_gray.png,foreground,same as foreground,n03928116_0,n03001627_9,Stimuli/canonical view 2/img_n03928116_0_gray.jpg,Stimuli/canonical view 2/img_n03001627_9_gray.jpg,foreground,left,Experiments/experiment_24/40.jpg,Experiments/experiment_24/41.jpg,Experiments/experiment_24/42.jpg,Experiments/experiment_24/43.jpg,892,1,2023-09-17_10h40.20.333,Occlusion_Psychophysics,2022.1.4,Win32,32,,,right,"[""right""]",[1.59699999999998],False,,0.0,0.0,10.0,10.0,10.0,1.0,,,,,,
,,,,,,,,,,,,,,,,,,,,,0.05,,,,,,,,,,Stimuli/psy_fixed_rotation_30_objects_occ0.7_0.9s/images/train/n04379243_-7/n04256520_4/img_quatre_dining_table_club_house_italia_nautilus_sofa_2006_gray.jpg,n04379243_-7,n04256520_4,fixed,0.715752,n02883344_0,Stimuli/psy_flexible_rotation_30_objects_occ0.7_0.9s/images/train/n03928116_10/n02883344_0/img_ydp_103_r_2012__vray_b03_box_2007-3_gray.png,random,flexible,n04379243_-7,n04405907_8,Stimuli/canonical view 2/img_n04379243_-7_gray.jpg,Stimuli/canonical view 2/img_n04405907_8_gray.jpg,random,right,Experiments/experiment_24/44.jpg,Experiments/experiment_24/45.jpg,Experiments/experiment_24/46.jpg,Experiments/experiment_24/47.jpg,892,1,2023-09-17_10h40.20.333,Occlusion_Psychophysics,2022.1.4,Win32,32,,,right,"[""left""]",[2.1200000000000045],False,,0.0,0.0,11.0,11.0,11.0,1.0,,,,,,
,,,,,,,,,,,,,,,,,,,,,0.025,,,,,,,,,,Stimuli/psy_flexible_rotation_30_objects_occ0.7_0.9s/images/train/n02883344_15/n04379243_-7/img_microwave_box_quatre_dining_table_2010_gray.jpg,n02883344_15,n04379243_-7,flexible,0.753517,n02818832_9,Stimuli/psy_fixed_rotation_30_objects_occ0.7_0.9s/images/train/n04070727_5/n02818832_9/img_b05_db_apps_tech_06_13_composite_bed01_blue_2003-3_gray.png,random,fixed,n02883344_15,n04379243_-7,Stimuli/canonical view 2/img_n02883344_15_gray.jpg,Stimuli/canonical view 2/img_n04379243_-7_gray.jpg,foreground,left,Experiments/experiment_24/48.jpg,Experiments/experiment_24/49.jpg,Experiments/experiment_24/50.jpg,Experiments/experiment_24/51.jpg,892,1,2023-09-17_10h40.20.333,Occlusion_Psychophysics,2022.1.4,Win32,32,,,right,"[""left""]",[1.1169999999999618],False,,0.0,0.0,12.0,12.0,12.0,1.0,,,,,,
,,,,,,,,,,,,,,,,,,,,,0.025,,,,,,,,,,Stimuli/psy_flexible_rotation_30_objects_occ0.7_0.9s/images/train/n02933112_-18/n02818832_9/img_cgaxis_models_48_26_vray_composite_bed01_blue_2006_gray.jpg,n02933112_-18,n02818832_9,flexible,0.736971,n02818832_9,Stimuli/psy_flexible_rotation_30_objects_occ0.7_0.9s/images/train/n02933112_-18/n02818832_9/img_cgaxis_models_48_26_vray_composite_bed01_blue_2006-3_gray.png,foreground,same as foreground,n02933112_-18,n02818832_9,Stimuli/canonical view 2/img_n02933112_-18_gray.jpg,Stimuli/canonical view 2/img_n02818832_9_gray.jpg,foreground,left,Experiments/experiment_24/52.jpg,Experiments/experiment_24/53.jpg,Experiments/experiment_24/54.jpg,Experiments/experiment_24/55.jpg,892,1,2023-09-17_10h40.20.333,Occlusion_Psychophysics,2022.1.4,Win32,32,,,right,"[""left""]",[1.274000000000001],False,,0.0,0.0,13.0,13.0,13.0,1.0,,,,,,
,,,,,,,,,,,,,,,,,,,,,0.025,,,,,,,,,,Stimuli/psy_fixed_rotation_30_objects_occ0.7_0.9s/images/train/n04405907_5/n04379243_0/img_samsung_40_uhd_smart_tv_2011_17th_c._monastery_dining_table_2010_2003_gray.jpg,n04405907_5,n04379243_0,fixed,0.706396,n04405907_5,Stimuli/psy_fixed_rotation_30_objects_occ0.7_0.9s/images/train/n02933112_-18/n04405907_5/img_cgaxis_models_48_26_vray_composite_samsung_40_uhd_smart_tv_2011_2009-3_gray.png,random,fixed,n04405907_5,n04379243_8,Stimuli/canonical view 2/img_n04405907_5_gray.jpg,Stimuli/canonical view 2/img_n04379243_8_gray.jpg,random,left,Experiments/experiment_24/56.jpg,Experiments/experiment_24/57.jpg,Experiments/experiment_24/58.jpg,Experiments/experiment_24/59.jpg,892,1,2023-09-17_10h40.20.333,Occlusion_Psychophysics,2022.1.4,Win32,32,,,left,"[""right""]",[0.9630000000000791],False,,0.0,0.0,14.0,14.0,14.0,1.0,,,,,,
,,,,,,,,,,,,,,,,,,,,,0.05,,,,,,,,,,Stimuli/psy_flexible_rotation_30_objects_occ0.7_0.9s/images/train/n04256520_5/n04405907_8/img_meridiani_belmondo_bench_sofa_stylized_tv_2002_gray.jpg,n04256520_5,n04405907_8,flexible,0.713332,n04405907_8,Stimuli/psy_flexible_rotation_30_objects_occ0.7_0.9s/images/train/n04256520_5/n04405907_8/img_meridiani_belmondo_bench_sofa_stylized_tv_2002-3_gray.png,foreground,same as foreground,n04256520_5,n04405907_8,Stimuli/canonical view 2/img_n04256520_5_gray.jpg,Stimuli/canonical view 2/img_n04405907_8_gray.jpg,foreground,right,Experiments/experiment_24/60.jpg,Experiments/experiment_24/61.jpg,Experiments/experiment_24/62.jpg,Experiments/experiment_24/63.jpg,892,1,2023-09-17_10h40.20.333,Occlusion_Psychophysics,2022.1.4,Win32,32,,,left,"[""right""]",[1.4969999999999573],False,,0.0,0.0,15.0,15.0,15.0,1.0,,,,,,
,,,,,,,,,,,,,,,,,,,,,0.05,,,,,,,,,,Stimuli/psy_flexible_rotation_30_objects_occ0.7_0.9s/images/train/n04405907_5/n04379243_-7/img_samsung_40_uhd_smart_tv_2011_quatre_dining_table_2007_gray.jpg,n04405907_5,n04379243_-7,flexible,0.731583,n03928116_0,Stimuli/psy_flexible_rotation_30_objects_occ0.7_0.9s/images/train/n02828884_3/n03928116_0/img_b04_wood_metal_park_bench_b02_piano_2011-3_gray.png,random,flexible,n04405907_5,n04379243_-7,Stimuli/canonical view 2/img_n04405907_5_gray.jpg,Stimuli/canonical view 2/img_n04379243_-7_gray.jpg,foreground,left,Experiments/experiment_24/64.jpg,Experiments/experiment_24/65.jpg,Experiments/experiment_24/66.jpg,Experiments/experiment_24/67.jpg,892,1,2023-09-17_10h40.20.333,Occlusion_Psychophysics,2022.1.4,Win32,32,,,left,"[""right""]",[1.1100000000000136],False,,0.0,0.0,16.0,16.0,16.0,1.0,,,,,,
,,,,,,,,,,,,,,,,,,,,,0.05,,,,,,,,,,Stimuli/psy_fixed_rotation_30_objects_occ0.7_0.9s/images/train/n02933112_4/n04405907_8/img_buffet_stylized_tv_2014_gray.jpg,n02933112_4,n04405907_8,fixed,0.705389,n03928116_10,Stimuli/psy_fixed_rotation_30_objects_occ0.7_0.9s/images/train/n02818832_9/n03928116_10/img_bed01_blue_ydp_103_r_2012__vray_2007-3_gray.png,random,fixed,n02933112_4,n04405907_8,Stimuli/canonical view 2/img_n02933112_4_gray.jpg,Stimuli/canonical view 2/img_n04405907_8_gray.jpg,foreground,right,Experiments/experiment_24/68.jpg,Experiments/experiment_24/69.jpg,Experiments/experiment_24/70.jpg,Experiments/experiment_24/71.jpg,892,1,2023-09-17_10h40.20.333,Occlusion_Psychophysics,2022.1.4,Win32,32,,,right,"[""left""]",[0.8730000000000473],False,,0.0,0.0,17.0,17.0,17.0,1.0,,,,,,
,,,,,,,,,,,,,,,,,,,,,0.05,,,,,,,,,,Stimuli/psy_fixed_rotation_30_objects_occ0.7_0.9s/images/train/n02933112_-2/n04405907_5/img_sink_base_white_wood_samsung_40_uhd_smart_tv_2011_2002_gray.jpg,n02933112_-2,n04405907_5,fixed,0.732265,n03001627_9,Stimuli/psy_fixed_rotation_30_objects_occ0.7_0.9s/images/train/n03001627_9/n03001627_9/img_chair_eames_plastic_armchair_chair_eames_plastic_armchair_2010-3_gray.png,random,fixed,n02933112_-2,n04405907_5,Stimuli/canonical view 2/img_n02933112_-2_gray.jpg,Stimuli/canonical view 2/img_n04405907_5_gray.jpg,foreground,left,Experiments/experiment_24/72.jpg,Experiments/experiment_24/73.jpg,Experiments/experiment_24/74.jpg,Experiments/experiment_24/75.jpg,892,1,2023-09-17_10h40.20.333,Occlusion_Psychophysics,2022.1.4,Win32,32,,,left,"[""left""]",[1.0499999999999545],False,,0.0,0.0,18.0,18.0,18.0,1.0,,,,,,
,,,,,,,,,,,,,,,,,,,,,0.025,,,,,,,,,,Stimuli/psy_flexible_rotation_30_objects_occ0.7_0.9s/images/train/n02883344_15/n04405907_8/img_microwave_box_stylized_tv_2012_gray.jpg,n02883344_15,n04405907_8,flexible,0.885747,n04256520_4,Stimuli/psy_flexible_rotation_30_objects_occ0.7_0.9s/images/train/n02818832_9/n04256520_4/img_bed01_blue_club_house_italia_nautilus_sofa_2005-3_gray.png,random,flexible,n02883344_15,n02933112_-2,Stimuli/canonical view 2/img_n02883344_15_gray.jpg,Stimuli/canonical view 2/img_n02933112_-2_gray.jpg,random,right,Experiments/experiment_24/76.jpg,Experiments/experiment_24/77.jpg,Experiments/experiment_24/78.jpg,Experiments/experiment_24/79.jpg,892,1,2023-09-17_10h40.20.333,Occlusion_Psychophysics,2022.1.4,Win32,32,,,right,"[""right""]",[0.9250000000000682],False,,0.0,0.0,19.0,19.0,19.0,1.0,,,,,,
,,,,,,,,,,,,,,,,,,,,,0.05,,,,,,,,,,Stimuli/psy_flexible_rotation_30_objects_occ0.7_0.9s/images/train/n03928116_0/n04379243_-7/img_b02_piano_quatre_dining_table_2015_gray.jpg,n03928116_0,n04379243_-7,flexible,0.823551,n04379243_-7,Stimuli/psy_flexible_rotation_30_objects_occ0.7_0.9s/images/train/n03928116_0/n04379243_-7/img_b02_piano_quatre_dining_table_2015-3_gray.png,foreground,same as foreground,n03928116_0,n03001627_9,Stimuli/canonical view 2/img_n03928116_0_gray.jpg,Stimuli/canonical view 2/img_n03001627_9_gray.jpg,random,left,Experiments/experiment_24/80.jpg,Experiments/experiment_24/81.jpg,Experiments/experiment_24/82.jpg,Experiments/experiment_24/83.jpg,892,1,2023-09-17_10h40.20.333,Occlusion_Psychophysics,2022.1.4,Win32,32,,,left,"[""left""]",[1.23599999999999],False,,0.0,0.0,20.0,20.0,20.0,1.0,,,,,,
,,,,,,,,,,,,,,,,,,,,,0.05,,,,,,,,,,Stimuli/psy_flexible_rotation_30_objects_occ0.7_0.9s/images/train/n04256520_9/n02883344_15/img_napoleon_iii_sofa_microwave_box_2013_gray.jpg,n04256520_9,n02883344_15,flexible,0.733131,n04256520_5,Stimuli/psy_fixed_rotation_30_objects_occ0.7_0.9s/images/train/n03928116_0/n04256520_5/img_b02_piano_meridiani_belmondo_bench_sofa_2009-3_gray.png,random,fixed,n04256520_9,n04379243_-7,Stimuli/canonical view 2/img_n04256520_9_gray.jpg,Stimuli/canonical view 2/img_n04379243_-7_gray.jpg,random,right,Experiments/experiment_24/84.jpg,Experiments/experiment_24/85.jpg,Experiments/experiment_24/86.jpg,Experiments/experiment_24/87.jpg,892,1,2023-09-17_10h40.20.333,Occlusion_Psychophysics,2022.1.4,Win32,32,,,left,"[""right""]",[1.1400000000001],False,,0.0,0.0,21.0,21.0,21.0,1.0,,,,,,
,,,,,,,,,,,,,,,,,,,,,0.05,,,,,,,,,,Stimuli/psy_fixed_rotation_30_objects_occ0.7_0.9s/images/train/n02883344_15/n02818832_9/img_microwave_box_bed01_blue_2008_gray.jpg,n02883344_15,n02818832_9,fixed,0.705497,n02818832_9,Stimuli/psy_fixed_rotation_30_objects_occ0.7_0.9s/images/train/n02883344_15/n02818832_9/img_microwave_box_bed01_blue_2008-3_gray.png,foreground,same as foreground,n02883344_15,n02818832_9,Stimuli/canonical view 2/img_n02883344_15_gray.jpg,Stimuli/canonical view 2/img_n02818832_9_gray.jpg,foreground,left,Experiments/experiment_24/88.jpg,Experiments/experiment_24/89.jpg,Experiments/experiment_24/90.jpg,Experiments/experiment_24/91.jpg,892,1,2023-09-17_10h40.20.333,Occlusion_Psychophysics,2022.1.4,Win32,32,,,right,"[""right""]",[0.8930000000000291],False,,0.0,0.0,22.0,22.0,22.0,1.0,,,,,,
,,,,,,,,,,,,,,,,,,,,,0.025,,,,,,,,,,Stimuli/psy_fixed_rotation_30_objects_occ0.7_0.9s/images/train/n03001627_8/n03001627_-2/img_chair_billiani_doll_wood_chair_2007_gray.jpg,n03001627_8,n03001627_-2,fixed,0.730298,n04256520_9,Stimuli/psy_flexible_rotation_30_objects_occ0.7_0.9s/images/train/n04405907_9/n04256520_9/img_vray_004_napoleon_iii_sofa_2004-3_gray.png,random,flexible,n03001627_8,n03001627_-2,Stimuli/canonical view 2/img_n03001627_8_gray.jpg,Stimuli/canonical view 2/img_n03001627_-2_gray.jpg,foreground,right,Experiments/experiment_24/92.jpg,Experiments/experiment_24/93.jpg,Experiments/experiment_24/94.jpg,Experiments/experiment_24/95.jpg,892,1,2023-09-17_10h40.20.333,Occlusion_Psychophysics,2022.1.4,Win32,32,,,right,"[""left""]",[1.3640000000000327],False,,0.0,0.0,23.0,23.0,23.0,1.0,,,,,,
,,,,,,,,,,,,,,,,,,,,,0.05,,,,,,,,,,Stimuli/psy_fixed_rotation_30_objects_occ0.7_0.9s/images/train/n03001627_-2/n04405907_9/img_wood_chair_vray_004_2014_gray.jpg,n03001627_-2,n04405907_9,fixed,0.733432,n04405907_9,Stimuli/psy_fixed_rotation_30_objects_occ0.7_0.9s/images/train/n03001627_-2/n04405907_9/img_wood_chair_vray_004_2014-3_gray.png,foreground,same as foreground,n03001627_-2,n02883344_0,Stimuli/canonical view 2/img_n03001627_-2_gray.jpg,Stimuli/canonical view 2/img_n02883344_0_gray.jpg,random,right,Experiments/experiment_24/96.jpg,Experiments/experiment_24/97.jpg,Experiments/experiment_24/98.jpg,Experiments/experiment_24/99.jpg,892,1,2023-09-17_10h40.20.333,Occlusion_Psychophysics,2022.1.4,Win32,32,,,right,"[""left""]",[1.4629999999999654],False,,0.0,0.0,24.0,24.0,24.0,1.0,,,,,,
,,,,,,,,,,,,,,,,,,,,,0.05,,,,,,,,,,Stimuli/psy_fixed_rotation_30_objects_occ0.7_0.9s/images/train/n02883344_0/n02828884_3/img_b03_box_b04_wood_metal_park_bench_2006_gray.jpg,n02883344_0,n02828884_3,fixed,0.783776,n02828884_3,Stimuli/psy_fixed_rotation_30_objects_occ0.7_0.9s/images/train/n02883344_0/n02828884_3/img_b03_box_b04_wood_metal_park_bench_2006-3_gray.png,foreground,same as foreground,n02883344_0,n02828884_3,Stimuli/canonical view 2/img_n02883344_0_gray.jpg,Stimuli/canonical view 2/img_n02828884_3_gray.jpg,foreground,right,Experiments/experiment_24/100.jpg,Experiments/experiment_24/101.jpg,Experiments/experiment_24/102.jpg,Experiments/experiment_24/103.jpg,892,1,2023-09-17_10h40.20.333,Occlusion_Psychophysics,2022.1.4,Win32,32,,,right,"[""right""]",[0.8369999999999891],False,,0.0,0.0,25.0,25.0,25.0,1.0,,,,,,
,,,,,,,,,,,,,,,,,,,,,0.05,,,,,,,,,,Stimuli/psy_fixed_rotation_30_objects_occ0.7_0.9s/images/train/n04379243_0/n04405907_5/img_17th_c._monastery_dining_table_2010_samsung_40_uhd_smart_tv_2011_2013_gray.jpg,n04379243_0,n04405907_5,fixed,0.74843,n04405907_5,Stimuli/psy_fixed_rotation_30_objects_occ0.7_0.9s/images/train/n04379243_0/n04405907_5/img_17th_c._monastery_dining_table_2010_samsung_40_uhd_smart_tv_2011_2013-3_gray.png,foreground,same as foreground,n04379243_0,n02933112_-18,Stimuli/canonical view 2/img_n04379243_0_gray.jpg,Stimuli/canonical view 2/img_n02933112_-18_gray.jpg,random,right,Experiments/experiment_24/104.jpg,Experiments/experiment_24/105.jpg,Experiments/experiment_24/106.jpg,Experiments/experiment_24/107.jpg,892,1,2023-09-17_10h40.20.333,Occlusion_Psychophysics,2022.1.4,Win32,32,,,right,"[""right""]",[0.9279999999999973],False,,0.0,0.0,26.0,26.0,26.0,1.0,,,,,,
,,,,,,,,,,,,,,,,,,,,,0.05,,,,,,,,,,Stimuli/psy_flexible_rotation_30_objects_occ0.7_0.9s/images/train/n02828884_3/n04405907_8/img_b04_wood_metal_park_bench_stylized_tv_2015_gray.jpg,n02828884_3,n04405907_8,flexible,0.822435,n04405907_8,Stimuli/psy_flexible_rotation_30_objects_occ0.7_0.9s/images/train/n02828884_3/n04405907_8/img_b04_wood_metal_park_bench_stylized_tv_2015-3_gray.png,foreground,same as foreground,n02828884_3,n02883344_0,Stimuli/canonical view 2/img_n02828884_3_gray.jpg,Stimuli/canonical view 2/img_n02883344_0_gray.jpg,random,left,Experiments/experiment_24/108.jpg,Experiments/experiment_24/109.jpg,Experiments/experiment_24/110.jpg,Experiments/experiment_24/111.jpg,892,1,2023-09-17_10h40.20.333,Occlusion_Psychophysics,2022.1.4,Win32,32,,,right,"[""right""]",[0.8070000000000164],False,,0.0,0.0,27.0,27.0,27.0,1.0,,,,,,
,,,,,,,,,,,,,,,,,,,,,0.05,,,,,,,,,,Stimuli/psy_fixed_rotation_30_objects_occ0.7_0.9s/images/train/n02818832_0/n04379243_8/img_b03_the_sofa_and_chair_company_-_stanley_bed_2014_glass_table_2015_gray.jpg,n02818832_0,n04379243_8,fixed,0.765092,n04379243_-7,Stimuli/psy_fixed_rotation_30_objects_occ0.7_0.9s/images/train/n04256520_5/n04379243_-7/img_meridiani_belmondo_bench_sofa_quatre_dining_table_2011-3_gray.png,random,fixed,n02818832_0,n03001627_-2,Stimuli/canonical view 2/img_n02818832_0_gray.jpg,Stimuli/canonical view 2/img_n03001627_-2_gray.jpg,random,left,Experiments/experiment_24/112.jpg,Experiments/experiment_24/113.jpg,Experiments/experiment_24/114.jpg,Experiments/experiment_24/115.jpg,892,1,2023-09-17_10h40.20.333,Occlusion_Psychophysics,2022.1.4,Win32,32,,,left,"[""right""]",[1.211999999999989],False,,0.0,0.0,28.0,28.0,28.0,1.0,,,,,,
,,,,,,,,,,,,,,,,,,,,,0.05,,,,,,,,,,Stimuli/psy_flexible_rotation_30_objects_occ0.7_0.9s/images/train/n02883344_-1/n02933112_-18/img_woven_box_cgaxis_models_48_26_vray_composite_2004_gray.jpg,n02883344_-1,n02933112_-18,flexible,0.709128,n02933112_-18,Stimuli/psy_flexible_rotation_30_objects_occ0.7_0.9s/images/train/n02883344_-1/n02933112_-18/img_woven_box_cgaxis_models_48_26_vray_composite_2004-3_gray.png,foreground,same as foreground,n02883344_-1,n02933112_-2,Stimuli/canonical view 2/img_n02883344_-1_gray.jpg,Stimuli/canonical view 2/img_n02933112_-2_gray.jpg,random,left,Experiments/experiment_24/116.jpg,Experiments/experiment_24/117.jpg,Experiments/experiment_24/118.jpg,Experiments/experiment_24/119.jpg,892,1,2023-09-17_10h40.20.333,Occlusion_Psychophysics,2022.1.4,Win32,32,,,right,"[""left""]",[0.9249999999999545],False,,0.0,0.0,29.0,29.0,29.0,1.0,,,,,,
,,,,,,,,,,,,,,,,,,,,,0.05,,,,,,,,,,Stimuli/psy_flexible_rotation_30_objects_occ0.7_0.9s/images/train/n04256520_5/n02818832_0/img_meridiani_belmondo_bench_sofa_b03_the_sofa_and_chair_company_-_stanley_bed_2014_2014_gray.jpg,n04256520_5,n02818832_0,flexible,0.706709,n02933112_-2,Stimuli/psy_fixed_rotation_30_objects_occ0.7_0.9s/images/train/n04405907_8/n02933112_-2/img_stylized_tv_sink_base_white_wood_2014-3_gray.png,random,fixed,n04256520_5,n04379243_-7,Stimuli/canonical view 2/img_n04256520_5_gray.jpg,Stimuli/canonical view 2/img_n04379243_-7_gray.jpg,random,left,Experiments/experiment_24/120.jpg,Experiments/experiment_24/121.jpg,Experiments/experiment_24/122.jpg,Experiments/experiment_24/123.jpg,892,1,2023-09-17_10h40.20.333,Occlusion_Psychophysics,2022.1.4,Win32,32,,,right,"[""right""]",[1.024000000000001],False,,0.0,0.0,30.0,30.0,30.0,1.0,,,,,,
,,,,,,,,,,,,,,,,,,,,,0.025,,,,,,,,,,Stimuli/psy_flexible_rotation_30_objects_occ0.7_0.9s/images/train/n03928116_10/n02883344_-1/img_ydp_103_r_2012__vray_woven_box_2007_gray.jpg,n03928116_10,n02883344_-1,flexible,0.712591,n02933112_-2,Stimuli/psy_fixed_rotation_30_objects_occ0.7_0.9s/images/train/n04256520_9/n02933112_-2/img_napoleon_iii_sofa_sink_base_white_wood_2001-3_gray.png,random,fixed,n03928116_10,n02818832_9,Stimuli/canonical view 2/img_n03928116_10_gray.jpg,Stimuli/canonical view 2/img_n02818832_9_gray.jpg,random,left,Experiments/experiment_24/124.jpg,Experiments/experiment_24/125.jpg,Experiments/experiment_24/126.jpg,Experiments/experiment_24/127.jpg,892,1,2023-09-17_10h40.20.333,Occlusion_Psychophysics,2022.1.4,Win32,32,,,right,"[""right""]",[0.9900000000000091],True,left,1.0,0.0,31.0,31.0,31.0,1.0,1.501,,,,,
,,,,,,,,,,,,,,,,,,,,,0.05,,,,,,,,,,Stimuli/psy_fixed_rotation_30_objects_occ0.7_0.9s/images/train/n02883344_15/n04256520_4/img_microwave_box_club_house_italia_nautilus_sofa_2000_gray.jpg,n02883344_15,n04256520_4,fixed,0.792429,n04256520_4,Stimuli/psy_fixed_rotation_30_objects_occ0.7_0.9s/images/train/n02883344_15/n04256520_4/img_microwave_box_club_house_italia_nautilus_sofa_2000-3_gray.png,foreground,same as foreground,n02883344_15,n04256520_4,Stimuli/canonical view 2/img_n02883344_15_gray.jpg,Stimuli/canonical view 2/img_n04256520_4_gray.jpg,foreground,right,Experiments/experiment_24/128.jpg,Experiments/experiment_24/129.jpg,Experiments/experiment_24/130.jpg,Experiments/experiment_24/131.jpg,892,1,2023-09-17_10h40.20.333,Occlusion_Psychophysics,2022.1.4,Win32,32,,,left,"[""right""]",[1.0850000000000364],False,,0.0,0.0,32.0,32.0,32.0,1.0,,,,,,
,,,,,,,,,,,,,,,,,,,,,0.05,,,,,,,,,,Stimuli/psy_fixed_rotation_30_objects_occ0.7_0.9s/images/train/n04405907_8/n03928116_10/img_stylized_tv_ydp_103_r_2012__vray_2012_gray.jpg,n04405907_8,n03928116_10,fixed,0.719328,n02818832_0,Stimuli/psy_flexible_rotation_30_objects_occ0.7_0.9s/images/train/n04405907_8/n02818832_0/img_stylized_tv_b03_the_sofa_and_chair_company_-_stanley_bed_2014_2011-3_gray.png,random,flexible,n04405907_8,n02933112_4,Stimuli/canonical view 2/img_n04405907_8_gray.jpg,Stimuli/canonical view 2/img_n02933112_4_gray.jpg,random,left,Experiments/experiment_24/132.jpg,Experiments/experiment_24/133.jpg,Experiments/experiment_24/134.jpg,Experiments/experiment_24/135.jpg,892,1,2023-09-17_10h40.20.333,Occlusion_Psychophysics,2022.1.4,Win32,32,,,right,"[""right""]",[1.3040000000000873],False,,0.0,0.0,33.0,33.0,33.0,1.0,,,,,,
,,,,,,,,,,,,,,,,,,,,,0.025,,,,,,,,,,Stimuli/psy_fixed_rotation_30_objects_occ0.7_0.9s/images/train/n04256520_4/n04405907_5/img_club_house_italia_nautilus_sofa_samsung_40_uhd_smart_tv_2011_2006_gray.jpg,n04256520_4,n04405907_5,fixed,0.752104,n04379243_-7,Stimuli/psy_flexible_rotation_30_objects_occ0.7_0.9s/images/train/n03928116_0/n04379243_-7/img_b02_piano_quatre_dining_table_2010-3_gray.png,random,flexible,n04256520_4,n04405907_5,Stimuli/canonical view 2/img_n04256520_4_gray.jpg,Stimuli/canonical view 2/img_n04405907_5_gray.jpg,foreground,left,Experiments/experiment_24/136.jpg,Experiments/experiment_24/137.jpg,Experiments/experiment_24/138.jpg,Experiments/experiment_24/139.jpg,892,1,2023-09-17_10h40.20.333,Occlusion_Psychophysics,2022.1.4,Win32,32,,,left,"[""left""]",[1.2379999999999427],False,,0.0,0.0,34.0,34.0,34.0,1.0,,,,,,
,,,,,,,,,,,,,,,,,,,,,0.05,,,,,,,,,,Stimuli/psy_flexible_rotation_30_objects_occ0.7_0.9s/images/train/n04256520_9/n03928116_10/img_napoleon_iii_sofa_ydp_103_r_2012__vray_2001_gray.jpg,n04256520_9,n03928116_10,flexible,0.714524,n03928116_10,Stimuli/psy_flexible_rotation_30_objects_occ0.7_0.9s/images/train/n04256520_9/n03928116_10/img_napoleon_iii_sofa_ydp_103_r_2012__vray_2001-3_gray.png,foreground,same as foreground,n04256520_9,n02828884_3,Stimuli/canonical view 2/img_n04256520_9_gray.jpg,Stimuli/canonical view 2/img_n02828884_3_gray.jpg,random,right,Experiments/experiment_24/140.jpg,Experiments/experiment_24/141.jpg,Experiments/experiment_24/142.jpg,Experiments/experiment_24/143.jpg,892,1,2023-09-17_10h40.20.333,Occlusion_Psychophysics,2022.1.4,Win32,32,,,left,"[""left""]",[1.0149999999999864],False,,0.0,0.0,35.0,35.0,35.0,1.0,,,,,,
,,,,,,,,,,,,,,,,,,,,,0.05,,,,,,,,,,Stimuli/psy_fixed_rotation_30_objects_occ0.7_0.9s/images/train/n02818832_0/n04379243_0/img_b03_the_sofa_and_chair_company_-_stanley_bed_2014_17th_c._monastery_dining_table_2010_2004_gray.jpg,n02818832_0,n04379243_0,fixed,0.730644,n04379243_0,Stimuli/psy_fixed_rotation_30_objects_occ0.7_0.9s/images/train/n02818832_0/n04379243_0/img_b03_the_sofa_and_chair_company_-_stanley_bed_2014_17th_c._monastery_dining_table_2010_2004-3_gray.png,foreground,same as foreground,n02818832_0,n04405907_8,Stimuli/canonical view 2/img_n02818832_0_gray.jpg,Stimuli/canonical view 2/img_n04405907_8_gray.jpg,random,left,Experiments/experiment_24/144.jpg,Experiments/experiment_24/145.jpg,Experiments/experiment_24/146.jpg,Experiments/experiment_24/147.jpg,892,1,2023-09-17_10h40.20.333,Occlusion_Psychophysics,2022.1.4,Win32,32,,,left,"[""left""]",[1.1509999999999536],False,,0.0,0.0,36.0,36.0,36.0,1.0,,,,,,
,,,,,,,,,,,,,,,,,,,,,0.05,,,,,,,,,,Stimuli/psy_flexible_rotation_30_objects_occ0.7_0.9s/images/train/n02933112_-2/n04256520_4/img_sink_base_white_wood_club_house_italia_nautilus_sofa_2014_gray.jpg,n02933112_-2,n04256520_4,flexible,0.767748,n04256520_4,Stimuli/psy_flexible_rotation_30_objects_occ0.7_0.9s/images/train/n02933112_-2/n04256520_4/img_sink_base_white_wood_club_house_italia_nautilus_sofa_2014-3_gray.png,foreground,same as foreground,n02933112_-2,n04256520_4,Stimuli/canonical view 2/img_n02933112_-2_gray.jpg,Stimuli/canonical view 2/img_n04256520_4_gray.jpg,foreground,right,Experiments/experiment_24/148.jpg,Experiments/experiment_24/149.jpg,Experiments/experiment_24/150.jpg,Experiments/experiment_24/151.jpg,892,1,2023-09-17_10h40.20.333,Occlusion_Psychophysics,2022.1.4,Win32,32,,,right,"[""right""]",[0.9580000000000837],False,,0.0,0.0,37.0,37.0,37.0,1.0,,,,,,
,,,,,,,,,,,,,,,,,,,,,0.05,,,,,,,,,,Stimuli/psy_fixed_rotation_30_objects_occ0.7_0.9s/images/train/n04405907_5/n02818832_9/img_samsung_40_uhd_smart_tv_2011_bed01_blue_2011_gray.jpg,n04405907_5,n02818832_9,fixed,0.729724,n02933112_-2,Stimuli/psy_fixed_rotation_30_objects_occ0.7_0.9s/images/train/n04379243_-7/n02933112_-2/img_quatre_dining_table_sink_base_white_wood_2007-3_gray.png,random,fixed,n04405907_5,n02828884_3,Stimuli/canonical view 2/img_n04405907_5_gray.jpg,Stimuli/canonical view 2/img_n02828884_3_gray.jpg,random,left,Experiments/experiment_24/152.jpg,Experiments/experiment_24/153.jpg,Experiments/experiment_24/154.jpg,Experiments/experiment_24/155.jpg,892,1,2023-09-17_10h40.20.333,Occlusion_Psychophysics,2022.1.4,Win32,32,,,right,"[""left""]",[1.1180000000000518],False,,0.0,0.0,38.0,38.0,38.0,1.0,,,,,,
,,,,,,,,,,,,,,,,,,,,,0.025,,,,,,,,,,Stimuli/psy_fixed_rotation_30_objects_occ0.7_0.9s/images/train/n02883344_0/n02818832_9/img_b03_box_bed01_blue_2010_gray.jpg,n02883344_0,n02818832_9,fixed,0.772383,n02818832_9,Stimuli/psy_fixed_rotation_30_objects_occ0.7_0.9s/images/train/n02883344_0/n02818832_9/img_b03_box_bed01_blue_2010-3_gray.png,foreground,same as foreground,n02883344_0,n04379243_-7,Stimuli/canonical view 2/img_n02883344_0_gray.jpg,Stimuli/canonical view 2/img_n04379243_-7_gray.jpg,random,right,Experiments/experiment_24/156.jpg,Experiments/experiment_24/157.jpg,Experiments/experiment_24/158.jpg,Experiments/experiment_24/159.jpg,892,1,2023-09-17_10h40.20.333,Occlusion_Psychophysics,2022.1.4,Win32,32,,,left,"[""left""]",[0.9879999999999427],False,,0.0,0.0,39.0,39.0,39.0,1.0,,,,,,
,,,,,,,,,,,,,,,,,,,,,0.05,,,,,,,,,,Stimuli/psy_fixed_rotation_30_objects_occ0.7_0.9s/images/train/n03928116_4/n03928116_0/img_dp_33_b_2013__vray_b02_piano_2008_gray.jpg,n03928116_4,n03928116_0,fixed,0.723006,n02818832_0,Stimuli/psy_flexible_rotation_30_objects_occ0.7_0.9s/images/train/n04256520_5/n02818832_0/img_meridiani_belmondo_bench_sofa_b03_the_sofa_and_chair_company_-_stanley_bed_2014_2001-3_gray.png,random,flexible,n03928116_4,n03928116_0,Stimuli/canonical view 2/img_n03928116_4_gray.jpg,Stimuli/canonical view 2/img_n03928116_0_gray.jpg,foreground,left,Experiments/experiment_24/160.jpg,Experiments/experiment_24/161.jpg,Experiments/experiment_24/162.jpg,Experiments/experiment_24/163.jpg,892,1,2023-09-17_10h40.20.333,Occlusion_Psychophysics,2022.1.4,Win32,32,,,left,"[""left""]",[1.0860000000000127],False,,0.0,0.0,40.0,40.0,40.0,1.0,,,,,,
,,,,,,,,,,,,,,,,,,,,,0.05,,,,,,,,,,Stimuli/psy_fixed_rotation_30_objects_occ0.7_0.9s/images/train/n02883344_0/n02933112_-18/img_b03_box_cgaxis_models_48_26_vray_composite_2007_gray.jpg,n02883344_0,n02933112_-18,fixed,0.809464,n02828884_9,Stimuli/psy_flexible_rotation_30_objects_occ0.7_0.9s/images/train/n02883344_0/n02828884_9/img_b03_box_cr-96_bench_2009-3_gray.png,random,flexible,n02883344_0,n04379243_-7,Stimuli/canonical view 2/img_n02883344_0_gray.jpg,Stimuli/canonical view 2/img_n04379243_-7_gray.jpg,random,left,Experiments/experiment_24/164.jpg,Experiments/experiment_24/165.jpg,Experiments/experiment_24/166.jpg,Experiments/experiment_24/167.jpg,892,1,2023-09-17_10h40.20.333,Occlusion_Psychophysics,2022.1.4,Win32,32,,,left,"[""right""]",[1.02800000000002],False,,0.0,0.0,41.0,41.0,41.0,1.0,,,,,,
,,,,,,,,,,,,,,,,,,,,,0.05,,,,,,,,,,Stimuli/psy_flexible_rotation_30_objects_occ0.7_0.9s/images/train/n04405907_8/n02883344_-1/img_stylized_tv_woven_box_2008_gray.jpg,n04405907_8,n02883344_-1,flexible,0.714154,n02883344_-1,Stimuli/psy_flexible_rotation_30_objects_occ0.7_0.9s/images/train/n04405907_8/n02883344_-1/img_stylized_tv_woven_box_2008-3_gray.png,foreground,same as foreground,n04405907_8,n03001627_9,Stimuli/canonical view 2/img_n04405907_8_gray.jpg,Stimuli/canonical view 2/img_n03001627_9_gray.jpg,random,right,Experiments/experiment_24/168.jpg,Experiments/experiment_24/169.jpg,Experiments/experiment_24/170.jpg,Experiments/experiment_24/171.jpg,892,1,2023-09-17_10h40.20.333,Occlusion_Psychophysics,2022.1.4,Win32,32,,,left,"[""left""]",[0.9909999999999854],False,,0.0,0.0,42.0,42.0,42.0,1.0,,,,,,
,,,,,,,,,,,,,,,,,,,,,0.025,,,,,,,,,,Stimuli/psy_fixed_rotation_30_objects_occ0.7_0.9s/images/train/n02933112_-2/n02883344_0/img_sink_base_white_wood_b03_box_2001_gray.jpg,n02933112_-2,n02883344_0,fixed,0.733103,n02933112_4,Stimuli/psy_flexible_rotation_30_objects_occ0.7_0.9s/images/train/n04405907_9/n02933112_4/img_vray_004_buffet_2004-3_gray.png,random,flexible,n02933112_-2,n02883344_15,Stimuli/canonical view 2/img_n02933112_-2_gray.jpg,Stimuli/canonical view 2/img_n02883344_15_gray.jpg,random,left,Experiments/experiment_24/172.jpg,Experiments/experiment_24/173.jpg,Experiments/experiment_24/174.jpg,Experiments/experiment_24/175.jpg,892,1,2023-09-17_10h40.20.333,Occlusion_Psychophysics,2022.1.4,Win32,32,,,left,"[""left""]",[1.1159999999999854],False,,0.0,0.0,43.0,43.0,43.0,1.0,,,,,,
,,,,,,,,,,,,,,,,,,,,,0.05,,,,,,,,,,Stimuli/psy_flexible_rotation_30_objects_occ0.7_0.9s/images/train/n02933112_-18/n02883344_-1/img_cgaxis_models_48_26_vray_composite_woven_box_2006_gray.jpg,n02933112_-18,n02883344_-1,flexible,0.864416,n02883344_-1,Stimuli/psy_flexible_rotation_30_objects_occ0.7_0.9s/images/train/n02933112_-18/n02883344_-1/img_cgaxis_models_48_26_vray_composite_woven_box_2006-3_gray.png,foreground,same as foreground,n02933112_-18,n02883344_-1,Stimuli/canonical view 2/img_n02933112_-18_gray.jpg,Stimuli/canonical view 2/img_n02883344_-1_gray.jpg,foreground,right,Experiments/experiment_24/176.jpg,Experiments/experiment_24/177.jpg,Experiments/experiment_24/178.jpg,Experiments/experiment_24/179.jpg,892,1,2023-09-17_10h40.20.333,Occlusion_Psychophysics,2022.1.4,Win32,32,,,left,"[""right""]",[1.02800000000002],False,,0.0,0.0,44.0,44.0,44.0,1.0,,,,,,
,,,,,,,,,,,,,,,,,,,,,0.05,,,,,,,,,,Stimuli/psy_flexible_rotation_30_objects_occ0.7_0.9s/images/train/n04256520_4/n04405907_8/img_club_house_italia_nautilus_sofa_stylized_tv_2012_gray.jpg,n04256520_4,n04405907_8,flexible,0.703892,n04405907_8,Stimuli/psy_flexible_rotation_30_objects_occ0.7_0.9s/images/train/n04256520_4/n04405907_8/img_club_house_italia_nautilus_sofa_stylized_tv_2012-3_gray.png,foreground,same as foreground,n04256520_4,n04405907_5,Stimuli/canonical view 2/img_n04256520_4_gray.jpg,Stimuli/canonical view 2/img_n04405907_5_gray.jpg,random,right,Experiments/experiment_24/180.jpg,Experiments/experiment_24/181.jpg,Experiments/experiment_24/182.jpg,Experiments/experiment_24/183.jpg,892,1,2023-09-17_10h40.20.333,Occlusion_Psychophysics,2022.1.4,Win32,32,,,right,"[""right""]",[1.0489999999999782],False,,0.0,0.0,45.0,45.0,45.0,1.0,,,,,,
,,,,,,,,,,,,,,,,,,,,,0.025,,,,,,,,,,Stimuli/psy_fixed_rotation_30_objects_occ0.7_0.9s/images/train/n04256520_5/n04405907_8/img_meridiani_belmondo_bench_sofa_stylized_tv_2000_gray.jpg,n04256520_5,n04405907_8,fixed,0.821728,n04405907_8,Stimuli/psy_fixed_rotation_30_objects_occ0.7_0.9s/images/train/n04256520_5/n04405907_8/img_meridiani_belmondo_bench_sofa_stylized_tv_2000-3_gray.png,foreground,same as foreground,n04256520_5,n04405907_8,Stimuli/canonical view 2/img_n04256520_5_gray.jpg,Stimuli/canonical view 2/img_n04405907_8_gray.jpg,foreground,right,Experiments/experiment_24/184.jpg,Experiments/experiment_24/185.jpg,Experiments/experiment_24/186.jpg,Experiments/experiment_24/187.jpg,892,1,2023-09-17_10h40.20.333,Occlusion_Psychophysics,2022.1.4,Win32,32,,,right,"[""right""]",[1.0249999999999773],False,,0.0,0.0,46.0,46.0,46.0,1.0,,,,,,
,,,,,,,,,,,,,,,,,,,,,0.05,,,,,,,,,,Stimuli/psy_fixed_rotation_30_objects_occ0.7_0.9s/images/train/n04379243_0/n02883344_-1/img_17th_c._monastery_dining_table_2010_woven_box_2009_gray.jpg,n04379243_0,n02883344_-1,fixed,0.705831,n02883344_-1,Stimuli/psy_fixed_rotation_30_objects_occ0.7_0.9s/images/train/n04379243_0/n02883344_-1/img_17th_c._monastery_dining_table_2010_woven_box_2009-3_gray.png,foreground,same as foreground,n04379243_0,n02883344_-1,Stimuli/canonical view 2/img_n04379243_0_gray.jpg,Stimuli/canonical view 2/img_n02883344_-1_gray.jpg,foreground,left,Experiments/experiment_24/188.jpg,Experiments/experiment_24/189.jpg,Experiments/experiment_24/190.jpg,Experiments/experiment_24/191.jpg,892,1,2023-09-17_10h40.20.333,Occlusion_Psychophysics,2022.1.4,Win32,32,,,right,"[""right""]",[1.1159999999999854],False,,0.0,0.0,47.0,47.0,47.0,1.0,,,,,,
,,,,,,,,,,,,,,,,,,,,,0.05,,,,,,,,,,Stimuli/psy_flexible_rotation_30_objects_occ0.7_0.9s/images/train/n04256520_9/n02828884_3/img_napoleon_iii_sofa_b04_wood_metal_park_bench_2000_gray.jpg,n04256520_9,n02828884_3,flexible,0.762369,n02933112_-18,Stimuli/psy_fixed_rotation_30_objects_occ0.7_0.9s/images/train/n03001627_-2/n02933112_-18/img_wood_chair_cgaxis_models_48_26_vray_composite_2000-3_gray.png,random,fixed,n04256520_9,n02818832_9,Stimuli/canonical view 2/img_n04256520_9_gray.jpg,Stimuli/canonical view 2/img_n02818832_9_gray.jpg,random,right,Experiments/experiment_24/192.jpg,Experiments/experiment_24/193.jpg,Experiments/experiment_24/194.jpg,Experiments/experiment_24/195.jpg,892,1,2023-09-17_10h40.20.333,Occlusion_Psychophysics,2022.1.4,Win32,32,,,right,"[""right""]",[1.26400000000001],False,,0.0,0.0,48.0,48.0,48.0,1.0,,,,,,
,,,,,,,,,,,,,,,,,,,,,0.05,,,,,,,,,,Stimuli/psy_fixed_rotation_30_objects_occ0.7_0.9s/images/train/n04405907_5/n04256520_4/img_samsung_40_uhd_smart_tv_2011_club_house_italia_nautilus_sofa_2001_gray.jpg,n04405907_5,n04256520_4,fixed,0.729528,n04256520_4,Stimuli/psy_fixed_rotation_30_objects_occ0.7_0.9s/images/train/n04405907_5/n04256520_4/img_samsung_40_uhd_smart_tv_2011_club_house_italia_nautilus_sofa_2001-3_gray.png,foreground,same as foreground,n04405907_5,n04256520_4,Stimuli/canonical view 2/img_n04405907_5_gray.jpg,Stimuli/canonical view 2/img_n04256520_4_gray.jpg,foreground,left,Experiments/experiment_24/196.jpg,Experiments/experiment_24/197.jpg,Experiments/experiment_24/198.jpg,Experiments/experiment_24/199.jpg,892,1,2023-09-17_10h40.20.333,Occlusion_Psychophysics,2022.1.4,Win32,32,,,left,"[""left""]",[1.5190000000000055],False,,0.0,0.0,49.0,49.0,49.0,1.0,,,,,,
,,,,,,,,,,,,,,,,,,,,,0.05,,,,,,,,,,Stimuli/psy_fixed_rotation_30_objects_occ0.7_0.9s/images/train/n03001627_9/n03928116_10/img_chair_eames_plastic_armchair_ydp_103_r_2012__vray_2001_gray.jpg,n03001627_9,n03928116_10,fixed,0.784145,n03928116_10,Stimuli/psy_fixed_rotation_30_objects_occ0.7_0.9s/images/train/n03001627_9/n03928116_10/img_chair_eames_plastic_armchair_ydp_103_r_2012__vray_2001-3_gray.png,foreground,same as foreground,n03001627_9,n03928116_10,Stimuli/canonical view 2/img_n03001627_9_gray.jpg,Stimuli/canonical view 2/img_n03928116_10_gray.jpg,foreground,right,Experiments/experiment_24/200.jpg,Experiments/experiment_24/201.jpg,Experiments/experiment_24/202.jpg,Experiments/experiment_24/203.jpg,892,1,2023-09-17_10h40.20.333,Occlusion_Psychophysics,2022.1.4,Win32,32,,,right,"[""right""]",[0.9969999999999573],False,,0.0,0.0,50.0,50.0,50.0,1.0,,,,,,
,,,,,,,,,,,,,,,,,,,,,0.025,,,,,,,,,,Stimuli/psy_flexible_rotation_30_objects_occ0.7_0.9s/images/train/n02818832_3/n04405907_9/img_b05_ccm_contemporary_bed_max2013_vray_004_2003_gray.jpg,n02818832_3,n04405907_9,flexible,0.851947,n04405907_9,Stimuli/psy_flexible_rotation_30_objects_occ0.7_0.9s/images/train/n02818832_3/n04405907_9/img_b05_ccm_contemporary_bed_max2013_vray_004_2003-3_gray.png,foreground,same as foreground,n02818832_3,n02933112_4,Stimuli/canonical view 2/img_n02818832_3_gray.jpg,Stimuli/canonical view 2/img_n02933112_4_gray.jpg,random,left,Experiments/experiment_24/204.jpg,Experiments/experiment_24/205.jpg,Experiments/experiment_24/206.jpg,Experiments/experiment_24/207.jpg,892,1,2023-09-17_10h40.20.333,Occlusion_Psychophysics,2022.1.4,Win32,32,,,left,"[""left""]",[1.0210000000000719],False,,0.0,0.0,51.0,51.0,51.0,1.0,,,,,,
,,,,,,,,,,,,,,,,,,,,,0.025,,,,,,,,,,Stimuli/psy_fixed_rotation_30_objects_occ0.7_0.9s/images/train/n02933112_-18/n03001627_8/img_cgaxis_models_48_26_vray_composite_chair_billiani_doll_2005_gray.jpg,n02933112_-18,n03001627_8,fixed,0.704143,n04256520_5,Stimuli/psy_flexible_rotation_30_objects_occ0.7_0.9s/images/train/n04379243_0/n04256520_5/img_17th_c._monastery_dining_table_2010_meridiani_belmondo_bench_sofa_2003-3_gray.png,random,flexible,n02933112_-18,n04256520_5,Stimuli/canonical view 2/img_n02933112_-18_gray.jpg,Stimuli/canonical view 2/img_n04256520_5_gray.jpg,random,right,Experiments/experiment_24/208.jpg,Experiments/experiment_24/209.jpg,Experiments/experiment_24/210.jpg,Experiments/experiment_24/211.jpg,892,1,2023-09-17_10h40.20.333,Occlusion_Psychophysics,2022.1.4,Win32,32,,,left,"[""right""]",[1.9850000000000136],False,,0.0,0.0,52.0,52.0,52.0,1.0,,,,,,
,,,,,,,,,,,,,,,,,,,,,0.025,,,,,,,,,,Stimuli/psy_flexible_rotation_30_objects_occ0.7_0.9s/images/train/n04379243_0/n04256520_5/img_17th_c._monastery_dining_table_2010_meridiani_belmondo_bench_sofa_2011_gray.jpg,n04379243_0,n04256520_5,flexible,0.716321,n04256520_5,Stimuli/psy_flexible_rotation_30_objects_occ0.7_0.9s/images/train/n04379243_0/n04256520_5/img_17th_c._monastery_dining_table_2010_meridiani_belmondo_bench_sofa_2011-3_gray.png,foreground,same as foreground,n04379243_0,n04256520_5,Stimuli/canonical view 2/img_n04379243_0_gray.jpg,Stimuli/canonical view 2/img_n04256520_5_gray.jpg,foreground,left,Experiments/experiment_24/212.jpg,Experiments/experiment_24/213.jpg,Experiments/experiment_24/214.jpg,Experiments/experiment_24/215.jpg,892,1,2023-09-17_10h40.20.333,Occlusion_Psychophysics,2022.1.4,Win32,32,,,left,"[""left""]",[0.9289999999999736],False,,0.0,0.0,53.0,53.0,53.0,1.0,,,,,,
,,,,,,,,,,,,,,,,,,,,,0.025,,,,,,,,,,Stimuli/psy_fixed_rotation_30_objects_occ0.7_0.9s/images/train/n02818832_0/n04256520_5/img_b03_the_sofa_and_chair_company_-_stanley_bed_2014_meridiani_belmondo_bench_sofa_2006_gray.jpg,n02818832_0,n04256520_5,fixed,0.714963,n04256520_5,Stimuli/psy_fixed_rotation_30_objects_occ0.7_0.9s/images/train/n02818832_0/n04256520_5/img_b03_the_sofa_and_chair_company_-_stanley_bed_2014_meridiani_belmondo_bench_sofa_2006-3_gray.png,foreground,same as foreground,n02818832_0,n04256520_5,Stimuli/canonical view 2/img_n02818832_0_gray.jpg,Stimuli/canonical view 2/img_n04256520_5_gray.jpg,foreground,left,Experiments/experiment_24/216.jpg,Experiments/experiment_24/217.jpg,Experiments/experiment_24/218.jpg,Experiments/experiment_24/219.jpg,892,1,2023-09-17_10h40.20.333,Occlusion_Psychophysics,2022.1.4,Win32,32,,,left,"[""right""]",[1.20900000000006],False,,0.0,0.0,54.0,54.0,54.0,1.0,,,,,,
,,,,,,,,,,,,,,,,,,,,,0.025,,,,,,,,,,Stimuli/psy_fixed_rotation_30_objects_occ0.7_0.9s/images/train/n04379243_0/n04379243_8/img_17th_c._monastery_dining_table_2010_glass_table_2003_gray.jpg,n04379243_0,n04379243_8,fixed,0.701002,n03928116_4,Stimuli/psy_flexible_rotation_30_objects_occ0.7_0.9s/images/train/n03928116_10/n03928116_4/img_ydp_103_r_2012__vray_dp_33_b_2013__vray_2000-3_gray.png,random,flexible,n04379243_0,n04379243_8,Stimuli/canonical view 2/img_n04379243_0_gray.jpg,Stimuli/canonical view 2/img_n04379243_8_gray.jpg,foreground,right,Experiments/experiment_24/220.jpg,Experiments/experiment_24/221.jpg,Experiments/experiment_24/222.jpg,Experiments/experiment_24/223.jpg,892,1,2023-09-17_10h40.20.333,Occlusion_Psychophysics,2022.1.4,Win32,32,,,left,"[""left""]",[0.9880000000000564],False,,0.0,0.0,55.0,55.0,55.0,1.0,,,,,,
,,,,,,,,,,,,,,,,,,,,,0.025,,,,,,,,,,Stimuli/psy_flexible_rotation_30_objects_occ0.7_0.9s/images/train/n02883344_-1/n04405907_9/img_woven_box_vray_004_2005_gray.jpg,n02883344_-1,n04405907_9,flexible,0.851632,n04405907_9,Stimuli/psy_flexible_rotation_30_objects_occ0.7_0.9s/images/train/n02883344_-1/n04405907_9/img_woven_box_vray_004_2005-3_gray.png,foreground,same as foreground,n02883344_-1,n04256520_5,Stimuli/canonical view 2/img_n02883344_-1_gray.jpg,Stimuli/canonical view 2/img_n04256520_5_gray.jpg,random,left,Experiments/experiment_24/224.jpg,Experiments/experiment_24/225.jpg,Experiments/experiment_24/226.jpg,Experiments/experiment_24/227.jpg,892,1,2023-09-17_10h40.20.333,Occlusion_Psychophysics,2022.1.4,Win32,32,,,left,"[""right""]",[1.02800000000002],False,,0.0,0.0,56.0,56.0,56.0,1.0,,,,,,
,,,,,,,,,,,,,,,,,,,,,0.05,,,,,,,,,,Stimuli/psy_fixed_rotation_30_objects_occ0.7_0.9s/images/train/n04379243_-7/n04256520_4/img_quatre_dining_table_club_house_italia_nautilus_sofa_2015_gray.jpg,n04379243_-7,n04256520_4,fixed,0.763075,n04256520_4,Stimuli/psy_fixed_rotation_30_objects_occ0.7_0.9s/images/train/n04379243_-7/n04256520_4/img_quatre_dining_table_club_house_italia_nautilus_sofa_2015-3_gray.png,foreground,same as foreground,n04379243_-7,n02883344_-1,Stimuli/canonical view 2/img_n04379243_-7_gray.jpg,Stimuli/canonical view 2/img_n02883344_-1_gray.jpg,random,right,Experiments/experiment_24/228.jpg,Experiments/experiment_24/229.jpg,Experiments/experiment_24/230.jpg,Experiments/experiment_24/231.jpg,892,1,2023-09-17_10h40.20.333,Occlusion_Psychophysics,2022.1.4,Win32,32,,,right,"[""right""]",[1.5539999999999736],False,,0.0,0.0,57.0,57.0,57.0,1.0,,,,,,
,,,,,,,,,,,,,,,,,,,,,0.05,,,,,,,,,,Stimuli/psy_fixed_rotation_30_objects_occ0.7_0.9s/images/train/n02883344_0/n02883344_15/img_b03_box_microwave_box_2010_gray.jpg,n02883344_0,n02883344_15,fixed,0.809079,n04256520_4,Stimuli/psy_fixed_rotation_30_objects_occ0.7_0.9s/images/train/n04256520_5/n04256520_4/img_meridiani_belmondo_bench_sofa_club_house_italia_nautilus_sofa_2010-3_gray.png,random,fixed,n02883344_0,n02883344_15,Stimuli/canonical view 2/img_n02883344_0_gray.jpg,Stimuli/canonical view 2/img_n02883344_15_gray.jpg,foreground,left,Experiments/experiment_24/232.jpg,Experiments/experiment_24/233.jpg,Experiments/experiment_24/234.jpg,Experiments/experiment_24/235.jpg,892,1,2023-09-17_10h40.20.333,Occlusion_Psychophysics,2022.1.4,Win32,32,,,right,"[""right""]",[0.8660000000000991],False,,0.0,0.0,58.0,58.0,58.0,1.0,,,,,,
,,,,,,,,,,,,,,,,,,,,,0.025,,,,,,,,,,Stimuli/psy_fixed_rotation_30_objects_occ0.7_0.9s/images/train/n04379243_8/n03928116_4/img_glass_table_dp_33_b_2013__vray_2002_gray.jpg,n04379243_8,n03928116_4,fixed,0.737215,n03928116_4,Stimuli/psy_fixed_rotation_30_objects_occ0.7_0.9s/images/train/n04379243_8/n03928116_4/img_glass_table_dp_33_b_2013__vray_2002-3_gray.png,foreground,same as foreground,n04379243_8,n03928116_4,Stimuli/canonical view 2/img_n04379243_8_gray.jpg,Stimuli/canonical view 2/img_n03928116_4_gray.jpg,foreground,left,Experiments/experiment_24/236.jpg,Experiments/experiment_24/237.jpg,Experiments/experiment_24/238.jpg,Experiments/experiment_24/239.jpg,892,1,2023-09-17_10h40.20.333,Occlusion_Psychophysics,2022.1.4,Win32,32,,,left,"[""left""]",[0.8300000000000409],False,,0.0,0.0,59.0,59.0,59.0,1.0,,,,,,
,,,,,,,,,,,,,,,,,,,,,0.025,,,,,,,,,,Stimuli/psy_fixed_rotation_30_objects_occ0.7_0.9s/images/train/n04256520_5/n03928116_0/img_meridiani_belmondo_bench_sofa_b02_piano_2011_gray.jpg,n04256520_5,n03928116_0,fixed,0.715044,n02933112_-18,Stimuli/psy_flexible_rotation_30_objects_occ0.7_0.9s/images/train/n04405907_9/n02933112_-18/img_vray_004_cgaxis_models_48_26_vray_composite_2000-3_gray.png,random,flexible,n04256520_5,n03001627_9,Stimuli/canonical view 2/img_n04256520_5_gray.jpg,Stimuli/canonical view 2/img_n03001627_9_gray.jpg,random,left,Experiments/experiment_24/240.jpg,Experiments/experiment_24/241.jpg,Experiments/experiment_24/242.jpg,Experiments/experiment_24/243.jpg,892,1,2023-09-17_10h40.20.333,Occlusion_Psychophysics,2022.1.4,Win32,32,,,left,"[""right""]",[1.3949999999999818],False,,0.0,0.0,60.0,60.0,60.0,1.0,,,,,,
,,,,,,,,,,,,,,,,,,,,,0.025,,,,,,,,,,Stimuli/psy_flexible_rotation_30_objects_occ0.7_0.9s/images/train/n03928116_10/n04256520_5/img_ydp_103_r_2012__vray_meridiani_belmondo_bench_sofa_2005_gray.jpg,n03928116_10,n04256520_5,flexible,0.843651,n04405907_5,Stimuli/psy_fixed_rotation_30_objects_occ0.7_0.9s/images/train/n04256520_9/n04405907_5/img_napoleon_iii_sofa_samsung_40_uhd_smart_tv_2011_2005-3_gray.png,random,fixed,n03928116_10,n04256520_5,Stimuli/canonical view 2/img_n03928116_10_gray.jpg,Stimuli/canonical view 2/img_n04256520_5_gray.jpg,foreground,right,Experiments/experiment_24/244.jpg,Experiments/experiment_24/245.jpg,Experiments/experiment_24/246.jpg,Experiments/experiment_24/247.jpg,892,1,2023-09-17_10h40.20.333,Occlusion_Psychophysics,2022.1.4,Win32,32,,,left,"[""left""]",[1.0500000000000682],False,,0.0,0.0,61.0,61.0,61.0,1.0,,,,,,
,,,,,,,,,,,,,,,,,,,,,0.05,,,,,,,,,,Stimuli/psy_flexible_rotation_30_objects_occ0.7_0.9s/images/train/n02933112_-2/n04405907_8/img_sink_base_white_wood_stylized_tv_2012_gray.jpg,n02933112_-2,n04405907_8,flexible,0.823656,n04256520_5,Stimuli/psy_fixed_rotation_30_objects_occ0.7_0.9s/images/train/n03928116_0/n04256520_5/img_b02_piano_meridiani_belmondo_bench_sofa_2008-3_gray.png,random,fixed,n02933112_-2,n04405907_5,Stimuli/canonical view 2/img_n02933112_-2_gray.jpg,Stimuli/canonical view 2/img_n04405907_5_gray.jpg,random,left,Experiments/experiment_24/248.jpg,Experiments/experiment_24/249.jpg,Experiments/experiment_24/250.jpg,Experiments/experiment_24/251.jpg,892,1,2023-09-17_10h40.20.333,Occlusion_Psychophysics,2022.1.4,Win32,32,,,left,"[""left""]",[1.0230000000000246],False,,0.0,0.0,62.0,62.0,62.0,1.0,,,,,,
,,,,,,,,,,,,,,,,,,,,,0.025,,,,,,,,,,Stimuli/psy_flexible_rotation_30_objects_occ0.7_0.9s/images/train/n02933112_-2/n03928116_0/img_sink_base_white_wood_b02_piano_2012_gray.jpg,n02933112_-2,n03928116_0,flexible,0.718504,n02828884_3,Stimuli/psy_fixed_rotation_30_objects_occ0.7_0.9s/images/train/n03928116_10/n02828884_3/img_ydp_103_r_2012__vray_b04_wood_metal_park_bench_2014-3_gray.png,random,fixed,n02933112_-2,n02818832_0,Stimuli/canonical view 2/img_n02933112_-2_gray.jpg,Stimuli/canonical view 2/img_n02818832_0_gray.jpg,random,right,Experiments/experiment_24/252.jpg,Experiments/experiment_24/253.jpg,Experiments/experiment_24/254.jpg,Experiments/experiment_24/255.jpg,892,1,2023-09-17_10h40.20.333,Occlusion_Psychophysics,2022.1.4,Win32,32,,,right,"[""right""]",[1.2670000000000528],False,,0.0,0.0,63.0,63.0,63.0,1.0,,,,,,
,,,,,,,,,,,,,,,,,,,,,0.025,,,,,,,,,,Stimuli/psy_fixed_rotation_30_objects_occ0.7_0.9s/images/train/n04256520_9/n02933112_4/img_napoleon_iii_sofa_buffet_2002_gray.jpg,n04256520_9,n02933112_4,fixed,0.851868,n02883344_-1,Stimuli/psy_fixed_rotation_30_objects_occ0.7_0.9s/images/train/n04070727_0/n02883344_-1/img_b03_ka90ivi20r_2013__vray_woven_box_2000-3_gray.png,random,fixed,n04256520_9,n02933112_4,Stimuli/canonical view 2/img_n04256520_9_gray.jpg,Stimuli/canonical view 2/img_n02933112_4_gray.jpg,foreground,left,Experiments/experiment_24/256.jpg,Experiments/experiment_24/257.jpg,Experiments/experiment_24/258.jpg,Experiments/experiment_24/259.jpg,892,1,2023-09-17_10h40.20.333,Occlusion_Psychophysics,2022.1.4,Win32,32,,,right,"[""right""]",[0.9650000000000318],False,,0.0,0.0,64.0,64.0,64.0,1.0,,,,,,
,,,,,,,,,,,,,,,,,,,,,0.025,,,,,,,,,,Stimuli/psy_fixed_rotation_30_objects_occ0.7_0.9s/images/train/n04256520_4/n03928116_10/img_club_house_italia_nautilus_sofa_ydp_103_r_2012__vray_2008_gray.jpg,n04256520_4,n03928116_10,fixed,0.721322,n03928116_10,Stimuli/psy_fixed_rotation_30_objects_occ0.7_0.9s/images/train/n04256520_4/n03928116_10/img_club_house_italia_nautilus_sofa_ydp_103_r_2012__vray_2008-3_gray.png,foreground,same as foreground,n04256520_4,n04405907_8,Stimuli/canonical view 2/img_n04256520_4_gray.jpg,Stimuli/canonical view 2/img_n04405907_8_gray.jpg,random,right,Experiments/experiment_24/260.jpg,Experiments/experiment_24/261.jpg,Experiments/experiment_24/262.jpg,Experiments/experiment_24/263.jpg,892,1,2023-09-17_10h40.20.333,Occlusion_Psychophysics,2022.1.4,Win32,32,,,right,"[""right""]",[0.8959999999999582],False,,0.0,0.0,65.0,65.0,65.0,1.0,,,,,,
,,,,,,,,,,,,,,,,,,,,,0.025,,,,,,,,,,Stimuli/psy_fixed_rotation_30_objects_occ0.7_0.9s/images/train/n03928116_10/n02883344_0/img_ydp_103_r_2012__vray_b03_box_2004_gray.jpg,n03928116_10,n02883344_0,fixed,0.722937,n02933112_4,Stimuli/psy_flexible_rotation_30_objects_occ0.7_0.9s/images/train/n04379243_-7/n02933112_4/img_quatre_dining_table_buffet_2012-3_gray.png,random,flexible,n03928116_10,n02818832_0,Stimuli/canonical view 2/img_n03928116_10_gray.jpg,Stimuli/canonical view 2/img_n02818832_0_gray.jpg,random,right,Experiments/experiment_24/264.jpg,Experiments/experiment_24/265.jpg,Experiments/experiment_24/266.jpg,Experiments/experiment_24/267.jpg,892,1,2023-09-17_10h40.20.333,Occlusion_Psychophysics,2022.1.4,Win32,32,,,right,"[""right""]",[0.9009999999999536],False,,0.0,0.0,66.0,66.0,66.0,1.0,,,,,,
,,,,,,,,,,,,,,,,,,,,,0.025,,,,,,,,,,Stimuli/psy_fixed_rotation_30_objects_occ0.7_0.9s/images/train/n04256520_4/n04256520_9/img_club_house_italia_nautilus_sofa_napoleon_iii_sofa_2005_gray.jpg,n04256520_4,n04256520_9,fixed,0.746847,n04256520_9,Stimuli/psy_fixed_rotation_30_objects_occ0.7_0.9s/images/train/n04256520_4/n04256520_9/img_club_house_italia_nautilus_sofa_napoleon_iii_sofa_2005-3_gray.png,foreground,same as foreground,n04256520_4,n04256520_9,Stimuli/canonical view 2/img_n04256520_4_gray.jpg,Stimuli/canonical view 2/img_n04256520_9_gray.jpg,foreground,right,Experiments/experiment_24/268.jpg,Experiments/experiment_24/269.jpg,Experiments/experiment_24/270.jpg,Experiments/experiment_24/271.jpg,892,1,2023-09-17_10h40.20.333,Occlusion_Psychophysics,2022.1.4,Win32,32,,,left,"[""left""]",[0.9959999999999809],False,,0.0,0.0,67.0,67.0,67.0,1.0,,,,,,
,,,,,,,,,,,,,,,,,,,,,0.05,,,,,,,,,,Stimuli/psy_fixed_rotation_30_objects_occ0.7_0.9s/images/train/n02818832_3/n04405907_9/img_b05_ccm_contemporary_bed_max2013_vray_004_2007_gray.jpg,n02818832_3,n04405907_9,fixed,0.780987,n02933112_-2,Stimuli/psy_flexible_rotation_30_objects_occ0.7_0.9s/images/train/n03001627_8/n02933112_-2/img_chair_billiani_doll_sink_base_white_wood_2006-3_gray.png,random,flexible,n02818832_3,n04405907_9,Stimuli/canonical view 2/img_n02818832_3_gray.jpg,Stimuli/canonical view 2/img_n04405907_9_gray.jpg,foreground,right,Experiments/experiment_24/272.jpg,Experiments/experiment_24/273.jpg,Experiments/experiment_24/274.jpg,Experiments/experiment_24/275.jpg,892,1,2023-09-17_10h40.20.333,Occlusion_Psychophysics,2022.1.4,Win32,32,,,right,"[""left""]",[1.2770000000000437],False,,0.0,0.0,68.0,68.0,68.0,1.0,,,,,,
,,,,,,,,,,,,,,,,,,,,,0.025,,,,,,,,,,Stimuli/psy_flexible_rotation_30_objects_occ0.7_0.9s/images/train/n03001627_-2/n04256520_9/img_wood_chair_napoleon_iii_sofa_2005_gray.jpg,n03001627_-2,n04256520_9,flexible,0.719427,n04256520_9,Stimuli/psy_flexible_rotation_30_objects_occ0.7_0.9s/images/train/n03001627_-2/n04256520_9/img_wood_chair_napoleon_iii_sofa_2005-3_gray.png,foreground,same as foreground,n03001627_-2,n04256520_9,Stimuli/canonical view 2/img_n03001627_-2_gray.jpg,Stimuli/canonical view 2/img_n04256520_9_gray.jpg,foreground,left,Experiments/experiment_24/276.jpg,Experiments/experiment_24/277.jpg,Experiments/experiment_24/278.jpg,Experiments/experiment_24/279.jpg,892,1,2023-09-17_10h40.20.333,Occlusion_Psychophysics,2022.1.4,Win32,32,,,left,"[""left""]",[1.3940000000000055],False,,0.0,0.0,69.0,69.0,69.0,1.0,,,,,,
,,,,,,,,,,,,,,,,,,,,,0.05,,,,,,,,,,Stimuli/psy_flexible_rotation_30_objects_occ0.7_0.9s/images/train/n04379243_0/n04256520_9/img_17th_c._monastery_dining_table_2010_napoleon_iii_sofa_2007_gray.jpg,n04379243_0,n04256520_9,flexible,0.765592,n04256520_9,Stimuli/psy_flexible_rotation_30_objects_occ0.7_0.9s/images/train/n04379243_0/n04256520_9/img_17th_c._monastery_dining_table_2010_napoleon_iii_sofa_2007-3_gray.png,foreground,same as foreground,n04379243_0,n02828884_4,Stimuli/canonical view 2/img_n04379243_0_gray.jpg,Stimuli/canonical view 2/img_n02828884_4_gray.jpg,random,left,Experiments/experiment_24/280.jpg,Experiments/experiment_24/281.jpg,Experiments/experiment_24/282.jpg,Experiments/experiment_24/283.jpg,892,1,2023-09-17_10h40.20.333,Occlusion_Psychophysics,2022.1.4,Win32,32,,,left,"[""left""]",[0.8460000000000036],False,,0.0,0.0,70.0,70.0,70.0,1.0,,,,,,
,,,,,,,,,,,,,,,,,,,,,0.025,,,,,,,,,,Stimuli/psy_flexible_rotation_30_objects_occ0.7_0.9s/images/train/n02818832_9/n02883344_-1/img_bed01_blue_woven_box_2002_gray.jpg,n02818832_9,n02883344_-1,flexible,0.886856,n02883344_-1,Stimuli/psy_flexible_rotation_30_objects_occ0.7_0.9s/images/train/n02818832_9/n02883344_-1/img_bed01_blue_woven_box_2002-3_gray.png,foreground,same as foreground,n02818832_9,n04379243_0,Stimuli/canonical view 2/img_n02818832_9_gray.jpg,Stimuli/canonical view 2/img_n04379243_0_gray.jpg,random,left,Experiments/experiment_24/284.jpg,Experiments/experiment_24/285.jpg,Experiments/experiment_24/286.jpg,Experiments/experiment_24/287.jpg,892,1,2023-09-17_10h40.20.333,Occlusion_Psychophysics,2022.1.4,Win32,32,,,right,"[""right""]",[1.0900000000000318],False,,0.0,0.0,71.0,71.0,71.0,1.0,,,,,,
,,,,,,,,,,,,,,,,,,,,,0.025,,,,,,,,,,Stimuli/psy_fixed_rotation_30_objects_occ0.7_0.9s/images/train/n04256520_5/n02883344_0/img_meridiani_belmondo_bench_sofa_b03_box_2013_gray.jpg,n04256520_5,n02883344_0,fixed,0.794784,n02883344_0,Stimuli/psy_fixed_rotation_30_objects_occ0.7_0.9s/images/train/n04256520_5/n02883344_0/img_meridiani_belmondo_bench_sofa_b03_box_2013-3_gray.png,foreground,same as foreground,n04256520_5,n02883344_0,Stimuli/canonical view 2/img_n04256520_5_gray.jpg,Stimuli/canonical view 2/img_n02883344_0_gray.jpg,foreground,right,Experiments/experiment_24/288.jpg,Experiments/experiment_24/289.jpg,Experiments/experiment_24/290.jpg,Experiments/experiment_24/291.jpg,892,1,2023-09-17_10h40.20.333,Occlusion_Psychophysics,2022.1.4,Win32,32,,,right,"[""right""]",[0.8629999999999427],False,,0.0,0.0,72.0,72.0,72.0,1.0,,,,,,
,,,,,,,,,,,,,,,,,,,,,0.05,,,,,,,,,,Stimuli/psy_fixed_rotation_30_objects_occ0.7_0.9s/images/train/n04379243_8/n04405907_5/img_glass_table_samsung_40_uhd_smart_tv_2011_2005_gray.jpg,n04379243_8,n04405907_5,fixed,0.756343,n04405907_5,Stimuli/psy_fixed_rotation_30_objects_occ0.7_0.9s/images/train/n04379243_8/n04405907_5/img_glass_table_samsung_40_uhd_smart_tv_2011_2005-3_gray.png,foreground,same as foreground,n04379243_8,n02828884_9,Stimuli/canonical view 2/img_n04379243_8_gray.jpg,Stimuli/canonical view 2/img_n02828884_9_gray.jpg,random,right,Experiments/experiment_24/292.jpg,Experiments/experiment_24/293.jpg,Experiments/experiment_24/294.jpg,Experiments/experiment_24/295.jpg,892,1,2023-09-17_10h40.20.333,Occlusion_Psychophysics,2022.1.4,Win32,32,,,left,"[""left""]",[0.8310000000000173],False,,0.0,0.0,73.0,73.0,73.0,1.0,,,,,,
,,,,,,,,,,,,,,,,,,,,,0.05,,,,,,,,,,Stimuli/psy_flexible_rotation_30_objects_occ0.7_0.9s/images/train/n04256520_9/n02818832_3/img_napoleon_iii_sofa_b05_ccm_contemporary_bed_max2013_2008_gray.jpg,n04256520_9,n02818832_3,flexible,0.807981,n02818832_3,Stimuli/psy_flexible_rotation_30_objects_occ0.7_0.9s/images/train/n04256520_9/n02818832_3/img_napoleon_iii_sofa_b05_ccm_contemporary_bed_max2013_2008-3_gray.png,foreground,same as foreground,n04256520_9,n02818832_3,Stimuli/canonical view 2/img_n04256520_9_gray.jpg,Stimuli/canonical view 2/img_n02818832_3_gray.jpg,foreground,left,Experiments/experiment_24/296.jpg,Experiments/experiment_24/297.jpg,Experiments/experiment_24/298.jpg,Experiments/experiment_24/299.jpg,892,1,2023-09-17_10h40.20.333,Occlusion_Psychophysics,2022.1.4,Win32,32,,,right,"[""right""]",[0.9680000000000746],False,,0.0,0.0,74.0,74.0,74.0,1.0,,,,,,
,,,,,,,,,,,,,,,,,,,,,0.025,,,,,,,,,,Stimuli/psy_flexible_rotation_30_objects_occ0.7_0.9s/images/train/n02818832_0/n02818832_9/img_b03_the_sofa_and_chair_company_-_stanley_bed_2014_bed01_blue_2010_gray.jpg,n02818832_0,n02818832_9,flexible,0.719828,n02818832_9,Stimuli/psy_flexible_rotation_30_objects_occ0.7_0.9s/images/train/n02818832_0/n02818832_9/img_b03_the_sofa_and_chair_company_-_stanley_bed_2014_bed01_blue_2010-3_gray.png,foreground,same as foreground,n02818832_0,n02818832_9,Stimuli/canonical view 2/img_n02818832_0_gray.jpg,Stimuli/canonical view 2/img_n02818832_9_gray.jpg,foreground,left,Experiments/experiment_24/300.jpg,Experiments/experiment_24/301.jpg,Experiments/experiment_24/302.jpg,Experiments/experiment_24/303.jpg,892,1,2023-09-17_10h40.20.333,Occlusion_Psychophysics,2022.1.4,Win32,32,,,left,"[""left""]",[1.05600000000004],False,,0.0,0.0,75.0,75.0,75.0,1.0,,,,,,
,,,,,,,,,,,,,,,,,,,,,0.05,,,,,,,,,,Stimuli/psy_fixed_rotation_30_objects_occ0.7_0.9s/images/train/n02818832_9/n02933112_-18/img_bed01_blue_cgaxis_models_48_26_vray_composite_2012_gray.jpg,n02818832_9,n02933112_-18,fixed,0.755165,n02933112_-18,Stimuli/psy_fixed_rotation_30_objects_occ0.7_0.9s/images/train/n02818832_9/n02933112_-18/img_bed01_blue_cgaxis_models_48_26_vray_composite_2012-3_gray.png,foreground,same as foreground,n02818832_9,n03001627_8,Stimuli/canonical view 2/img_n02818832_9_gray.jpg,Stimuli/canonical view 2/img_n03001627_8_gray.jpg,random,right,Experiments/experiment_24/304.jpg,Experiments/experiment_24/305.jpg,Experiments/experiment_24/306.jpg,Experiments/experiment_24/307.jpg,892,1,2023-09-17_10h40.20.333,Occlusion_Psychophysics,2022.1.4,Win32,32,,,left,"[""right""]",[0.9619999999999891],False,,0.0,0.0,76.0,76.0,76.0,1.0,,,,,,
,,,,,,,,,,,,,,,,,,,,,0.025,,,,,,,,,,Stimuli/psy_fixed_rotation_30_objects_occ0.7_0.9s/images/train/n03928116_10/n04256520_4/img_ydp_103_r_2012__vray_club_house_italia_nautilus_sofa_2006_gray.jpg,n03928116_10,n04256520_4,fixed,0.890439,n04256520_4,Stimuli/psy_fixed_rotation_30_objects_occ0.7_0.9s/images/train/n03928116_10/n04256520_4/img_ydp_103_r_2012__vray_club_house_italia_nautilus_sofa_2006-3_gray.png,foreground,same as foreground,n03928116_10,n04256520_5,Stimuli/canonical view 2/img_n03928116_10_gray.jpg,Stimuli/canonical view 2/img_n04256520_5_gray.jpg,random,right,Experiments/experiment_24/308.jpg,Experiments/experiment_24/309.jpg,Experiments/experiment_24/310.jpg,Experiments/experiment_24/311.jpg,892,1,2023-09-17_10h40.20.333,Occlusion_Psychophysics,2022.1.4,Win32,32,,,left,"[""right""]",[0.8260000000000218],False,,0.0,0.0,77.0,77.0,77.0,1.0,,,,,,
,,,,,,,,,,,,,,,,,,,,,0.05,,,,,,,,,,Stimuli/psy_flexible_rotation_30_objects_occ0.7_0.9s/images/train/n03928116_4/n03928116_10/img_dp_33_b_2013__vray_ydp_103_r_2012__vray_2012_gray.jpg,n03928116_4,n03928116_10,flexible,0.814096,n03928116_10,Stimuli/psy_flexible_rotation_30_objects_occ0.7_0.9s/images/train/n03928116_4/n03928116_10/img_dp_33_b_2013__vray_ydp_103_r_2012__vray_2012-3_gray.png,foreground,same as foreground,n03928116_4,n02818832_3,Stimuli/canonical view 2/img_n03928116_4_gray.jpg,Stimuli/canonical view 2/img_n02818832_3_gray.jpg,random,left,Experiments/experiment_24/312.jpg,Experiments/experiment_24/313.jpg,Experiments/experiment_24/314.jpg,Experiments/experiment_24/315.jpg,892,1,2023-09-17_10h40.20.333,Occlusion_Psychophysics,2022.1.4,Win32,32,,,right,"[""left""]",[0.8980000000000246],False,,0.0,0.0,78.0,78.0,78.0,1.0,,,,,,
,,,,,,,,,,,,,,,,,,,,,0.025,,,,,,,,,,Stimuli/psy_flexible_rotation_30_objects_occ0.7_0.9s/images/train/n03928116_10/n02933112_4/img_ydp_103_r_2012__vray_buffet_2008_gray.jpg,n03928116_10,n02933112_4,flexible,0.747192,n02818832_3,Stimuli/psy_fixed_rotation_30_objects_occ0.7_0.9s/images/train/n02828884_3/n02818832_3/img_b04_wood_metal_park_bench_b05_ccm_contemporary_bed_max2013_2013-3_gray.png,random,fixed,n03928116_10,n02883344_-1,Stimuli/canonical view 2/img_n03928116_10_gray.jpg,Stimuli/canonical view 2/img_n02883344_-1_gray.jpg,random,left,Experiments/experiment_24/316.jpg,Experiments/experiment_24/317.jpg,Experiments/experiment_24/318.jpg,Experiments/experiment_24/319.jpg,892,1,2023-09-17_10h40.20.333,Occlusion_Psychophysics,2022.1.4,Win32,32,,,left,"[""right""]",[0.900000000000091],False,,0.0,0.0,79.0,79.0,79.0,1.0,,,,,,
,,,,,,,,,,,,,,,,,,,,,0.025,,,,,,,,,,Stimuli/psy_flexible_rotation_30_objects_occ0.7_0.9s/images/train/n04405907_9/n04256520_4/img_vray_004_club_house_italia_nautilus_sofa_2015_gray.jpg,n04405907_9,n04256520_4,flexible,0.718513,n04256520_4,Stimuli/psy_flexible_rotation_30_objects_occ0.7_0.9s/images/train/n04405907_9/n04256520_4/img_vray_004_club_house_italia_nautilus_sofa_2015-3_gray.png,foreground,same as foreground,n04405907_9,n02933112_-2,Stimuli/canonical view 2/img_n04405907_9_gray.jpg,Stimuli/canonical view 2/img_n02933112_-2_gray.jpg,random,right,Experiments/experiment_24/320.jpg,Experiments/experiment_24/321.jpg,Experiments/experiment_24/322.jpg,Experiments/experiment_24/323.jpg,892,1,2023-09-17_10h40.20.333,Occlusion_Psychophysics,2022.1.4,Win32,32,,,left,"[""right""]",[0.9570000000001073],False,,0.0,0.0,80.0,80.0,80.0,1.0,,,,,,
,,,,,,,,,,,,,,,,,,,,,0.025,,,,,,,,,,Stimuli/psy_flexible_rotation_30_objects_occ0.7_0.9s/images/train/n04405907_8/n04405907_5/img_stylized_tv_samsung_40_uhd_smart_tv_2011_2002_gray.jpg,n04405907_8,n04405907_5,flexible,0.701436,n04405907_5,Stimuli/psy_flexible_rotation_30_objects_occ0.7_0.9s/images/train/n04405907_8/n04405907_5/img_stylized_tv_samsung_40_uhd_smart_tv_2011_2002-3_gray.png,foreground,same as foreground,n04405907_8,n03928116_10,Stimuli/canonical view 2/img_n04405907_8_gray.jpg,Stimuli/canonical view 2/img_n03928116_10_gray.jpg,random,right,Experiments/experiment_24/324.jpg,Experiments/experiment_24/325.jpg,Experiments/experiment_24/326.jpg,Experiments/experiment_24/327.jpg,892,1,2023-09-17_10h40.20.333,Occlusion_Psychophysics,2022.1.4,Win32,32,,,left,"[""left""]",[1.0510000000000446],False,,0.0,0.0,81.0,81.0,81.0,1.0,,,,,,
,,,,,,,,,,,,,,,,,,,,,0.05,,,,,,,,,,Stimuli/psy_fixed_rotation_30_objects_occ0.7_0.9s/images/train/n04379243_8/n02883344_0/img_glass_table_b03_box_2001_gray.jpg,n04379243_8,n02883344_0,fixed,0.732316,n02883344_15,Stimuli/psy_flexible_rotation_30_objects_occ0.7_0.9s/images/train/n02828884_4/n02883344_15/img_b05_c-5_classic_series_bench-2012_microwave_box_2002-3_gray.png,random,flexible,n04379243_8,n02883344_-1,Stimuli/canonical view 2/img_n04379243_8_gray.jpg,Stimuli/canonical view 2/img_n02883344_-1_gray.jpg,random,right,Experiments/experiment_24/328.jpg,Experiments/experiment_24/329.jpg,Experiments/experiment_24/330.jpg,Experiments/experiment_24/331.jpg,892,1,2023-09-17_10h40.20.333,Occlusion_Psychophysics,2022.1.4,Win32,32,,,right,"[""right""]",[0.7400000000000091],False,,0.0,0.0,82.0,82.0,82.0,1.0,,,,,,
,,,,,,,,,,,,,,,,,,,,,0.05,,,,,,,,,,Stimuli/psy_fixed_rotation_30_objects_occ0.7_0.9s/images/train/n02818832_0/n04379243_-7/img_b03_the_sofa_and_chair_company_-_stanley_bed_2014_quatre_dining_table_2002_gray.jpg,n02818832_0,n04379243_-7,fixed,0.736558,n04405907_5,Stimuli/psy_fixed_rotation_30_objects_occ0.7_0.9s/images/train/n03001627_8/n04405907_5/img_chair_billiani_doll_samsung_40_uhd_smart_tv_2011_2006-3_gray.png,random,fixed,n02818832_0,n03928116_4,Stimuli/canonical view 2/img_n02818832_0_gray.jpg,Stimuli/canonical view 2/img_n03928116_4_gray.jpg,random,right,Experiments/experiment_24/332.jpg,Experiments/experiment_24/333.jpg,Experiments/experiment_24/334.jpg,Experiments/experiment_24/335.jpg,892,1,2023-09-17_10h40.20.333,Occlusion_Psychophysics,2022.1.4,Win32,32,,,right,"[""right""]",[0.9600000000000364],False,,0.0,0.0,83.0,83.0,83.0,1.0,,,,,,
,,,,,,,,,,,,,,,,,,,,,0.025,,,,,,,,,,Stimuli/psy_fixed_rotation_30_objects_occ0.7_0.9s/images/train/n02883344_15/n03928116_4/img_microwave_box_dp_33_b_2013__vray_2002_gray.jpg,n02883344_15,n03928116_4,fixed,0.740162,n03928116_4,Stimuli/psy_fixed_rotation_30_objects_occ0.7_0.9s/images/train/n02883344_15/n03928116_4/img_microwave_box_dp_33_b_2013__vray_2002-3_gray.png,foreground,same as foreground,n02883344_15,n04405907_9,Stimuli/canonical view 2/img_n02883344_15_gray.jpg,Stimuli/canonical view 2/img_n04405907_9_gray.jpg,random,left,Experiments/experiment_24/336.jpg,Experiments/experiment_24/337.jpg,Experiments/experiment_24/338.jpg,Experiments/experiment_24/339.jpg,892,1,2023-09-17_10h40.20.333,Occlusion_Psychophysics,2022.1.4,Win32,32,,,right,"[""right""]",[0.8690000000000282],False,,0.0,0.0,84.0,84.0,84.0,1.0,,,,,,
,,,,,,,,,,,,,,,,,,,,,0.05,,,,,,,,,,Stimuli/psy_fixed_rotation_30_objects_occ0.7_0.9s/images/train/n04379243_-7/n02883344_-1/img_quatre_dining_table_woven_box_2006_gray.jpg,n04379243_-7,n02883344_-1,fixed,0.847952,n04405907_5,Stimuli/psy_fixed_rotation_30_objects_occ0.7_0.9s/images/train/n04405907_8/n04405907_5/img_stylized_tv_samsung_40_uhd_smart_tv_2011_2006-3_gray.png,random,fixed,n04379243_-7,n03001627_9,Stimuli/canonical view 2/img_n04379243_-7_gray.jpg,Stimuli/canonical view 2/img_n03001627_9_gray.jpg,random,left,Experiments/experiment_24/340.jpg,Experiments/experiment_24/341.jpg,Experiments/experiment_24/342.jpg,Experiments/experiment_24/343.jpg,892,1,2023-09-17_10h40.20.333,Occlusion_Psychophysics,2022.1.4,Win32,32,,,right,"[""right""]",[1.0639999999999645],False,,0.0,0.0,85.0,85.0,85.0,1.0,,,,,,
,,,,,,,,,,,,,,,,,,,,,0.025,,,,,,,,,,Stimuli/psy_fixed_rotation_30_objects_occ0.7_0.9s/images/train/n02883344_-1/n04256520_5/img_woven_box_meridiani_belmondo_bench_sofa_2006_gray.jpg,n02883344_-1,n04256520_5,fixed,0.744952,n04405907_9,Stimuli/psy_flexible_rotation_30_objects_occ0.7_0.9s/images/train/n02933112_-2/n04405907_9/img_sink_base_white_wood_vray_004_2005-3_gray.png,random,flexible,n02883344_-1,n04379243_-7,Stimuli/canonical view 2/img_n02883344_-1_gray.jpg,Stimuli/canonical view 2/img_n04379243_-7_gray.jpg,random,right,Experiments/experiment_24/344.jpg,Experiments/experiment_24/345.jpg,Experiments/experiment_24/346.jpg,Experiments/experiment_24/347.jpg,892,1,2023-09-17_10h40.20.333,Occlusion_Psychophysics,2022.1.4,Win32,32,,,right,"[""right""]",[1.0550000000000637],False,,0.0,0.0,86.0,86.0,86.0,1.0,,,,,,
,,,,,,,,,,,,,,,,,,,,,0.05,,,,,,,,,,Stimuli/psy_flexible_rotation_30_objects_occ0.7_0.9s/images/train/n04256520_9/n04405907_5/img_napoleon_iii_sofa_samsung_40_uhd_smart_tv_2011_2002_gray.jpg,n04256520_9,n04405907_5,flexible,0.726113,n03928116_4,Stimuli/psy_fixed_rotation_30_objects_occ0.7_0.9s/images/train/n04379243_-7/n03928116_4/img_quatre_dining_table_dp_33_b_2013__vray_2009-3_gray.png,random,fixed,n04256520_9,n04405907_5,Stimuli/canonical view 2/img_n04256520_9_gray.jpg,Stimuli/canonical view 2/img_n04405907_5_gray.jpg,foreground,left,Experiments/experiment_24/348.jpg,Experiments/experiment_24/349.jpg,Experiments/experiment_24/350.jpg,Experiments/experiment_24/351.jpg,892,1,2023-09-17_10h40.20.333,Occlusion_Psychophysics,2022.1.4,Win32,32,,,left,"[""left""]",[1.1399999999999864],False,,0.0,0.0,87.0,87.0,87.0,1.0,,,,,,
,,,,,,,,,,,,,,,,,,,,,0.05,,,,,,,,,,Stimuli/psy_fixed_rotation_30_objects_occ0.7_0.9s/images/train/n02828884_3/n04405907_5/img_b04_wood_metal_park_bench_samsung_40_uhd_smart_tv_2011_2007_gray.jpg,n02828884_3,n04405907_5,fixed,0.712224,n04405907_5,Stimuli/psy_fixed_rotation_30_objects_occ0.7_0.9s/images/train/n02828884_3/n04405907_5/img_b04_wood_metal_park_bench_samsung_40_uhd_smart_tv_2011_2007-3_gray.png,foreground,same as foreground,n02828884_3,n02883344_-1,Stimuli/canonical view 2/img_n02828884_3_gray.jpg,Stimuli/canonical view 2/img_n02883344_-1_gray.jpg,random,right,Experiments/experiment_24/352.jpg,Experiments/experiment_24/353.jpg,Experiments/experiment_24/354.jpg,Experiments/experiment_24/355.jpg,892,1,2023-09-17_10h40.20.333,Occlusion_Psychophysics,2022.1.4,Win32,32,,,right,"[""right""]",[1.0559999999999263],True,right,1.0,0.0,88.0,88.0,88.0,1.0,1.878,,,,,
,,,,,,,,,,,,,,,,,,,,,0.05,,,,,,,,,,Stimuli/psy_flexible_rotation_30_objects_occ0.7_0.9s/images/train/n03928116_10/n04256520_5/img_ydp_103_r_2012__vray_meridiani_belmondo_bench_sofa_2014_gray.jpg,n03928116_10,n04256520_5,flexible,0.705203,n04256520_5,Stimuli/psy_flexible_rotation_30_objects_occ0.7_0.9s/images/train/n03928116_10/n04256520_5/img_ydp_103_r_2012__vray_meridiani_belmondo_bench_sofa_2014-3_gray.png,foreground,same as foreground,n03928116_10,n04256520_5,Stimuli/canonical view 2/img_n03928116_10_gray.jpg,Stimuli/canonical view 2/img_n04256520_5_gray.jpg,foreground,left,Experiments/experiment_24/356.jpg,Experiments/experiment_24/357.jpg,Experiments/experiment_24/358.jpg,Experiments/experiment_24/359.jpg,892,1,2023-09-17_10h40.20.333,Occlusion_Psychophysics,2022.1.4,Win32,32,,,left,"[""left""]",[1.2410000000000991],True,right,1.0,0.0,89.0,89.0,89.0,1.0,1.92,,,,,
,,,,,,,,,,,,,,,,,,,,,0.05,,,,,,,,,,Stimuli/psy_flexible_rotation_30_objects_occ0.7_0.9s/images/train/n02883344_0/n03928116_4/img_b03_box_dp_33_b_2013__vray_2002_gray.jpg,n02883344_0,n03928116_4,flexible,0.739181,n03928116_4,Stimuli/psy_flexible_rotation_30_objects_occ0.7_0.9s/images/train/n02883344_0/n03928116_4/img_b03_box_dp_33_b_2013__vray_2002-3_gray.png,foreground,same as foreground,n02883344_0,n02933112_-2,Stimuli/canonical view 2/img_n02883344_0_gray.jpg,Stimuli/canonical view 2/img_n02933112_-2_gray.jpg,random,right,Experiments/experiment_24/360.jpg,Experiments/experiment_24/361.jpg,Experiments/experiment_24/362.jpg,Experiments/experiment_24/363.jpg,892,1,2023-09-17_10h40.20.333,Occlusion_Psychophysics,2022.1.4,Win32,32,,,left,"[""right""]",[0.7410000000000991],False,,0.0,0.0,90.0,90.0,90.0,1.0,,,,,,
,,,,,,,,,,,,,,,,,,,,,0.05,,,,,,,,,,Stimuli/psy_fixed_rotation_30_objects_occ0.7_0.9s/images/train/n04405907_8/n02883344_-1/img_stylized_tv_woven_box_2002_gray.jpg,n04405907_8,n02883344_-1,fixed,0.873311,n02883344_-1,Stimuli/psy_fixed_rotation_30_objects_occ0.7_0.9s/images/train/n04405907_8/n02883344_-1/img_stylized_tv_woven_box_2002-3_gray.png,foreground,same as foreground,n04405907_8,n02818832_3,Stimuli/canonical view 2/img_n04405907_8_gray.jpg,Stimuli/canonical view 2/img_n02818832_3_gray.jpg,random,left,Experiments/experiment_24/364.jpg,Experiments/experiment_24/365.jpg,Experiments/experiment_24/366.jpg,Experiments/experiment_24/367.jpg,892,1,2023-09-17_10h40.20.333,Occlusion_Psychophysics,2022.1.4,Win32,32,,,right,"[""right""]",[1.0819999999999936],False,,0.0,0.0,91.0,91.0,91.0,1.0,,,,,,
,,,,,,,,,,,,,,,,,,,,,0.05,,,,,,,,,,Stimuli/psy_flexible_rotation_30_objects_occ0.7_0.9s/images/train/n04379243_-7/n02818832_0/img_quatre_dining_table_b03_the_sofa_and_chair_company_-_stanley_bed_2014_2000_gray.jpg,n04379243_-7,n02818832_0,flexible,0.717885,n04379243_8,Stimuli/psy_flexible_rotation_30_objects_occ0.7_0.9s/images/train/n02818832_9/n04379243_8/img_bed01_blue_glass_table_2011-3_gray.png,random,flexible,n04379243_-7,n02818832_0,Stimuli/canonical view 2/img_n04379243_-7_gray.jpg,Stimuli/canonical view 2/img_n02818832_0_gray.jpg,foreground,left,Experiments/experiment_24/368.jpg,Experiments/experiment_24/369.jpg,Experiments/experiment_24/370.jpg,Experiments/experiment_24/371.jpg,892,1,2023-09-17_10h40.20.333,Occlusion_Psychophysics,2022.1.4,Win32,32,,,right,"[""right""]",[0.9900000000000091],False,,0.0,0.0,92.0,92.0,92.0,1.0,,,,,,
,,,,,,,,,,,,,,,,,,,,,0.05,,,,,,,,,,Stimuli/psy_flexible_rotation_30_objects_occ0.7_0.9s/images/train/n03001627_9/n04405907_5/img_chair_eames_plastic_armchair_samsung_40_uhd_smart_tv_2011_2008_gray.jpg,n03001627_9,n04405907_5,flexible,0.804565,n04405907_9,Stimuli/psy_flexible_rotation_30_objects_occ0.7_0.9s/images/train/n04256520_5/n04405907_9/img_meridiani_belmondo_bench_sofa_vray_004_2007-3_gray.png,random,flexible,n03001627_9,n02933112_-2,Stimuli/canonical view 2/img_n03001627_9_gray.jpg,Stimuli/canonical view 2/img_n02933112_-2_gray.jpg,random,right,Experiments/experiment_24/372.jpg,Experiments/experiment_24/373.jpg,Experiments/experiment_24/374.jpg,Experiments/experiment_24/375.jpg,892,1,2023-09-17_10h40.20.333,Occlusion_Psychophysics,2022.1.4,Win32,32,,,right,"[""right""]",[0.9950000000000045],True,right,1.0,0.0,93.0,93.0,93.0,1.0,1.04,,,,,
,,,,,,,,,,,,,,,,,,,,,0.05,,,,,,,,,,Stimuli/psy_fixed_rotation_30_objects_occ0.7_0.9s/images/train/n02933112_4/n04379243_-7/img_buffet_quatre_dining_table_2014_gray.jpg,n02933112_4,n04379243_-7,fixed,0.742374,n02933112_-2,Stimuli/psy_flexible_rotation_30_objects_occ0.7_0.9s/images/train/n03928116_0/n02933112_-2/img_b02_piano_sink_base_white_wood_2009-3_gray.png,random,flexible,n02933112_4,n04256520_5,Stimuli/canonical view 2/img_n02933112_4_gray.jpg,Stimuli/canonical view 2/img_n04256520_5_gray.jpg,random,right,Experiments/experiment_24/376.jpg,Experiments/experiment_24/377.jpg,Experiments/experiment_24/378.jpg,Experiments/experiment_24/379.jpg,892,1,2023-09-17_10h40.20.333,Occlusion_Psychophysics,2022.1.4,Win32,32,,,left,"[""right""]",[0.9900000000000091],False,,0.0,0.0,94.0,94.0,94.0,1.0,,,,,,
,,,,,,,,,,,,,,,,,,,,,0.025,,,,,,,,,,Stimuli/psy_fixed_rotation_30_objects_occ0.7_0.9s/images/train/n02883344_15/n04256520_4/img_microwave_box_club_house_italia_nautilus_sofa_2008_gray.jpg,n02883344_15,n04256520_4,fixed,0.736189,n04256520_4,Stimuli/psy_fixed_rotation_30_objects_occ0.7_0.9s/images/train/n02883344_15/n04256520_4/img_microwave_box_club_house_italia_nautilus_sofa_2008-3_gray.png,foreground,same as foreground,n02883344_15,n02818832_0,Stimuli/canonical view 2/img_n02883344_15_gray.jpg,Stimuli/canonical view 2/img_n02818832_0_gray.jpg,random,left,Experiments/experiment_24/380.jpg,Experiments/experiment_24/381.jpg,Experiments/experiment_24/382.jpg,Experiments/experiment_24/383.jpg,892,1,2023-09-17_10h40.20.333,Occlusion_Psychophysics,2022.1.4,Win32,32,,,left,"[""right""]",[1.2760000000000673],False,,0.0,0.0,95.0,95.0,95.0,1.0,,,,,,
,,,,,,,,,,,,,,,,,,,,,0.025,,,,,,,,,,Stimuli/psy_flexible_rotation_30_objects_occ0.7_0.9s/images/train/n03928116_10/n04405907_9/img_ydp_103_r_2012__vray_vray_004_2000_gray.jpg,n03928116_10,n04405907_9,flexible,0.810487,n04405907_9,Stimuli/psy_flexible_rotation_30_objects_occ0.7_0.9s/images/train/n03928116_10/n04405907_9/img_ydp_103_r_2012__vray_vray_004_2000-3_gray.png,foreground,same as foreground,n03928116_10,n04405907_9,Stimuli/canonical view 2/img_n03928116_10_gray.jpg,Stimuli/canonical view 2/img_n04405907_9_gray.jpg,foreground,right,Experiments/experiment_24/384.jpg,Experiments/experiment_24/385.jpg,Experiments/experiment_24/386.jpg,Experiments/experiment_24/387.jpg,892,1,2023-09-17_10h40.20.333,Occlusion_Psychophysics,2022.1.4,Win32,32,,,right,"[""left""]",[1.1789999999999736],False,,0.0,0.0,96.0,96.0,96.0,1.0,,,,,,
,,,,,,,,,,,,,,,,,,,,,0.05,,,,,,,,,,Stimuli/psy_fixed_rotation_30_objects_occ0.7_0.9s/images/train/n02828884_9/n04256520_4/img_cr-96_bench_club_house_italia_nautilus_sofa_2010_gray.jpg,n02828884_9,n04256520_4,fixed,0.730182,n02818832_9,Stimuli/psy_flexible_rotation_30_objects_occ0.7_0.9s/images/train/n04256520_4/n02818832_9/img_club_house_italia_nautilus_sofa_bed01_blue_2015-3_gray.png,random,flexible,n02828884_9,n02933112_-18,Stimuli/canonical view 2/img_n02828884_9_gray.jpg,Stimuli/canonical view 2/img_n02933112_-18_gray.jpg,random,left,Experiments/experiment_24/388.jpg,Experiments/experiment_24/389.jpg,Experiments/experiment_24/390.jpg,Experiments/experiment_24/391.jpg,892,1,2023-09-17_10h40.20.333,Occlusion_Psychophysics,2022.1.4,Win32,32,,,right,"[""right""]",[1.177000000000021],False,,0.0,0.0,97.0,97.0,97.0,1.0,,,,,,
,,,,,,,,,,,,,,,,,,,,,0.025,,,,,,,,,,Stimuli/psy_flexible_rotation_30_objects_occ0.7_0.9s/images/train/n04379243_8/n04379243_-7/img_glass_table_quatre_dining_table_2012_gray.jpg,n04379243_8,n04379243_-7,flexible,0.847372,n03001627_9,Stimuli/psy_fixed_rotation_30_objects_occ0.7_0.9s/images/train/n04070727_0/n03001627_9/img_b03_ka90ivi20r_2013__vray_chair_eames_plastic_armchair_2003-3_gray.png,random,fixed,n04379243_8,n04379243_0,Stimuli/canonical view 2/img_n04379243_8_gray.jpg,Stimuli/canonical view 2/img_n04379243_0_gray.jpg,random,right,Experiments/experiment_24/392.jpg,Experiments/experiment_24/393.jpg,Experiments/experiment_24/394.jpg,Experiments/experiment_24/395.jpg,892,1,2023-09-17_10h40.20.333,Occlusion_Psychophysics,2022.1.4,Win32,32,,,right,"[""right""]",[1.0059999999999718],False,,0.0,0.0,98.0,98.0,98.0,1.0,,,,,,
,,,,,,,,,,,,,,,,,,,,,0.05,,,,,,,,,,Stimuli/psy_fixed_rotation_30_objects_occ0.7_0.9s/images/train/n04256520_4/n02818832_3/img_club_house_italia_nautilus_sofa_b05_ccm_contemporary_bed_max2013_2015_gray.jpg,n04256520_4,n02818832_3,fixed,0.840411,n02818832_3,Stimuli/psy_fixed_rotation_30_objects_occ0.7_0.9s/images/train/n04256520_4/n02818832_3/img_club_house_italia_nautilus_sofa_b05_ccm_contemporary_bed_max2013_2015-3_gray.png,foreground,same as foreground,n04256520_4,n03001627_8,Stimuli/canonical view 2/img_n04256520_4_gray.jpg,Stimuli/canonical view 2/img_n03001627_8_gray.jpg,random,right,Experiments/experiment_24/396.jpg,Experiments/experiment_24/397.jpg,Experiments/experiment_24/398.jpg,Experiments/experiment_24/399.jpg,892,1,2023-09-17_10h40.20.333,Occlusion_Psychophysics,2022.1.4,Win32,32,,,left,"[""left""]",[0.9270000000000209],False,,0.0,0.0,99.0,99.0,99.0,1.0,,,,,,
,,,,,,,,,,,,,,,,,,,,,,,,,,,,,,,,,,,,,,,,,,,,,,,,,,892,1,2023-09-17_10h40.20.333,Occlusion_Psychophysics,2022.1.4,Win32,32,,,,,,,,,,,,,,,0.0,0.0,0.0,0.0,1.0
,,,,,,,,,,,,,,,,,,,,,0.025,,,,,,,,,,Stimuli/psy_fixed_rotation_30_objects_occ0.7_0.9s/images/train/n02828884_3/n03928116_10/img_b04_wood_metal_park_bench_ydp_103_r_2012__vray_2004_gray.jpg,n02828884_3,n03928116_10,fixed,0.763313,n03928116_10,Stimuli/psy_fixed_rotation_30_objects_occ0.7_0.9s/images/train/n02828884_3/n03928116_10/img_b04_wood_metal_park_bench_ydp_103_r_2012__vray_2004-3_gray.png,foreground,same as foreground,n02828884_3,n02828884_9,Stimuli/canonical view 2/img_n02828884_3_gray.jpg,Stimuli/canonical view 2/img_n02828884_9_gray.jpg,random,right,Experiments/experiment_24/400.jpg,Experiments/experiment_24/401.jpg,Experiments/experiment_24/402.jpg,Experiments/experiment_24/403.jpg,892,1,2023-09-17_10h40.20.333,Occlusion_Psychophysics,2022.1.4,Win32,32,,,left,"[""left""]",[1.1480000000000246],False,,0.0,0.0,0.0,0.0,0.0,1.0,,,,,,
,,,,,,,,,,,,,,,,,,,,,0.025,,,,,,,,,,Stimuli/psy_fixed_rotation_30_objects_occ0.7_0.9s/images/train/n03928116_10/n02933112_4/img_ydp_103_r_2012__vray_buffet_2011_gray.jpg,n03928116_10,n02933112_4,fixed,0.730159,n02883344_0,Stimuli/psy_fixed_rotation_30_objects_occ0.7_0.9s/images/train/n03928116_0/n02883344_0/img_b02_piano_b03_box_2008-3_gray.png,random,fixed,n03928116_10,n04405907_8,Stimuli/canonical view 2/img_n03928116_10_gray.jpg,Stimuli/canonical view 2/img_n04405907_8_gray.jpg,random,right,Experiments/experiment_24/404.jpg,Experiments/experiment_24/405.jpg,Experiments/experiment_24/406.jpg,Experiments/experiment_24/407.jpg,892,1,2023-09-17_10h40.20.333,Occlusion_Psychophysics,2022.1.4,Win32,32,,,right,"[""right""]",[0.8980000000000246],False,,0.0,0.0,1.0,1.0,1.0,1.0,,,,,,
,,,,,,,,,,,,,,,,,,,,,0.025,,,,,,,,,,Stimuli/psy_flexible_rotation_30_objects_occ0.7_0.9s/images/train/n03001627_-2/n02883344_-1/img_wood_chair_woven_box_2009_gray.jpg,n03001627_-2,n02883344_-1,flexible,0.779078,n02883344_-1,Stimuli/psy_flexible_rotation_30_objects_occ0.7_0.9s/images/train/n03001627_-2/n02883344_-1/img_wood_chair_woven_box_2009-3_gray.png,foreground,same as foreground,n03001627_-2,n02883344_-1,Stimuli/canonical view 2/img_n03001627_-2_gray.jpg,Stimuli/canonical view 2/img_n02883344_-1_gray.jpg,foreground,left,Experiments/experiment_24/408.jpg,Experiments/experiment_24/409.jpg,Experiments/experiment_24/410.jpg,Experiments/experiment_24/411.jpg,892,1,2023-09-17_10h40.20.333,Occlusion_Psychophysics,2022.1.4,Win32,32,,,right,"[""right""]",[0.7199999999999136],False,,0.0,0.0,2.0,2.0,2.0,1.0,,,,,,
,,,,,,,,,,,,,,,,,,,,,0.05,,,,,,,,,,Stimuli/psy_flexible_rotation_30_objects_occ0.7_0.9s/images/train/n04256520_9/n02933112_-2/img_napoleon_iii_sofa_sink_base_white_wood_2014_gray.jpg,n04256520_9,n02933112_-2,flexible,0.833074,n02933112_-2,Stimuli/psy_flexible_rotation_30_objects_occ0.7_0.9s/images/train/n04256520_9/n02933112_-2/img_napoleon_iii_sofa_sink_base_white_wood_2014-3_gray.png,foreground,same as foreground,n04256520_9,n04405907_9,Stimuli/canonical view 2/img_n04256520_9_gray.jpg,Stimuli/canonical view 2/img_n04405907_9_gray.jpg,random,left,Experiments/experiment_24/412.jpg,Experiments/experiment_24/413.jpg,Experiments/experiment_24/414.jpg,Experiments/experiment_24/415.jpg,892,1,2023-09-17_10h40.20.333,Occlusion_Psychophysics,2022.1.4,Win32,32,,,right,"[""right""]",[0.8010000000000446],False,,0.0,0.0,3.0,3.0,3.0,1.0,,,,,,
,,,,,,,,,,,,,,,,,,,,,0.025,,,,,,,,,,Stimuli/psy_fixed_rotation_30_objects_occ0.7_0.9s/images/train/n02818832_0/n04379243_-7/img_b03_the_sofa_and_chair_company_-_stanley_bed_2014_quatre_dining_table_2011_gray.jpg,n02818832_0,n04379243_-7,fixed,0.726161,n02828884_4,Stimuli/psy_flexible_rotation_30_objects_occ0.7_0.9s/images/train/n04256520_4/n02828884_4/img_club_house_italia_nautilus_sofa_b05_c-5_classic_series_bench-2012_2002-3_gray.png,random,flexible,n02818832_0,n04379243_-7,Stimuli/canonical view 2/img_n02818832_0_gray.jpg,Stimuli/canonical view 2/img_n04379243_-7_gray.jpg,foreground,right,Experiments/experiment_24/416.jpg,Experiments/experiment_24/417.jpg,Experiments/experiment_24/418.jpg,Experiments/experiment_24/419.jpg,892,1,2023-09-17_10h40.20.333,Occlusion_Psychophysics,2022.1.4,Win32,32,,,right,"[""right""]",[0.8089999999999691],True,left,1.0,0.0,4.0,4.0,4.0,1.0,1.146,,,,,
,,,,,,,,,,,,,,,,,,,,,0.05,,,,,,,,,,Stimuli/psy_flexible_rotation_30_objects_occ0.7_0.9s/images/train/n02818832_0/n02883344_15/img_b03_the_sofa_and_chair_company_-_stanley_bed_2014_microwave_box_2012_gray.jpg,n02818832_0,n02883344_15,flexible,0.785378,n02883344_-1,Stimuli/psy_flexible_rotation_30_objects_occ0.7_0.9s/images/train/n02933112_-18/n02883344_-1/img_cgaxis_models_48_26_vray_composite_woven_box_2001-3_gray.png,random,flexible,n02818832_0,n02883344_15,Stimuli/canonical view 2/img_n02818832_0_gray.jpg,Stimuli/canonical view 2/img_n02883344_15_gray.jpg,foreground,left,Experiments/experiment_24/420.jpg,Experiments/experiment_24/421.jpg,Experiments/experiment_24/422.jpg,Experiments/experiment_24/423.jpg,892,1,2023-09-17_10h40.20.333,Occlusion_Psychophysics,2022.1.4,Win32,32,,,left,"[""left""]",[1.1779999999998836],False,,0.0,0.0,5.0,5.0,5.0,1.0,,,,,,
,,,,,,,,,,,,,,,,,,,,,0.05,,,,,,,,,,Stimuli/psy_flexible_rotation_30_objects_occ0.7_0.9s/images/train/n04405907_8/n02883344_-1/img_stylized_tv_woven_box_2015_gray.jpg,n04405907_8,n02883344_-1,flexible,0.866007,n02883344_-1,Stimuli/psy_flexible_rotation_30_objects_occ0.7_0.9s/images/train/n04405907_8/n02883344_-1/img_stylized_tv_woven_box_2015-3_gray.png,foreground,same as foreground,n04405907_8,n04405907_5,Stimuli/canonical view 2/img_n04405907_8_gray.jpg,Stimuli/canonical view 2/img_n04405907_5_gray.jpg,random,left,Experiments/experiment_24/424.jpg,Experiments/experiment_24/425.jpg,Experiments/experiment_24/426.jpg,Experiments/experiment_24/427.jpg,892,1,2023-09-17_10h40.20.333,Occlusion_Psychophysics,2022.1.4,Win32,32,,,left,"[""right""]",[0.8369999999999891],False,,0.0,0.0,6.0,6.0,6.0,1.0,,,,,,
,,,,,,,,,,,,,,,,,,,,,0.05,,,,,,,,,,Stimuli/psy_flexible_rotation_30_objects_occ0.7_0.9s/images/train/n02818832_9/n04379243_8/img_bed01_blue_glass_table_2008_gray.jpg,n02818832_9,n04379243_8,flexible,0.752378,n04379243_8,Stimuli/psy_flexible_rotation_30_objects_occ0.7_0.9s/images/train/n02818832_9/n04379243_8/img_bed01_blue_glass_table_2008-3_gray.png,foreground,same as foreground,n02818832_9,n04379243_0,Stimuli/canonical view 2/img_n02818832_9_gray.jpg,Stimuli/canonical view 2/img_n04379243_0_gray.jpg,random,left,Experiments/experiment_24/428.jpg,Experiments/experiment_24/429.jpg,Experiments/experiment_24/430.jpg,Experiments/experiment_24/431.jpg,892,1,2023-09-17_10h40.20.333,Occlusion_Psychophysics,2022.1.4,Win32,32,,,right,"[""right""]",[1.0839999999998327],False,,0.0,0.0,7.0,7.0,7.0,1.0,,,,,,
,,,,,,,,,,,,,,,,,,,,,0.025,,,,,,,,,,Stimuli/psy_flexible_rotation_30_objects_occ0.7_0.9s/images/train/n04379243_-7/n04379243_8/img_quatre_dining_table_glass_table_2006_gray.jpg,n04379243_-7,n04379243_8,flexible,0.789819,n02883344_-1,Stimuli/psy_flexible_rotation_30_objects_occ0.7_0.9s/images/train/n02828884_3/n02883344_-1/img_b04_wood_metal_park_bench_woven_box_2007-3_gray.png,random,flexible,n04379243_-7,n03928116_4,Stimuli/canonical view 2/img_n04379243_-7_gray.jpg,Stimuli/canonical view 2/img_n03928116_4_gray.jpg,random,left,Experiments/experiment_24/432.jpg,Experiments/experiment_24/433.jpg,Experiments/experiment_24/434.jpg,Experiments/experiment_24/435.jpg,892,1,2023-09-17_10h40.20.333,Occlusion_Psychophysics,2022.1.4,Win32,32,,,left,"[""right""]",[0.9259999999999309],False,,0.0,0.0,8.0,8.0,8.0,1.0,,,,,,
,,,,,,,,,,,,,,,,,,,,,0.025,,,,,,,,,,Stimuli/psy_flexible_rotation_30_objects_occ0.7_0.9s/images/train/n02883344_15/n02818832_9/img_microwave_box_bed01_blue_2006_gray.jpg,n02883344_15,n02818832_9,flexible,0.826069,n02818832_9,Stimuli/psy_flexible_rotation_30_objects_occ0.7_0.9s/images/train/n02883344_15/n02818832_9/img_microwave_box_bed01_blue_2006-3_gray.png,foreground,same as foreground,n02883344_15,n04256520_4,Stimuli/canonical view 2/img_n02883344_15_gray.jpg,Stimuli/canonical view 2/img_n04256520_4_gray.jpg,random,right,Experiments/experiment_24/436.jpg,Experiments/experiment_24/437.jpg,Experiments/experiment_24/438.jpg,Experiments/experiment_24/439.jpg,892,1,2023-09-17_10h40.20.333,Occlusion_Psychophysics,2022.1.4,Win32,32,,,right,"[""left""]",[1.0800000000001546],False,,0.0,0.0,9.0,9.0,9.0,1.0,,,,,,
,,,,,,,,,,,,,,,,,,,,,0.025,,,,,,,,,,Stimuli/psy_flexible_rotation_30_objects_occ0.7_0.9s/images/train/n03001627_8/n02933112_-2/img_chair_billiani_doll_sink_base_white_wood_2013_gray.jpg,n03001627_8,n02933112_-2,flexible,0.711604,n04405907_5,Stimuli/psy_fixed_rotation_30_objects_occ0.7_0.9s/images/train/n02933112_-2/n04405907_5/img_sink_base_white_wood_samsung_40_uhd_smart_tv_2011_2001-3_gray.png,random,fixed,n03001627_8,n02933112_-18,Stimuli/canonical view 2/img_n03001627_8_gray.jpg,Stimuli/canonical view 2/img_n02933112_-18_gray.jpg,random,right,Experiments/experiment_24/440.jpg,Experiments/experiment_24/441.jpg,Experiments/experiment_24/442.jpg,Experiments/experiment_24/443.jpg,892,1,2023-09-17_10h40.20.333,Occlusion_Psychophysics,2022.1.4,Win32,32,,,left,"[""left""]",[1.0470000000000255],False,,0.0,0.0,10.0,10.0,10.0,1.0,,,,,,
,,,,,,,,,,,,,,,,,,,,,0.025,,,,,,,,,,Stimuli/psy_fixed_rotation_30_objects_occ0.7_0.9s/images/train/n04405907_5/n04379243_-7/img_samsung_40_uhd_smart_tv_2011_quatre_dining_table_2000_gray.jpg,n04405907_5,n04379243_-7,fixed,0.734652,n04379243_-7,Stimuli/psy_fixed_rotation_30_objects_occ0.7_0.9s/images/train/n04405907_5/n04379243_-7/img_samsung_40_uhd_smart_tv_2011_quatre_dining_table_2000-3_gray.png,foreground,same as foreground,n04405907_5,n04379243_-7,Stimuli/canonical view 2/img_n04405907_5_gray.jpg,Stimuli/canonical view 2/img_n04379243_-7_gray.jpg,foreground,left,Experiments/experiment_24/444.jpg,Experiments/experiment_24/445.jpg,Experiments/experiment_24/446.jpg,Experiments/experiment_24/447.jpg,892,1,2023-09-17_10h40.20.333,Occlusion_Psychophysics,2022.1.4,Win32,32,,,left,"[""right""]",[1.3300000000001546],False,,0.0,0.0,11.0,11.0,11.0,1.0,,,,,,
,,,,,,,,,,,,,,,,,,,,,0.025,,,,,,,,,,Stimuli/psy_flexible_rotation_30_objects_occ0.7_0.9s/images/train/n02933112_-2/n04405907_5/img_sink_base_white_wood_samsung_40_uhd_smart_tv_2011_2009_gray.jpg,n02933112_-2,n04405907_5,flexible,0.759672,n02818832_3,Stimuli/psy_flexible_rotation_30_objects_occ0.7_0.9s/images/train/n04256520_9/n02818832_3/img_napoleon_iii_sofa_b05_ccm_contemporary_bed_max2013_2008-3_gray.png,random,flexible,n02933112_-2,n04405907_5,Stimuli/canonical view 2/img_n02933112_-2_gray.jpg,Stimuli/canonical view 2/img_n04405907_5_gray.jpg,foreground,left,Experiments/experiment_24/448.jpg,Experiments/experiment_24/449.jpg,Experiments/experiment_24/450.jpg,Experiments/experiment_24/451.jpg,892,1,2023-09-17_10h40.20.333,Occlusion_Psychophysics,2022.1.4,Win32,32,,,left,"[""left""]",[0.8429999999998472],False,,0.0,0.0,12.0,12.0,12.0,1.0,,,,,,
