in_color,Instructions_key.keys,Instructions_key.rt,Tutorial_instruction_key.keys,Tutorial_instruction_key.rt,Tutorial_fixation_ley.keys,Tutorial_fixation_ley.rt,Tutorial_single_img_key.keys,Tutorial_single_img_key.rt,Tutorial_intra_trial_fixation_key.keys,Tutorial_intra_trial_fixation_key.rt,Tutorial_stimulus_key.keys,Tutorial_stimulus_key.rt,Tutorial_response_key.keys,Tutorial_response_key.rt,Tutorial_attention_check_key.keys,Tutorial_attention_check_key.rt,advance_or_repeat.keys,advance_or_repeat.rt,Practice_instructions_key.keys,Practice_instructions_key.rt,intra_trial_duration,Practice_key_response.keys,Practice_key_response.rt,Practice_react_key.keys,Practice_react_key.rt,Practice_loop.thisRepN,Practice_loop.thisTrialN,Practice_loop.thisN,Practice_loop.thisIndex,Practice_loop.ran,multi_object_filepath,background_id,foreground_id,multi_object_rotation,occlusion_level,single_object_id,single_object_filepath,single_is_foreground_or_random,single_object_rotation,background_choice_id,alt_choice_id,background_option_filepath,alternative_option_filepath,alternative_is_foreground_or_random,location_of_correct_answer,multi_object_exp_filename,single_object_exp_filename,background_option_exp_filename,alternative_option_exp_filename,participant,session,date,expName,psychopyVersion,OS,frameRate,Practice_end_key.keys,Practice_end_key.rt,correct_answer,Input_selection.keys,Input_selection.rt,Was_attention_check,Attention_check.keys,Attention_check.corr,Each_session_loop.thisRepN,Each_session_loop.thisTrialN,Each_session_loop.thisN,Each_session_loop.thisIndex,Each_session_loop.ran,Attention_check.rt,Num_sessions.thisRepN,Num_sessions.thisTrialN,Num_sessions.thisN,Num_sessions.thisIndex,Num_sessions.ran
False,space,131.884,right,2.244,right,2.023,right,6.407,right,2.089,right,12.592,right,1.862,right,3.558,a,4.049,a,4.481,0.05,right,0.858,a,2.977,0.0,0.0,0.0,0.0,1.0,Stimuli/psy_fixed_rotation_30_objects_occ0.7_0.9s/images/train/n04256520_5/n04256520_4/img_meridiani_belmondo_bench_sofa_club_house_italia_nautilus_sofa_2004_gray.jpg,n04256520_5,n04256520_4,fixed,0.725141,n04256520_4,Stimuli/psy_fixed_rotation_30_objects_occ0.7_0.9s/images/train/n04256520_5/n04256520_4/img_meridiani_belmondo_bench_sofa_club_house_italia_nautilus_sofa_2004-3_gray.png,foreground,same as foreground,n04256520_5,n04256520_4,Stimuli/canonical view 2/img_n04256520_5_gray.jpg,Stimuli/canonical view 2/img_n04256520_4_gray.jpg,foreground,right,Experiments/experiment_26/1000.jpg,Experiments/experiment_26/1001.jpg,Experiments/experiment_26/1002.jpg,Experiments/experiment_26/1003.jpg,897,1,2023-09-17_10h13.04.826,Occlusion_Psychophysics,2022.1.4,Win32,32,,,,,,,,,,,,,,,,,,,
,,,,,,,,,,,,,,,,,,,,,0.05,,,,,,,,,,Stimuli/psy_flexible_rotation_30_objects_occ0.7_0.9s/images/train/n04405907_5/n03928116_10/img_samsung_40_uhd_smart_tv_2011_ydp_103_r_2012__vray_2013_gray.jpg,n04405907_5,n03928116_10,flexible,0.775207,n03928116_10,Stimuli/psy_flexible_rotation_30_objects_occ0.7_0.9s/images/train/n04405907_5/n03928116_10/img_samsung_40_uhd_smart_tv_2011_ydp_103_r_2012__vray_2013-3_gray.png,foreground,same as foreground,n04405907_5,n03928116_10,Stimuli/canonical view 2/img_n04405907_5_gray.jpg,Stimuli/canonical view 2/img_n03928116_10_gray.jpg,foreground,left,Experiments/experiment_26/0.jpg,Experiments/experiment_26/1.jpg,Experiments/experiment_26/2.jpg,Experiments/experiment_26/3.jpg,897,1,2023-09-17_10h13.04.826,Occlusion_Psychophysics,2022.1.4,Win32,32,a,1.959,right,"[""left""]",[1.5120000000000005],False,,0.0,0.0,0.0,0.0,0.0,1.0,,,,,,
,,,,,,,,,,,,,,,,,,,,,0.025,,,,,,,,,,Stimuli/psy_fixed_rotation_30_objects_occ0.7_0.9s/images/train/n04379243_8/n02933112_-18/img_glass_table_cgaxis_models_48_26_vray_composite_2009_gray.jpg,n04379243_8,n02933112_-18,fixed,0.784188,n02933112_-18,Stimuli/psy_fixed_rotation_30_objects_occ0.7_0.9s/images/train/n04379243_8/n02933112_-18/img_glass_table_cgaxis_models_48_26_vray_composite_2009-3_gray.png,foreground,same as foreground,n04379243_8,n02933112_-18,Stimuli/canonical view 2/img_n04379243_8_gray.jpg,Stimuli/canonical view 2/img_n02933112_-18_gray.jpg,foreground,right,Experiments/experiment_26/4.jpg,Experiments/experiment_26/5.jpg,Experiments/experiment_26/6.jpg,Experiments/experiment_26/7.jpg,897,1,2023-09-17_10h13.04.826,Occlusion_Psychophysics,2022.1.4,Win32,32,,,left,"[""left""]",[0.9879999999999995],False,,0.0,0.0,1.0,1.0,1.0,1.0,,,,,,
,,,,,,,,,,,,,,,,,,,,,0.025,,,,,,,,,,Stimuli/psy_flexible_rotation_30_objects_occ0.7_0.9s/images/train/n04256520_4/n03928116_10/img_club_house_italia_nautilus_sofa_ydp_103_r_2012__vray_2003_gray.jpg,n04256520_4,n03928116_10,flexible,0.787888,n03928116_10,Stimuli/psy_flexible_rotation_30_objects_occ0.7_0.9s/images/train/n04256520_4/n03928116_10/img_club_house_italia_nautilus_sofa_ydp_103_r_2012__vray_2003-3_gray.png,foreground,same as foreground,n04256520_4,n03928116_10,Stimuli/canonical view 2/img_n04256520_4_gray.jpg,Stimuli/canonical view 2/img_n03928116_10_gray.jpg,foreground,left,Experiments/experiment_26/8.jpg,Experiments/experiment_26/9.jpg,Experiments/experiment_26/10.jpg,Experiments/experiment_26/11.jpg,897,1,2023-09-17_10h13.04.826,Occlusion_Psychophysics,2022.1.4,Win32,32,,,right,"[""left""]",[1.6049999999999613],False,,0.0,0.0,2.0,2.0,2.0,1.0,,,,,,
,,,,,,,,,,,,,,,,,,,,,0.05,,,,,,,,,,Stimuli/psy_fixed_rotation_30_objects_occ0.7_0.9s/images/train/n02828884_4/n02828884_3/img_b05_c-5_classic_series_bench-2012_b04_wood_metal_park_bench_2011_gray.jpg,n02828884_4,n02828884_3,fixed,0.856522,n02828884_3,Stimuli/psy_fixed_rotation_30_objects_occ0.7_0.9s/images/train/n02828884_4/n02828884_3/img_b05_c-5_classic_series_bench-2012_b04_wood_metal_park_bench_2011-3_gray.png,foreground,same as foreground,n02828884_4,n02883344_0,Stimuli/canonical view 2/img_n02828884_4_gray.jpg,Stimuli/canonical view 2/img_n02883344_0_gray.jpg,random,left,Experiments/experiment_26/12.jpg,Experiments/experiment_26/13.jpg,Experiments/experiment_26/14.jpg,Experiments/experiment_26/15.jpg,897,1,2023-09-17_10h13.04.826,Occlusion_Psychophysics,2022.1.4,Win32,32,,,left,"[""left""]",[1.325999999999965],False,,0.0,0.0,3.0,3.0,3.0,1.0,,,,,,
,,,,,,,,,,,,,,,,,,,,,0.05,,,,,,,,,,Stimuli/psy_flexible_rotation_30_objects_occ0.7_0.9s/images/train/n02828884_4/n02818832_0/img_b05_c-5_classic_series_bench-2012_b03_the_sofa_and_chair_company_-_stanley_bed_2014_2010_gray.jpg,n02828884_4,n02818832_0,flexible,0.759001,n02818832_0,Stimuli/psy_flexible_rotation_30_objects_occ0.7_0.9s/images/train/n02828884_4/n02818832_0/img_b05_c-5_classic_series_bench-2012_b03_the_sofa_and_chair_company_-_stanley_bed_2014_2010-3_gray.png,foreground,same as foreground,n02828884_4,n03001627_8,Stimuli/canonical view 2/img_n02828884_4_gray.jpg,Stimuli/canonical view 2/img_n03001627_8_gray.jpg,random,left,Experiments/experiment_26/16.jpg,Experiments/experiment_26/17.jpg,Experiments/experiment_26/18.jpg,Experiments/experiment_26/19.jpg,897,1,2023-09-17_10h13.04.826,Occlusion_Psychophysics,2022.1.4,Win32,32,,,right,"[""left""]",[1.3879999999999768],False,,0.0,0.0,4.0,4.0,4.0,1.0,,,,,,
,,,,,,,,,,,,,,,,,,,,,0.05,,,,,,,,,,Stimuli/psy_flexible_rotation_30_objects_occ0.7_0.9s/images/train/n04256520_9/n02818832_0/img_napoleon_iii_sofa_b03_the_sofa_and_chair_company_-_stanley_bed_2014_2005_gray.jpg,n04256520_9,n02818832_0,flexible,0.755322,n02883344_15,Stimuli/psy_flexible_rotation_30_objects_occ0.7_0.9s/images/train/n04405907_8/n02883344_15/img_stylized_tv_microwave_box_2000-3_gray.png,random,flexible,n04256520_9,n03001627_8,Stimuli/canonical view 2/img_n04256520_9_gray.jpg,Stimuli/canonical view 2/img_n03001627_8_gray.jpg,random,left,Experiments/experiment_26/20.jpg,Experiments/experiment_26/21.jpg,Experiments/experiment_26/22.jpg,Experiments/experiment_26/23.jpg,897,1,2023-09-17_10h13.04.826,Occlusion_Psychophysics,2022.1.4,Win32,32,,,left,"[""left""]",[1.1089999999999804],False,,0.0,0.0,5.0,5.0,5.0,1.0,,,,,,
,,,,,,,,,,,,,,,,,,,,,0.05,,,,,,,,,,Stimuli/psy_fixed_rotation_30_objects_occ0.7_0.9s/images/train/n04405907_8/n03928116_0/img_stylized_tv_b02_piano_2002_gray.jpg,n04405907_8,n03928116_0,fixed,0.784971,n03928116_0,Stimuli/psy_fixed_rotation_30_objects_occ0.7_0.9s/images/train/n04405907_8/n03928116_0/img_stylized_tv_b02_piano_2002-3_gray.png,foreground,same as foreground,n04405907_8,n03928116_10,Stimuli/canonical view 2/img_n04405907_8_gray.jpg,Stimuli/canonical view 2/img_n03928116_10_gray.jpg,random,right,Experiments/experiment_26/24.jpg,Experiments/experiment_26/25.jpg,Experiments/experiment_26/26.jpg,Experiments/experiment_26/27.jpg,897,1,2023-09-17_10h13.04.826,Occlusion_Psychophysics,2022.1.4,Win32,32,,,left,"[""right""]",[1.016999999999996],False,,0.0,0.0,6.0,6.0,6.0,1.0,,,,,,
,,,,,,,,,,,,,,,,,,,,,0.05,,,,,,,,,,Stimuli/psy_flexible_rotation_30_objects_occ0.7_0.9s/images/train/n04379243_8/n02883344_-1/img_glass_table_woven_box_2002_gray.jpg,n04379243_8,n02883344_-1,flexible,0.706136,n02883344_15,Stimuli/psy_fixed_rotation_30_objects_occ0.7_0.9s/images/train/n04379243_0/n02883344_15/img_17th_c._monastery_dining_table_2010_microwave_box_2009-3_gray.png,random,fixed,n04379243_8,n02883344_-1,Stimuli/canonical view 2/img_n04379243_8_gray.jpg,Stimuli/canonical view 2/img_n02883344_-1_gray.jpg,foreground,right,Experiments/experiment_26/28.jpg,Experiments/experiment_26/29.jpg,Experiments/experiment_26/30.jpg,Experiments/experiment_26/31.jpg,897,1,2023-09-17_10h13.04.826,Occlusion_Psychophysics,2022.1.4,Win32,32,,,left,"[""left""]",[1.0760000000000218],False,,0.0,0.0,7.0,7.0,7.0,1.0,,,,,,
,,,,,,,,,,,,,,,,,,,,,0.025,,,,,,,,,,Stimuli/psy_flexible_rotation_30_objects_occ0.7_0.9s/images/train/n02883344_-1/n04405907_8/img_woven_box_stylized_tv_2007_gray.jpg,n02883344_-1,n04405907_8,flexible,0.727919,n02818832_0,Stimuli/psy_flexible_rotation_30_objects_occ0.7_0.9s/images/train/n04405907_8/n02818832_0/img_stylized_tv_b03_the_sofa_and_chair_company_-_stanley_bed_2014_2015-3_gray.png,random,flexible,n02883344_-1,n04405907_9,Stimuli/canonical view 2/img_n02883344_-1_gray.jpg,Stimuli/canonical view 2/img_n04405907_9_gray.jpg,random,left,Experiments/experiment_26/32.jpg,Experiments/experiment_26/33.jpg,Experiments/experiment_26/34.jpg,Experiments/experiment_26/35.jpg,897,1,2023-09-17_10h13.04.826,Occlusion_Psychophysics,2022.1.4,Win32,32,,,right,"[""right""]",[1.0150000000000432],False,,0.0,0.0,8.0,8.0,8.0,1.0,,,,,,
,,,,,,,,,,,,,,,,,,,,,0.025,,,,,,,,,,Stimuli/psy_flexible_rotation_30_objects_occ0.7_0.9s/images/train/n02933112_-2/n02818832_3/img_sink_base_white_wood_b05_ccm_contemporary_bed_max2013_2013_gray.jpg,n02933112_-2,n02818832_3,flexible,0.769674,n02818832_3,Stimuli/psy_flexible_rotation_30_objects_occ0.7_0.9s/images/train/n02933112_-2/n02818832_3/img_sink_base_white_wood_b05_ccm_contemporary_bed_max2013_2013-3_gray.png,foreground,same as foreground,n02933112_-2,n02818832_3,Stimuli/canonical view 2/img_n02933112_-2_gray.jpg,Stimuli/canonical view 2/img_n02818832_3_gray.jpg,foreground,right,Experiments/experiment_26/36.jpg,Experiments/experiment_26/37.jpg,Experiments/experiment_26/38.jpg,Experiments/experiment_26/39.jpg,897,1,2023-09-17_10h13.04.826,Occlusion_Psychophysics,2022.1.4,Win32,32,,,right,"[""right""]",[1.205000000000041],False,,0.0,0.0,9.0,9.0,9.0,1.0,,,,,,
,,,,,,,,,,,,,,,,,,,,,0.025,,,,,,,,,,Stimuli/psy_fixed_rotation_30_objects_occ0.7_0.9s/images/train/n02883344_15/n02828884_3/img_microwave_box_b04_wood_metal_park_bench_2007_gray.jpg,n02883344_15,n02828884_3,fixed,0.787074,n02828884_3,Stimuli/psy_fixed_rotation_30_objects_occ0.7_0.9s/images/train/n02883344_15/n02828884_3/img_microwave_box_b04_wood_metal_park_bench_2007-3_gray.png,foreground,same as foreground,n02883344_15,n02828884_3,Stimuli/canonical view 2/img_n02883344_15_gray.jpg,Stimuli/canonical view 2/img_n02828884_3_gray.jpg,foreground,left,Experiments/experiment_26/40.jpg,Experiments/experiment_26/41.jpg,Experiments/experiment_26/42.jpg,Experiments/experiment_26/43.jpg,897,1,2023-09-17_10h13.04.826,Occlusion_Psychophysics,2022.1.4,Win32,32,,,left,"[""right""]",[1.1399999999999864],False,,0.0,0.0,10.0,10.0,10.0,1.0,,,,,,
,,,,,,,,,,,,,,,,,,,,,0.025,,,,,,,,,,Stimuli/psy_fixed_rotation_30_objects_occ0.7_0.9s/images/train/n03928116_0/n04379243_0/img_b02_piano_17th_c._monastery_dining_table_2010_2004_gray.jpg,n03928116_0,n04379243_0,fixed,0.782528,n03928116_0,Stimuli/psy_fixed_rotation_30_objects_occ0.7_0.9s/images/train/n02828884_4/n03928116_0/img_b05_c-5_classic_series_bench-2012_b02_piano_2004-3_gray.png,random,fixed,n03928116_0,n04379243_0,Stimuli/canonical view 2/img_n03928116_0_gray.jpg,Stimuli/canonical view 2/img_n04379243_0_gray.jpg,foreground,right,Experiments/experiment_26/44.jpg,Experiments/experiment_26/45.jpg,Experiments/experiment_26/46.jpg,Experiments/experiment_26/47.jpg,897,1,2023-09-17_10h13.04.826,Occlusion_Psychophysics,2022.1.4,Win32,32,,,left,"[""left""]",[1.2340000000000373],False,,0.0,0.0,11.0,11.0,11.0,1.0,,,,,,
,,,,,,,,,,,,,,,,,,,,,0.025,,,,,,,,,,Stimuli/psy_fixed_rotation_30_objects_occ0.7_0.9s/images/train/n04256520_5/n02818832_0/img_meridiani_belmondo_bench_sofa_b03_the_sofa_and_chair_company_-_stanley_bed_2014_2015_gray.jpg,n04256520_5,n02818832_0,fixed,0.720111,n02818832_0,Stimuli/psy_fixed_rotation_30_objects_occ0.7_0.9s/images/train/n04256520_5/n02818832_0/img_meridiani_belmondo_bench_sofa_b03_the_sofa_and_chair_company_-_stanley_bed_2014_2015-3_gray.png,foreground,same as foreground,n04256520_5,n02818832_0,Stimuli/canonical view 2/img_n04256520_5_gray.jpg,Stimuli/canonical view 2/img_n02818832_0_gray.jpg,foreground,left,Experiments/experiment_26/48.jpg,Experiments/experiment_26/49.jpg,Experiments/experiment_26/50.jpg,Experiments/experiment_26/51.jpg,897,1,2023-09-17_10h13.04.826,Occlusion_Psychophysics,2022.1.4,Win32,32,,,right,"[""right""]",[1.76400000000001],False,,0.0,0.0,12.0,12.0,12.0,1.0,,,,,,
,,,,,,,,,,,,,,,,,,,,,0.05,,,,,,,,,,Stimuli/psy_flexible_rotation_30_objects_occ0.7_0.9s/images/train/n04405907_9/n02933112_4/img_vray_004_buffet_2002_gray.jpg,n04405907_9,n02933112_4,flexible,0.77459,n02933112_4,Stimuli/psy_flexible_rotation_30_objects_occ0.7_0.9s/images/train/n04405907_9/n02933112_4/img_vray_004_buffet_2002-3_gray.png,foreground,same as foreground,n04405907_9,n02933112_4,Stimuli/canonical view 2/img_n04405907_9_gray.jpg,Stimuli/canonical view 2/img_n02933112_4_gray.jpg,foreground,right,Experiments/experiment_26/52.jpg,Experiments/experiment_26/53.jpg,Experiments/experiment_26/54.jpg,Experiments/experiment_26/55.jpg,897,1,2023-09-17_10h13.04.826,Occlusion_Psychophysics,2022.1.4,Win32,32,,,left,"[""left""]",[1.6379999999999768],False,,0.0,0.0,13.0,13.0,13.0,1.0,,,,,,
,,,,,,,,,,,,,,,,,,,,,0.05,,,,,,,,,,Stimuli/psy_fixed_rotation_30_objects_occ0.7_0.9s/images/train/n04256520_9/n03928116_10/img_napoleon_iii_sofa_ydp_103_r_2012__vray_2014_gray.jpg,n04256520_9,n03928116_10,fixed,0.8465,n04405907_9,Stimuli/psy_fixed_rotation_30_objects_occ0.7_0.9s/images/train/n04405907_9/n04405907_9/img_vray_004_vray_004_2000-3_gray.png,random,fixed,n04256520_9,n02818832_0,Stimuli/canonical view 2/img_n04256520_9_gray.jpg,Stimuli/canonical view 2/img_n02818832_0_gray.jpg,random,left,Experiments/experiment_26/56.jpg,Experiments/experiment_26/57.jpg,Experiments/experiment_26/58.jpg,Experiments/experiment_26/59.jpg,897,1,2023-09-17_10h13.04.826,Occlusion_Psychophysics,2022.1.4,Win32,32,,,left,,,False,,0.0,0.0,14.0,14.0,14.0,1.0,,,,,,
,,,,,,,,,,,,,,,,,,,,,0.025,,,,,,,,,,Stimuli/psy_fixed_rotation_30_objects_occ0.7_0.9s/images/train/n02818832_9/n04379243_8/img_bed01_blue_glass_table_2005_gray.jpg,n02818832_9,n04379243_8,fixed,0.754327,n02818832_0,Stimuli/psy_fixed_rotation_30_objects_occ0.7_0.9s/images/train/n04070727_5/n02818832_0/img_b05_db_apps_tech_06_13_composite_b03_the_sofa_and_chair_company_-_stanley_bed_2014_2004-3_gray.png,random,fixed,n02818832_9,n03001627_8,Stimuli/canonical view 2/img_n02818832_9_gray.jpg,Stimuli/canonical view 2/img_n03001627_8_gray.jpg,random,right,Experiments/experiment_26/60.jpg,Experiments/experiment_26/61.jpg,Experiments/experiment_26/62.jpg,Experiments/experiment_26/63.jpg,897,1,2023-09-17_10h13.04.826,Occlusion_Psychophysics,2022.1.4,Win32,32,,,right,"[""left""]",[1.1149999999999523],False,,0.0,0.0,15.0,15.0,15.0,1.0,,,,,,
,,,,,,,,,,,,,,,,,,,,,0.05,,,,,,,,,,Stimuli/psy_flexible_rotation_30_objects_occ0.7_0.9s/images/train/n02818832_0/n02933112_-2/img_b03_the_sofa_and_chair_company_-_stanley_bed_2014_sink_base_white_wood_2000_gray.jpg,n02818832_0,n02933112_-2,flexible,0.723465,n04405907_8,Stimuli/psy_flexible_rotation_30_objects_occ0.7_0.9s/images/train/n02933112_-18/n04405907_8/img_cgaxis_models_48_26_vray_composite_stylized_tv_2001-3_gray.png,random,flexible,n02818832_0,n02933112_-2,Stimuli/canonical view 2/img_n02818832_0_gray.jpg,Stimuli/canonical view 2/img_n02933112_-2_gray.jpg,foreground,left,Experiments/experiment_26/64.jpg,Experiments/experiment_26/65.jpg,Experiments/experiment_26/66.jpg,Experiments/experiment_26/67.jpg,897,1,2023-09-17_10h13.04.826,Occlusion_Psychophysics,2022.1.4,Win32,32,,,left,"[""right""]",[0.8269999999999982],False,,0.0,0.0,16.0,16.0,16.0,1.0,,,,,,
,,,,,,,,,,,,,,,,,,,,,0.05,,,,,,,,,,Stimuli/psy_flexible_rotation_30_objects_occ0.7_0.9s/images/train/n02883344_0/n02883344_15/img_b03_box_microwave_box_2004_gray.jpg,n02883344_0,n02883344_15,flexible,0.812943,n02883344_15,Stimuli/psy_flexible_rotation_30_objects_occ0.7_0.9s/images/train/n02883344_0/n02883344_15/img_b03_box_microwave_box_2004-3_gray.png,foreground,same as foreground,n02883344_0,n02883344_15,Stimuli/canonical view 2/img_n02883344_0_gray.jpg,Stimuli/canonical view 2/img_n02883344_15_gray.jpg,foreground,right,Experiments/experiment_26/68.jpg,Experiments/experiment_26/69.jpg,Experiments/experiment_26/70.jpg,Experiments/experiment_26/71.jpg,897,1,2023-09-17_10h13.04.826,Occlusion_Psychophysics,2022.1.4,Win32,32,,,right,"[""right""]",[1.0299999999999727],False,,0.0,0.0,17.0,17.0,17.0,1.0,,,,,,
,,,,,,,,,,,,,,,,,,,,,0.05,,,,,,,,,,Stimuli/psy_flexible_rotation_30_objects_occ0.7_0.9s/images/train/n02828884_9/n04256520_5/img_cr-96_bench_meridiani_belmondo_bench_sofa_2011_gray.jpg,n02828884_9,n04256520_5,flexible,0.725706,n04256520_5,Stimuli/psy_flexible_rotation_30_objects_occ0.7_0.9s/images/train/n02828884_9/n04256520_5/img_cr-96_bench_meridiani_belmondo_bench_sofa_2011-3_gray.png,foreground,same as foreground,n02828884_9,n02828884_3,Stimuli/canonical view 2/img_n02828884_9_gray.jpg,Stimuli/canonical view 2/img_n02828884_3_gray.jpg,random,right,Experiments/experiment_26/72.jpg,Experiments/experiment_26/73.jpg,Experiments/experiment_26/74.jpg,Experiments/experiment_26/75.jpg,897,1,2023-09-17_10h13.04.826,Occlusion_Psychophysics,2022.1.4,Win32,32,,,left,"[""left""]",[1.4209999999999923],False,,0.0,0.0,18.0,18.0,18.0,1.0,,,,,,
,,,,,,,,,,,,,,,,,,,,,0.025,,,,,,,,,,Stimuli/psy_flexible_rotation_30_objects_occ0.7_0.9s/images/train/n03928116_0/n04256520_4/img_b02_piano_club_house_italia_nautilus_sofa_2004_gray.jpg,n03928116_0,n04256520_4,flexible,0.735447,n04256520_4,Stimuli/psy_flexible_rotation_30_objects_occ0.7_0.9s/images/train/n03928116_0/n04256520_4/img_b02_piano_club_house_italia_nautilus_sofa_2004-3_gray.png,foreground,same as foreground,n03928116_0,n04256520_4,Stimuli/canonical view 2/img_n03928116_0_gray.jpg,Stimuli/canonical view 2/img_n04256520_4_gray.jpg,foreground,left,Experiments/experiment_26/76.jpg,Experiments/experiment_26/77.jpg,Experiments/experiment_26/78.jpg,Experiments/experiment_26/79.jpg,897,1,2023-09-17_10h13.04.826,Occlusion_Psychophysics,2022.1.4,Win32,32,,,left,"[""left""]",[0.9600000000000364],False,,0.0,0.0,19.0,19.0,19.0,1.0,,,,,,
,,,,,,,,,,,,,,,,,,,,,0.05,,,,,,,,,,Stimuli/psy_fixed_rotation_30_objects_occ0.7_0.9s/images/train/n04405907_8/n03928116_10/img_stylized_tv_ydp_103_r_2012__vray_2005_gray.jpg,n04405907_8,n03928116_10,fixed,0.714996,n04256520_4,Stimuli/psy_flexible_rotation_30_objects_occ0.7_0.9s/images/train/n04256520_5/n04256520_4/img_meridiani_belmondo_bench_sofa_club_house_italia_nautilus_sofa_2009-3_gray.png,random,flexible,n04405907_8,n03928116_10,Stimuli/canonical view 2/img_n04405907_8_gray.jpg,Stimuli/canonical view 2/img_n03928116_10_gray.jpg,foreground,left,Experiments/experiment_26/80.jpg,Experiments/experiment_26/81.jpg,Experiments/experiment_26/82.jpg,Experiments/experiment_26/83.jpg,897,1,2023-09-17_10h13.04.826,Occlusion_Psychophysics,2022.1.4,Win32,32,,,left,"[""right""]",[1.1399999999999864],False,,0.0,0.0,20.0,20.0,20.0,1.0,,,,,,
,,,,,,,,,,,,,,,,,,,,,0.05,,,,,,,,,,Stimuli/psy_flexible_rotation_30_objects_occ0.7_0.9s/images/train/n02883344_15/n02933112_4/img_microwave_box_buffet_2007_gray.jpg,n02883344_15,n02933112_4,flexible,0.759253,n04379243_8,Stimuli/psy_flexible_rotation_30_objects_occ0.7_0.9s/images/train/n02818832_0/n04379243_8/img_b03_the_sofa_and_chair_company_-_stanley_bed_2014_glass_table_2000-3_gray.png,random,flexible,n02883344_15,n02933112_4,Stimuli/canonical view 2/img_n02883344_15_gray.jpg,Stimuli/canonical view 2/img_n02933112_4_gray.jpg,foreground,right,Experiments/experiment_26/84.jpg,Experiments/experiment_26/85.jpg,Experiments/experiment_26/86.jpg,Experiments/experiment_26/87.jpg,897,1,2023-09-17_10h13.04.826,Occlusion_Psychophysics,2022.1.4,Win32,32,,,left,"[""left""]",[1.024000000000001],False,,0.0,0.0,21.0,21.0,21.0,1.0,,,,,,
,,,,,,,,,,,,,,,,,,,,,0.05,,,,,,,,,,Stimuli/psy_fixed_rotation_30_objects_occ0.7_0.9s/images/train/n04379243_-7/n04256520_9/img_quatre_dining_table_napoleon_iii_sofa_2004_gray.jpg,n04379243_-7,n04256520_9,fixed,0.748851,n04256520_9,Stimuli/psy_fixed_rotation_30_objects_occ0.7_0.9s/images/train/n04379243_-7/n04256520_9/img_quatre_dining_table_napoleon_iii_sofa_2004-3_gray.png,foreground,same as foreground,n04379243_-7,n02818832_3,Stimuli/canonical view 2/img_n04379243_-7_gray.jpg,Stimuli/canonical view 2/img_n02818832_3_gray.jpg,random,right,Experiments/experiment_26/88.jpg,Experiments/experiment_26/89.jpg,Experiments/experiment_26/90.jpg,Experiments/experiment_26/91.jpg,897,1,2023-09-17_10h13.04.826,Occlusion_Psychophysics,2022.1.4,Win32,32,,,right,"[""right""]",[1.2339999999999236],False,,0.0,0.0,22.0,22.0,22.0,1.0,,,,,,
,,,,,,,,,,,,,,,,,,,,,0.025,,,,,,,,,,Stimuli/psy_fixed_rotation_30_objects_occ0.7_0.9s/images/train/n02818832_3/n03928116_0/img_b05_ccm_contemporary_bed_max2013_b02_piano_2006_gray.jpg,n02818832_3,n03928116_0,fixed,0.857803,n03928116_0,Stimuli/psy_fixed_rotation_30_objects_occ0.7_0.9s/images/train/n02818832_3/n03928116_0/img_b05_ccm_contemporary_bed_max2013_b02_piano_2006-3_gray.png,foreground,same as foreground,n02818832_3,n03928116_0,Stimuli/canonical view 2/img_n02818832_3_gray.jpg,Stimuli/canonical view 2/img_n03928116_0_gray.jpg,foreground,left,Experiments/experiment_26/92.jpg,Experiments/experiment_26/93.jpg,Experiments/experiment_26/94.jpg,Experiments/experiment_26/95.jpg,897,1,2023-09-17_10h13.04.826,Occlusion_Psychophysics,2022.1.4,Win32,32,,,right,"[""left""]",[0.9909999999999854],False,,0.0,0.0,23.0,23.0,23.0,1.0,,,,,,
,,,,,,,,,,,,,,,,,,,,,0.05,,,,,,,,,,Stimuli/psy_fixed_rotation_30_objects_occ0.7_0.9s/images/train/n03928116_0/n02818832_3/img_b02_piano_b05_ccm_contemporary_bed_max2013_2000_gray.jpg,n03928116_0,n02818832_3,fixed,0.864518,n03928116_4,Stimuli/psy_fixed_rotation_30_objects_occ0.7_0.9s/images/train/n02818832_3/n03928116_4/img_b05_ccm_contemporary_bed_max2013_dp_33_b_2013__vray_2015-3_gray.png,random,fixed,n03928116_0,n02883344_15,Stimuli/canonical view 2/img_n03928116_0_gray.jpg,Stimuli/canonical view 2/img_n02883344_15_gray.jpg,random,right,Experiments/experiment_26/96.jpg,Experiments/experiment_26/97.jpg,Experiments/experiment_26/98.jpg,Experiments/experiment_26/99.jpg,897,1,2023-09-17_10h13.04.826,Occlusion_Psychophysics,2022.1.4,Win32,32,,,right,"[""right""]",[1.483000000000061],False,,0.0,0.0,24.0,24.0,24.0,1.0,,,,,,
,,,,,,,,,,,,,,,,,,,,,0.05,,,,,,,,,,Stimuli/psy_fixed_rotation_30_objects_occ0.7_0.9s/images/train/n02883344_-1/n04405907_9/img_woven_box_vray_004_2010_gray.jpg,n02883344_-1,n04405907_9,fixed,0.815214,n04405907_9,Stimuli/psy_fixed_rotation_30_objects_occ0.7_0.9s/images/train/n02883344_-1/n04405907_9/img_woven_box_vray_004_2010-3_gray.png,foreground,same as foreground,n02883344_-1,n04405907_9,Stimuli/canonical view 2/img_n02883344_-1_gray.jpg,Stimuli/canonical view 2/img_n04405907_9_gray.jpg,foreground,right,Experiments/experiment_26/100.jpg,Experiments/experiment_26/101.jpg,Experiments/experiment_26/102.jpg,Experiments/experiment_26/103.jpg,897,1,2023-09-17_10h13.04.826,Occlusion_Psychophysics,2022.1.4,Win32,32,,,left,"[""left""]",[1.4519999999999982],False,,0.0,0.0,25.0,25.0,25.0,1.0,,,,,,
,,,,,,,,,,,,,,,,,,,,,0.05,,,,,,,,,,Stimuli/psy_flexible_rotation_30_objects_occ0.7_0.9s/images/train/n02818832_9/n02883344_-1/img_bed01_blue_woven_box_2007_gray.jpg,n02818832_9,n02883344_-1,flexible,0.787006,n02883344_-1,Stimuli/psy_flexible_rotation_30_objects_occ0.7_0.9s/images/train/n02818832_9/n02883344_-1/img_bed01_blue_woven_box_2007-3_gray.png,foreground,same as foreground,n02818832_9,n02883344_-1,Stimuli/canonical view 2/img_n02818832_9_gray.jpg,Stimuli/canonical view 2/img_n02883344_-1_gray.jpg,foreground,right,Experiments/experiment_26/104.jpg,Experiments/experiment_26/105.jpg,Experiments/experiment_26/106.jpg,Experiments/experiment_26/107.jpg,897,1,2023-09-17_10h13.04.826,Occlusion_Psychophysics,2022.1.4,Win32,32,,,left,"[""left""]",[1.2379999999998859],False,,0.0,0.0,26.0,26.0,26.0,1.0,,,,,,
,,,,,,,,,,,,,,,,,,,,,0.025,,,,,,,,,,Stimuli/psy_flexible_rotation_30_objects_occ0.7_0.9s/images/train/n04256520_9/n02883344_-1/img_napoleon_iii_sofa_woven_box_2007_gray.jpg,n04256520_9,n02883344_-1,flexible,0.780622,n02818832_0,Stimuli/psy_fixed_rotation_30_objects_occ0.7_0.9s/images/train/n04070727_5/n02818832_0/img_b05_db_apps_tech_06_13_composite_b03_the_sofa_and_chair_company_-_stanley_bed_2014_2015-3_gray.png,random,fixed,n04256520_9,n02883344_-1,Stimuli/canonical view 2/img_n04256520_9_gray.jpg,Stimuli/canonical view 2/img_n02883344_-1_gray.jpg,foreground,left,Experiments/experiment_26/108.jpg,Experiments/experiment_26/109.jpg,Experiments/experiment_26/110.jpg,Experiments/experiment_26/111.jpg,897,1,2023-09-17_10h13.04.826,Occlusion_Psychophysics,2022.1.4,Win32,32,,,right,"[""right""]",[1.6089999999999236],False,,0.0,0.0,27.0,27.0,27.0,1.0,,,,,,
,,,,,,,,,,,,,,,,,,,,,0.025,,,,,,,,,,Stimuli/psy_fixed_rotation_30_objects_occ0.7_0.9s/images/train/n02818832_9/n02933112_-18/img_bed01_blue_cgaxis_models_48_26_vray_composite_2010_gray.jpg,n02818832_9,n02933112_-18,fixed,0.750535,n02933112_-18,Stimuli/psy_fixed_rotation_30_objects_occ0.7_0.9s/images/train/n02818832_9/n02933112_-18/img_bed01_blue_cgaxis_models_48_26_vray_composite_2010-3_gray.png,foreground,same as foreground,n02818832_9,n03001627_-2,Stimuli/canonical view 2/img_n02818832_9_gray.jpg,Stimuli/canonical view 2/img_n03001627_-2_gray.jpg,random,right,Experiments/experiment_26/112.jpg,Experiments/experiment_26/113.jpg,Experiments/experiment_26/114.jpg,Experiments/experiment_26/115.jpg,897,1,2023-09-17_10h13.04.826,Occlusion_Psychophysics,2022.1.4,Win32,32,,,right,"[""left""]",[1.0199999999999818],False,,0.0,0.0,28.0,28.0,28.0,1.0,,,,,,
,,,,,,,,,,,,,,,,,,,,,0.025,,,,,,,,,,Stimuli/psy_flexible_rotation_30_objects_occ0.7_0.9s/images/train/n02883344_0/n04256520_9/img_b03_box_napoleon_iii_sofa_2015_gray.jpg,n02883344_0,n04256520_9,flexible,0.717337,n04256520_9,Stimuli/psy_flexible_rotation_30_objects_occ0.7_0.9s/images/train/n02883344_0/n04256520_9/img_b03_box_napoleon_iii_sofa_2015-3_gray.png,foreground,same as foreground,n02883344_0,n02883344_-1,Stimuli/canonical view 2/img_n02883344_0_gray.jpg,Stimuli/canonical view 2/img_n02883344_-1_gray.jpg,random,right,Experiments/experiment_26/116.jpg,Experiments/experiment_26/117.jpg,Experiments/experiment_26/118.jpg,Experiments/experiment_26/119.jpg,897,1,2023-09-17_10h13.04.826,Occlusion_Psychophysics,2022.1.4,Win32,32,,,left,"[""left""]",[0.9639999999999418],False,,0.0,0.0,29.0,29.0,29.0,1.0,,,,,,
,,,,,,,,,,,,,,,,,,,,,0.05,,,,,,,,,,Stimuli/psy_flexible_rotation_30_objects_occ0.7_0.9s/images/train/n02933112_4/n02933112_-2/img_buffet_sink_base_white_wood_2005_gray.jpg,n02933112_4,n02933112_-2,flexible,0.776044,n02828884_4,Stimuli/psy_flexible_rotation_30_objects_occ0.7_0.9s/images/train/n04256520_4/n02828884_4/img_club_house_italia_nautilus_sofa_b05_c-5_classic_series_bench-2012_2010-3_gray.png,random,flexible,n02933112_4,n02883344_15,Stimuli/canonical view 2/img_n02933112_4_gray.jpg,Stimuli/canonical view 2/img_n02883344_15_gray.jpg,random,left,Experiments/experiment_26/120.jpg,Experiments/experiment_26/121.jpg,Experiments/experiment_26/122.jpg,Experiments/experiment_26/123.jpg,897,1,2023-09-17_10h13.04.826,Occlusion_Psychophysics,2022.1.4,Win32,32,,,left,"[""left""]",[0.98599999999999],False,,0.0,0.0,30.0,30.0,30.0,1.0,,,,,,
,,,,,,,,,,,,,,,,,,,,,0.025,,,,,,,,,,Stimuli/psy_fixed_rotation_30_objects_occ0.7_0.9s/images/train/n02933112_-18/n04405907_9/img_cgaxis_models_48_26_vray_composite_vray_004_2008_gray.jpg,n02933112_-18,n04405907_9,fixed,0.710689,n04405907_9,Stimuli/psy_fixed_rotation_30_objects_occ0.7_0.9s/images/train/n02933112_-18/n04405907_9/img_cgaxis_models_48_26_vray_composite_vray_004_2008-3_gray.png,foreground,same as foreground,n02933112_-18,n04405907_9,Stimuli/canonical view 2/img_n02933112_-18_gray.jpg,Stimuli/canonical view 2/img_n04405907_9_gray.jpg,foreground,right,Experiments/experiment_26/124.jpg,Experiments/experiment_26/125.jpg,Experiments/experiment_26/126.jpg,Experiments/experiment_26/127.jpg,897,1,2023-09-17_10h13.04.826,Occlusion_Psychophysics,2022.1.4,Win32,32,,,left,"[""left""]",[1.1680000000000064],False,,0.0,0.0,31.0,31.0,31.0,1.0,,,,,,
,,,,,,,,,,,,,,,,,,,,,0.05,,,,,,,,,,Stimuli/psy_fixed_rotation_30_objects_occ0.7_0.9s/images/train/n02818832_0/n04256520_9/img_b03_the_sofa_and_chair_company_-_stanley_bed_2014_napoleon_iii_sofa_2008_gray.jpg,n02818832_0,n04256520_9,fixed,0.73419,n04256520_9,Stimuli/psy_fixed_rotation_30_objects_occ0.7_0.9s/images/train/n02818832_0/n04256520_9/img_b03_the_sofa_and_chair_company_-_stanley_bed_2014_napoleon_iii_sofa_2008-3_gray.png,foreground,same as foreground,n02818832_0,n03928116_0,Stimuli/canonical view 2/img_n02818832_0_gray.jpg,Stimuli/canonical view 2/img_n03928116_0_gray.jpg,random,right,Experiments/experiment_26/128.jpg,Experiments/experiment_26/129.jpg,Experiments/experiment_26/130.jpg,Experiments/experiment_26/131.jpg,897,1,2023-09-17_10h13.04.826,Occlusion_Psychophysics,2022.1.4,Win32,32,,,right,"[""left""]",[1.1689999999999827],False,,0.0,0.0,32.0,32.0,32.0,1.0,,,,,,
,,,,,,,,,,,,,,,,,,,,,0.05,,,,,,,,,,Stimuli/psy_fixed_rotation_30_objects_occ0.7_0.9s/images/train/n02818832_9/n02818832_3/img_bed01_blue_b05_ccm_contemporary_bed_max2013_2009_gray.jpg,n02818832_9,n02818832_3,fixed,0.721884,n02818832_3,Stimuli/psy_fixed_rotation_30_objects_occ0.7_0.9s/images/train/n02818832_9/n02818832_3/img_bed01_blue_b05_ccm_contemporary_bed_max2013_2009-3_gray.png,foreground,same as foreground,n02818832_9,n02818832_3,Stimuli/canonical view 2/img_n02818832_9_gray.jpg,Stimuli/canonical view 2/img_n02818832_3_gray.jpg,foreground,right,Experiments/experiment_26/132.jpg,Experiments/experiment_26/133.jpg,Experiments/experiment_26/134.jpg,Experiments/experiment_26/135.jpg,897,1,2023-09-17_10h13.04.826,Occlusion_Psychophysics,2022.1.4,Win32,32,,,right,"[""left""]",[2.324999999999932],False,,0.0,0.0,33.0,33.0,33.0,1.0,,,,,,
,,,,,,,,,,,,,,,,,,,,,0.025,,,,,,,,,,Stimuli/psy_flexible_rotation_30_objects_occ0.7_0.9s/images/train/n02933112_4/n02883344_0/img_buffet_b03_box_2010_gray.jpg,n02933112_4,n02883344_0,flexible,0.708605,n02883344_0,Stimuli/psy_flexible_rotation_30_objects_occ0.7_0.9s/images/train/n02933112_4/n02883344_0/img_buffet_b03_box_2010-3_gray.png,foreground,same as foreground,n02933112_4,n02883344_0,Stimuli/canonical view 2/img_n02933112_4_gray.jpg,Stimuli/canonical view 2/img_n02883344_0_gray.jpg,foreground,right,Experiments/experiment_26/136.jpg,Experiments/experiment_26/137.jpg,Experiments/experiment_26/138.jpg,Experiments/experiment_26/139.jpg,897,1,2023-09-17_10h13.04.826,Occlusion_Psychophysics,2022.1.4,Win32,32,,,right,"[""left""]",[1.2040000000000646],False,,0.0,0.0,34.0,34.0,34.0,1.0,,,,,,
,,,,,,,,,,,,,,,,,,,,,0.025,,,,,,,,,,Stimuli/psy_fixed_rotation_30_objects_occ0.7_0.9s/images/train/n02828884_3/n04379243_-7/img_b04_wood_metal_park_bench_quatre_dining_table_2014_gray.jpg,n02828884_3,n04379243_-7,fixed,0.804041,n04379243_-7,Stimuli/psy_fixed_rotation_30_objects_occ0.7_0.9s/images/train/n02828884_3/n04379243_-7/img_b04_wood_metal_park_bench_quatre_dining_table_2014-3_gray.png,foreground,same as foreground,n02828884_3,n04379243_-7,Stimuli/canonical view 2/img_n02828884_3_gray.jpg,Stimuli/canonical view 2/img_n04379243_-7_gray.jpg,foreground,right,Experiments/experiment_26/140.jpg,Experiments/experiment_26/141.jpg,Experiments/experiment_26/142.jpg,Experiments/experiment_26/143.jpg,897,1,2023-09-17_10h13.04.826,Occlusion_Psychophysics,2022.1.4,Win32,32,,,left,"[""left""]",[0.9239999999999782],False,,0.0,0.0,35.0,35.0,35.0,1.0,,,,,,
,,,,,,,,,,,,,,,,,,,,,0.025,,,,,,,,,,Stimuli/psy_flexible_rotation_30_objects_occ0.7_0.9s/images/train/n04256520_4/n04405907_8/img_club_house_italia_nautilus_sofa_stylized_tv_2004_gray.jpg,n04256520_4,n04405907_8,flexible,0.778028,n03928116_0,Stimuli/psy_fixed_rotation_30_objects_occ0.7_0.9s/images/train/n04070727_5/n03928116_0/img_b05_db_apps_tech_06_13_composite_b02_piano_2007-3_gray.png,random,fixed,n04256520_4,n04405907_8,Stimuli/canonical view 2/img_n04256520_4_gray.jpg,Stimuli/canonical view 2/img_n04405907_8_gray.jpg,foreground,left,Experiments/experiment_26/144.jpg,Experiments/experiment_26/145.jpg,Experiments/experiment_26/146.jpg,Experiments/experiment_26/147.jpg,897,1,2023-09-17_10h13.04.826,Occlusion_Psychophysics,2022.1.4,Win32,32,,,right,"[""right""]",[1.5489999999999782],False,,0.0,0.0,36.0,36.0,36.0,1.0,,,,,,
,,,,,,,,,,,,,,,,,,,,,0.025,,,,,,,,,,Stimuli/psy_flexible_rotation_30_objects_occ0.7_0.9s/images/train/n03001627_-2/n04256520_9/img_wood_chair_napoleon_iii_sofa_2004_gray.jpg,n03001627_-2,n04256520_9,flexible,0.73892,n04256520_9,Stimuli/psy_flexible_rotation_30_objects_occ0.7_0.9s/images/train/n03001627_-2/n04256520_9/img_wood_chair_napoleon_iii_sofa_2004-3_gray.png,foreground,same as foreground,n03001627_-2,n03928116_4,Stimuli/canonical view 2/img_n03001627_-2_gray.jpg,Stimuli/canonical view 2/img_n03928116_4_gray.jpg,random,left,Experiments/experiment_26/148.jpg,Experiments/experiment_26/149.jpg,Experiments/experiment_26/150.jpg,Experiments/experiment_26/151.jpg,897,1,2023-09-17_10h13.04.826,Occlusion_Psychophysics,2022.1.4,Win32,32,,,left,"[""left""]",[1.0809999999999036],False,,0.0,0.0,37.0,37.0,37.0,1.0,,,,,,
,,,,,,,,,,,,,,,,,,,,,0.05,,,,,,,,,,Stimuli/psy_flexible_rotation_30_objects_occ0.7_0.9s/images/train/n04405907_5/n02883344_0/img_samsung_40_uhd_smart_tv_2011_b03_box_2002_gray.jpg,n04405907_5,n02883344_0,flexible,0.883414,n02883344_0,Stimuli/psy_flexible_rotation_30_objects_occ0.7_0.9s/images/train/n04405907_5/n02883344_0/img_samsung_40_uhd_smart_tv_2011_b03_box_2002-3_gray.png,foreground,same as foreground,n04405907_5,n02828884_3,Stimuli/canonical view 2/img_n04405907_5_gray.jpg,Stimuli/canonical view 2/img_n02828884_3_gray.jpg,random,left,Experiments/experiment_26/152.jpg,Experiments/experiment_26/153.jpg,Experiments/experiment_26/154.jpg,Experiments/experiment_26/155.jpg,897,1,2023-09-17_10h13.04.826,Occlusion_Psychophysics,2022.1.4,Win32,32,,,left,"[""right""]",[1.1389999999998963],False,,0.0,0.0,38.0,38.0,38.0,1.0,,,,,,
,,,,,,,,,,,,,,,,,,,,,0.025,,,,,,,,,,Stimuli/psy_fixed_rotation_30_objects_occ0.7_0.9s/images/train/n02883344_-1/n04256520_5/img_woven_box_meridiani_belmondo_bench_sofa_2015_gray.jpg,n02883344_-1,n04256520_5,fixed,0.73842,n04256520_5,Stimuli/psy_fixed_rotation_30_objects_occ0.7_0.9s/images/train/n02883344_-1/n04256520_5/img_woven_box_meridiani_belmondo_bench_sofa_2015-3_gray.png,foreground,same as foreground,n02883344_-1,n04379243_-7,Stimuli/canonical view 2/img_n02883344_-1_gray.jpg,Stimuli/canonical view 2/img_n04379243_-7_gray.jpg,random,left,Experiments/experiment_26/156.jpg,Experiments/experiment_26/157.jpg,Experiments/experiment_26/158.jpg,Experiments/experiment_26/159.jpg,897,1,2023-09-17_10h13.04.826,Occlusion_Psychophysics,2022.1.4,Win32,32,,,left,"[""left""]",[0.875],False,,0.0,0.0,39.0,39.0,39.0,1.0,,,,,,
,,,,,,,,,,,,,,,,,,,,,0.05,,,,,,,,,,Stimuli/psy_fixed_rotation_30_objects_occ0.7_0.9s/images/train/n03928116_4/n02818832_9/img_dp_33_b_2013__vray_bed01_blue_2007_gray.jpg,n03928116_4,n02818832_9,fixed,0.713131,n02818832_9,Stimuli/psy_fixed_rotation_30_objects_occ0.7_0.9s/images/train/n03928116_4/n02818832_9/img_dp_33_b_2013__vray_bed01_blue_2007-3_gray.png,foreground,same as foreground,n03928116_4,n02818832_9,Stimuli/canonical view 2/img_n03928116_4_gray.jpg,Stimuli/canonical view 2/img_n02818832_9_gray.jpg,foreground,right,Experiments/experiment_26/160.jpg,Experiments/experiment_26/161.jpg,Experiments/experiment_26/162.jpg,Experiments/experiment_26/163.jpg,897,1,2023-09-17_10h13.04.826,Occlusion_Psychophysics,2022.1.4,Win32,32,,,left,"[""left""]",[1.0130000000000337],False,,0.0,0.0,40.0,40.0,40.0,1.0,,,,,,
,,,,,,,,,,,,,,,,,,,,,0.05,,,,,,,,,,Stimuli/psy_fixed_rotation_30_objects_occ0.7_0.9s/images/train/n03928116_4/n04256520_9/img_dp_33_b_2013__vray_napoleon_iii_sofa_2011_gray.jpg,n03928116_4,n04256520_9,fixed,0.709696,n02818832_0,Stimuli/psy_flexible_rotation_30_objects_occ0.7_0.9s/images/train/n04405907_8/n02818832_0/img_stylized_tv_b03_the_sofa_and_chair_company_-_stanley_bed_2014_2008-3_gray.png,random,flexible,n03928116_4,n04405907_9,Stimuli/canonical view 2/img_n03928116_4_gray.jpg,Stimuli/canonical view 2/img_n04405907_9_gray.jpg,random,left,Experiments/experiment_26/164.jpg,Experiments/experiment_26/165.jpg,Experiments/experiment_26/166.jpg,Experiments/experiment_26/167.jpg,897,1,2023-09-17_10h13.04.826,Occlusion_Psychophysics,2022.1.4,Win32,32,,,right,"[""right""]",[0.9320000000000164],False,,0.0,0.0,41.0,41.0,41.0,1.0,,,,,,
,,,,,,,,,,,,,,,,,,,,,0.025,,,,,,,,,,Stimuli/psy_flexible_rotation_30_objects_occ0.7_0.9s/images/train/n02883344_0/n02933112_-18/img_b03_box_cgaxis_models_48_26_vray_composite_2003_gray.jpg,n02883344_0,n02933112_-18,flexible,0.759155,n03928116_4,Stimuli/psy_fixed_rotation_30_objects_occ0.7_0.9s/images/train/n04379243_8/n03928116_4/img_glass_table_dp_33_b_2013__vray_2000-3_gray.png,random,fixed,n02883344_0,n02933112_-18,Stimuli/canonical view 2/img_n02883344_0_gray.jpg,Stimuli/canonical view 2/img_n02933112_-18_gray.jpg,foreground,left,Experiments/experiment_26/168.jpg,Experiments/experiment_26/169.jpg,Experiments/experiment_26/170.jpg,Experiments/experiment_26/171.jpg,897,1,2023-09-17_10h13.04.826,Occlusion_Psychophysics,2022.1.4,Win32,32,,,left,"[""left""]",[0.9189999999999827],False,,0.0,0.0,42.0,42.0,42.0,1.0,,,,,,
,,,,,,,,,,,,,,,,,,,,,0.025,,,,,,,,,,Stimuli/psy_flexible_rotation_30_objects_occ0.7_0.9s/images/train/n04379243_0/n04405907_5/img_17th_c._monastery_dining_table_2010_samsung_40_uhd_smart_tv_2011_2005_gray.jpg,n04379243_0,n04405907_5,flexible,0.772738,n04405907_5,Stimuli/psy_flexible_rotation_30_objects_occ0.7_0.9s/images/train/n04379243_0/n04405907_5/img_17th_c._monastery_dining_table_2010_samsung_40_uhd_smart_tv_2011_2005-3_gray.png,foreground,same as foreground,n04379243_0,n04405907_5,Stimuli/canonical view 2/img_n04379243_0_gray.jpg,Stimuli/canonical view 2/img_n04405907_5_gray.jpg,foreground,right,Experiments/experiment_26/172.jpg,Experiments/experiment_26/173.jpg,Experiments/experiment_26/174.jpg,Experiments/experiment_26/175.jpg,897,1,2023-09-17_10h13.04.826,Occlusion_Psychophysics,2022.1.4,Win32,32,,,left,"[""left""]",[0.9320000000000164],False,,0.0,0.0,43.0,43.0,43.0,1.0,,,,,,
,,,,,,,,,,,,,,,,,,,,,0.025,,,,,,,,,,Stimuli/psy_flexible_rotation_30_objects_occ0.7_0.9s/images/train/n02933112_-2/n04405907_9/img_sink_base_white_wood_vray_004_2000_gray.jpg,n02933112_-2,n04405907_9,flexible,0.720072,n04405907_9,Stimuli/psy_flexible_rotation_30_objects_occ0.7_0.9s/images/train/n02933112_-2/n04405907_9/img_sink_base_white_wood_vray_004_2000-3_gray.png,foreground,same as foreground,n02933112_-2,n04405907_9,Stimuli/canonical view 2/img_n02933112_-2_gray.jpg,Stimuli/canonical view 2/img_n04405907_9_gray.jpg,foreground,left,Experiments/experiment_26/176.jpg,Experiments/experiment_26/177.jpg,Experiments/experiment_26/178.jpg,Experiments/experiment_26/179.jpg,897,1,2023-09-17_10h13.04.826,Occlusion_Psychophysics,2022.1.4,Win32,32,,,left,"[""left""]",[0.8880000000000337],False,,0.0,0.0,44.0,44.0,44.0,1.0,,,,,,
,,,,,,,,,,,,,,,,,,,,,0.025,,,,,,,,,,Stimuli/psy_fixed_rotation_30_objects_occ0.7_0.9s/images/train/n02883344_15/n04379243_-7/img_microwave_box_quatre_dining_table_2006_gray.jpg,n02883344_15,n04379243_-7,fixed,0.718115,n04379243_-7,Stimuli/psy_fixed_rotation_30_objects_occ0.7_0.9s/images/train/n02883344_15/n04379243_-7/img_microwave_box_quatre_dining_table_2006-3_gray.png,foreground,same as foreground,n02883344_15,n04379243_-7,Stimuli/canonical view 2/img_n02883344_15_gray.jpg,Stimuli/canonical view 2/img_n04379243_-7_gray.jpg,foreground,left,Experiments/experiment_26/180.jpg,Experiments/experiment_26/181.jpg,Experiments/experiment_26/182.jpg,Experiments/experiment_26/183.jpg,897,1,2023-09-17_10h13.04.826,Occlusion_Psychophysics,2022.1.4,Win32,32,,,left,"[""right""]",[1.2320000000000846],False,,0.0,0.0,45.0,45.0,45.0,1.0,,,,,,
,,,,,,,,,,,,,,,,,,,,,0.025,,,,,,,,,,Stimuli/psy_flexible_rotation_30_objects_occ0.7_0.9s/images/train/n04256520_9/n02883344_15/img_napoleon_iii_sofa_microwave_box_2013_gray.jpg,n04256520_9,n02883344_15,flexible,0.733131,n02883344_15,Stimuli/psy_flexible_rotation_30_objects_occ0.7_0.9s/images/train/n04256520_9/n02883344_15/img_napoleon_iii_sofa_microwave_box_2013-3_gray.png,foreground,same as foreground,n04256520_9,n02883344_15,Stimuli/canonical view 2/img_n04256520_9_gray.jpg,Stimuli/canonical view 2/img_n02883344_15_gray.jpg,foreground,left,Experiments/experiment_26/184.jpg,Experiments/experiment_26/185.jpg,Experiments/experiment_26/186.jpg,Experiments/experiment_26/187.jpg,897,1,2023-09-17_10h13.04.826,Occlusion_Psychophysics,2022.1.4,Win32,32,,,left,"[""left""]",[0.86099999999999],False,,0.0,0.0,46.0,46.0,46.0,1.0,,,,,,
,,,,,,,,,,,,,,,,,,,,,0.025,,,,,,,,,,Stimuli/psy_flexible_rotation_30_objects_occ0.7_0.9s/images/train/n03928116_10/n02883344_0/img_ydp_103_r_2012__vray_b03_box_2011_gray.jpg,n03928116_10,n02883344_0,flexible,0.833724,n04405907_8,Stimuli/psy_flexible_rotation_30_objects_occ0.7_0.9s/images/train/n02828884_9/n04405907_8/img_cr-96_bench_stylized_tv_2000-3_gray.png,random,flexible,n03928116_10,n02828884_9,Stimuli/canonical view 2/img_n03928116_10_gray.jpg,Stimuli/canonical view 2/img_n02828884_9_gray.jpg,random,right,Experiments/experiment_26/188.jpg,Experiments/experiment_26/189.jpg,Experiments/experiment_26/190.jpg,Experiments/experiment_26/191.jpg,897,1,2023-09-17_10h13.04.826,Occlusion_Psychophysics,2022.1.4,Win32,32,,,left,"[""left""]",[0.8300000000000409],False,,0.0,0.0,47.0,47.0,47.0,1.0,,,,,,
,,,,,,,,,,,,,,,,,,,,,0.05,,,,,,,,,,Stimuli/psy_fixed_rotation_30_objects_occ0.7_0.9s/images/train/n03001627_-2/n02883344_15/img_wood_chair_microwave_box_2009_gray.jpg,n03001627_-2,n02883344_15,fixed,0.726469,n02883344_15,Stimuli/psy_fixed_rotation_30_objects_occ0.7_0.9s/images/train/n03001627_-2/n02883344_15/img_wood_chair_microwave_box_2009-3_gray.png,foreground,same as foreground,n03001627_-2,n04256520_4,Stimuli/canonical view 2/img_n03001627_-2_gray.jpg,Stimuli/canonical view 2/img_n04256520_4_gray.jpg,random,right,Experiments/experiment_26/192.jpg,Experiments/experiment_26/193.jpg,Experiments/experiment_26/194.jpg,Experiments/experiment_26/195.jpg,897,1,2023-09-17_10h13.04.826,Occlusion_Psychophysics,2022.1.4,Win32,32,,,right,"[""right""]",[1.0270000000000437],False,,0.0,0.0,48.0,48.0,48.0,1.0,,,,,,
,,,,,,,,,,,,,,,,,,,,,0.025,,,,,,,,,,Stimuli/psy_fixed_rotation_30_objects_occ0.7_0.9s/images/train/n04379243_0/n02933112_-18/img_17th_c._monastery_dining_table_2010_cgaxis_models_48_26_vray_composite_2002_gray.jpg,n04379243_0,n02933112_-18,fixed,0.706675,n02933112_-18,Stimuli/psy_fixed_rotation_30_objects_occ0.7_0.9s/images/train/n04379243_0/n02933112_-18/img_17th_c._monastery_dining_table_2010_cgaxis_models_48_26_vray_composite_2002-3_gray.png,foreground,same as foreground,n04379243_0,n04379243_-7,Stimuli/canonical view 2/img_n04379243_0_gray.jpg,Stimuli/canonical view 2/img_n04379243_-7_gray.jpg,random,left,Experiments/experiment_26/196.jpg,Experiments/experiment_26/197.jpg,Experiments/experiment_26/198.jpg,Experiments/experiment_26/199.jpg,897,1,2023-09-17_10h13.04.826,Occlusion_Psychophysics,2022.1.4,Win32,32,,,right,"[""right""]",[0.8569999999999709],False,,0.0,0.0,49.0,49.0,49.0,1.0,,,,,,
,,,,,,,,,,,,,,,,,,,,,0.05,,,,,,,,,,Stimuli/psy_fixed_rotation_30_objects_occ0.7_0.9s/images/train/n04405907_5/n02883344_0/img_samsung_40_uhd_smart_tv_2011_b03_box_2014_gray.jpg,n04405907_5,n02883344_0,fixed,0.838451,n02883344_0,Stimuli/psy_fixed_rotation_30_objects_occ0.7_0.9s/images/train/n04405907_5/n02883344_0/img_samsung_40_uhd_smart_tv_2011_b03_box_2014-3_gray.png,foreground,same as foreground,n04405907_5,n02883344_0,Stimuli/canonical view 2/img_n04405907_5_gray.jpg,Stimuli/canonical view 2/img_n02883344_0_gray.jpg,foreground,left,Experiments/experiment_26/200.jpg,Experiments/experiment_26/201.jpg,Experiments/experiment_26/202.jpg,Experiments/experiment_26/203.jpg,897,1,2023-09-17_10h13.04.826,Occlusion_Psychophysics,2022.1.4,Win32,32,,,right,"[""left""]",[0.98599999999999],False,,0.0,0.0,50.0,50.0,50.0,1.0,,,,,,
,,,,,,,,,,,,,,,,,,,,,0.025,,,,,,,,,,Stimuli/psy_fixed_rotation_30_objects_occ0.7_0.9s/images/train/n02818832_3/n02828884_3/img_b05_ccm_contemporary_bed_max2013_b04_wood_metal_park_bench_2012_gray.jpg,n02818832_3,n02828884_3,fixed,0.798894,n04379243_0,Stimuli/psy_flexible_rotation_30_objects_occ0.7_0.9s/images/train/n02818832_0/n04379243_0/img_b03_the_sofa_and_chair_company_-_stanley_bed_2014_17th_c._monastery_dining_table_2010_2000-3_gray.png,random,flexible,n02818832_3,n02828884_3,Stimuli/canonical view 2/img_n02818832_3_gray.jpg,Stimuli/canonical view 2/img_n02828884_3_gray.jpg,foreground,right,Experiments/experiment_26/204.jpg,Experiments/experiment_26/205.jpg,Experiments/experiment_26/206.jpg,Experiments/experiment_26/207.jpg,897,1,2023-09-17_10h13.04.826,Occlusion_Psychophysics,2022.1.4,Win32,32,,,left,"[""right""]",[1.1760000000000446],False,,0.0,0.0,51.0,51.0,51.0,1.0,,,,,,
,,,,,,,,,,,,,,,,,,,,,0.05,,,,,,,,,,Stimuli/psy_fixed_rotation_30_objects_occ0.7_0.9s/images/train/n03928116_4/n02933112_4/img_dp_33_b_2013__vray_buffet_2008_gray.jpg,n03928116_4,n02933112_4,fixed,0.711422,n02933112_4,Stimuli/psy_fixed_rotation_30_objects_occ0.7_0.9s/images/train/n03928116_4/n02933112_4/img_dp_33_b_2013__vray_buffet_2008-3_gray.png,foreground,same as foreground,n03928116_4,n02933112_4,Stimuli/canonical view 2/img_n03928116_4_gray.jpg,Stimuli/canonical view 2/img_n02933112_4_gray.jpg,foreground,right,Experiments/experiment_26/208.jpg,Experiments/experiment_26/209.jpg,Experiments/experiment_26/210.jpg,Experiments/experiment_26/211.jpg,897,1,2023-09-17_10h13.04.826,Occlusion_Psychophysics,2022.1.4,Win32,32,,,right,"[""left""]",[1.4930000000000518],False,,0.0,0.0,52.0,52.0,52.0,1.0,,,,,,
,,,,,,,,,,,,,,,,,,,,,0.05,,,,,,,,,,Stimuli/psy_fixed_rotation_30_objects_occ0.7_0.9s/images/train/n03001627_8/n04405907_8/img_chair_billiani_doll_stylized_tv_2005_gray.jpg,n03001627_8,n04405907_8,fixed,0.84495,n04405907_8,Stimuli/psy_fixed_rotation_30_objects_occ0.7_0.9s/images/train/n03001627_8/n04405907_8/img_chair_billiani_doll_stylized_tv_2005-3_gray.png,foreground,same as foreground,n03001627_8,n04405907_8,Stimuli/canonical view 2/img_n03001627_8_gray.jpg,Stimuli/canonical view 2/img_n04405907_8_gray.jpg,foreground,right,Experiments/experiment_26/212.jpg,Experiments/experiment_26/213.jpg,Experiments/experiment_26/214.jpg,Experiments/experiment_26/215.jpg,897,1,2023-09-17_10h13.04.826,Occlusion_Psychophysics,2022.1.4,Win32,32,,,right,"[""right""]",[0.9270000000000209],False,,0.0,0.0,53.0,53.0,53.0,1.0,,,,,,
,,,,,,,,,,,,,,,,,,,,,0.05,,,,,,,,,,Stimuli/psy_flexible_rotation_30_objects_occ0.7_0.9s/images/train/n04256520_9/n04256520_4/img_napoleon_iii_sofa_club_house_italia_nautilus_sofa_2012_gray.jpg,n04256520_9,n04256520_4,flexible,0.731233,n02818832_9,Stimuli/psy_fixed_rotation_30_objects_occ0.7_0.9s/images/train/n02818832_0/n02818832_9/img_b03_the_sofa_and_chair_company_-_stanley_bed_2014_bed01_blue_2010-3_gray.png,random,fixed,n04256520_9,n04405907_8,Stimuli/canonical view 2/img_n04256520_9_gray.jpg,Stimuli/canonical view 2/img_n04405907_8_gray.jpg,random,right,Experiments/experiment_26/216.jpg,Experiments/experiment_26/217.jpg,Experiments/experiment_26/218.jpg,Experiments/experiment_26/219.jpg,897,1,2023-09-17_10h13.04.826,Occlusion_Psychophysics,2022.1.4,Win32,32,,,left,"[""left""]",[0.9879999999999427],False,,0.0,0.0,54.0,54.0,54.0,1.0,,,,,,
,,,,,,,,,,,,,,,,,,,,,0.025,,,,,,,,,,Stimuli/psy_flexible_rotation_30_objects_occ0.7_0.9s/images/train/n04379243_-7/n03928116_4/img_quatre_dining_table_dp_33_b_2013__vray_2005_gray.jpg,n04379243_-7,n03928116_4,flexible,0.752921,n02883344_15,Stimuli/psy_fixed_rotation_30_objects_occ0.7_0.9s/images/train/n04070727_5/n02883344_15/img_b05_db_apps_tech_06_13_composite_microwave_box_2015-3_gray.png,random,fixed,n04379243_-7,n03928116_4,Stimuli/canonical view 2/img_n04379243_-7_gray.jpg,Stimuli/canonical view 2/img_n03928116_4_gray.jpg,foreground,left,Experiments/experiment_26/220.jpg,Experiments/experiment_26/221.jpg,Experiments/experiment_26/222.jpg,Experiments/experiment_26/223.jpg,897,1,2023-09-17_10h13.04.826,Occlusion_Psychophysics,2022.1.4,Win32,32,,,left,"[""right""]",[1.7010000000000218],False,,0.0,0.0,55.0,55.0,55.0,1.0,,,,,,
,,,,,,,,,,,,,,,,,,,,,0.025,,,,,,,,,,Stimuli/psy_flexible_rotation_30_objects_occ0.7_0.9s/images/train/n04405907_5/n02883344_0/img_samsung_40_uhd_smart_tv_2011_b03_box_2001_gray.jpg,n04405907_5,n02883344_0,flexible,0.882454,n02883344_0,Stimuli/psy_flexible_rotation_30_objects_occ0.7_0.9s/images/train/n04405907_5/n02883344_0/img_samsung_40_uhd_smart_tv_2011_b03_box_2001-3_gray.png,foreground,same as foreground,n04405907_5,n03001627_-2,Stimuli/canonical view 2/img_n04405907_5_gray.jpg,Stimuli/canonical view 2/img_n03001627_-2_gray.jpg,random,right,Experiments/experiment_26/224.jpg,Experiments/experiment_26/225.jpg,Experiments/experiment_26/226.jpg,Experiments/experiment_26/227.jpg,897,1,2023-09-17_10h13.04.826,Occlusion_Psychophysics,2022.1.4,Win32,32,,,left,"[""right""]",[1.0480000000000018],False,,0.0,0.0,56.0,56.0,56.0,1.0,,,,,,
,,,,,,,,,,,,,,,,,,,,,0.025,,,,,,,,,,Stimuli/psy_fixed_rotation_30_objects_occ0.7_0.9s/images/train/n04256520_5/n02818832_0/img_meridiani_belmondo_bench_sofa_b03_the_sofa_and_chair_company_-_stanley_bed_2014_2014_gray.jpg,n04256520_5,n02818832_0,fixed,0.708165,n04405907_9,Stimuli/psy_fixed_rotation_30_objects_occ0.7_0.9s/images/train/n02883344_-1/n04405907_9/img_woven_box_vray_004_2010-3_gray.png,random,fixed,n04256520_5,n04405907_8,Stimuli/canonical view 2/img_n04256520_5_gray.jpg,Stimuli/canonical view 2/img_n04405907_8_gray.jpg,random,right,Experiments/experiment_26/228.jpg,Experiments/experiment_26/229.jpg,Experiments/experiment_26/230.jpg,Experiments/experiment_26/231.jpg,897,1,2023-09-17_10h13.04.826,Occlusion_Psychophysics,2022.1.4,Win32,32,,,right,"[""right""]",[0.9850000000000136],False,,0.0,0.0,57.0,57.0,57.0,1.0,,,,,,
,,,,,,,,,,,,,,,,,,,,,0.05,,,,,,,,,,Stimuli/psy_fixed_rotation_30_objects_occ0.7_0.9s/images/train/n04256520_9/n02933112_-2/img_napoleon_iii_sofa_sink_base_white_wood_2006_gray.jpg,n04256520_9,n02933112_-2,fixed,0.802923,n02933112_-18,Stimuli/psy_flexible_rotation_30_objects_occ0.7_0.9s/images/train/n02828884_3/n02933112_-18/img_b04_wood_metal_park_bench_cgaxis_models_48_26_vray_composite_2002-3_gray.png,random,flexible,n04256520_9,n02933112_-2,Stimuli/canonical view 2/img_n04256520_9_gray.jpg,Stimuli/canonical view 2/img_n02933112_-2_gray.jpg,foreground,right,Experiments/experiment_26/232.jpg,Experiments/experiment_26/233.jpg,Experiments/experiment_26/234.jpg,Experiments/experiment_26/235.jpg,897,1,2023-09-17_10h13.04.826,Occlusion_Psychophysics,2022.1.4,Win32,32,,,left,"[""left""]",[0.9589999999999463],False,,0.0,0.0,58.0,58.0,58.0,1.0,,,,,,
,,,,,,,,,,,,,,,,,,,,,0.05,,,,,,,,,,Stimuli/psy_fixed_rotation_30_objects_occ0.7_0.9s/images/train/n04379243_0/n04379243_8/img_17th_c._monastery_dining_table_2010_glass_table_2003_gray.jpg,n04379243_0,n04379243_8,fixed,0.701002,n04379243_8,Stimuli/psy_fixed_rotation_30_objects_occ0.7_0.9s/images/train/n04379243_0/n04379243_8/img_17th_c._monastery_dining_table_2010_glass_table_2003-3_gray.png,foreground,same as foreground,n04379243_0,n03001627_8,Stimuli/canonical view 2/img_n04379243_0_gray.jpg,Stimuli/canonical view 2/img_n03001627_8_gray.jpg,random,left,Experiments/experiment_26/236.jpg,Experiments/experiment_26/237.jpg,Experiments/experiment_26/238.jpg,Experiments/experiment_26/239.jpg,897,1,2023-09-17_10h13.04.826,Occlusion_Psychophysics,2022.1.4,Win32,32,,,left,"[""left""]",[0.86200000000008],False,,0.0,0.0,59.0,59.0,59.0,1.0,,,,,,
,,,,,,,,,,,,,,,,,,,,,0.025,,,,,,,,,,Stimuli/psy_flexible_rotation_30_objects_occ0.7_0.9s/images/train/n02828884_4/n04405907_8/img_b05_c-5_classic_series_bench-2012_stylized_tv_2010_gray.jpg,n02828884_4,n04405907_8,flexible,0.716842,n04405907_8,Stimuli/psy_flexible_rotation_30_objects_occ0.7_0.9s/images/train/n02828884_4/n04405907_8/img_b05_c-5_classic_series_bench-2012_stylized_tv_2010-3_gray.png,foreground,same as foreground,n02828884_4,n04405907_8,Stimuli/canonical view 2/img_n02828884_4_gray.jpg,Stimuli/canonical view 2/img_n04405907_8_gray.jpg,foreground,left,Experiments/experiment_26/240.jpg,Experiments/experiment_26/241.jpg,Experiments/experiment_26/242.jpg,Experiments/experiment_26/243.jpg,897,1,2023-09-17_10h13.04.826,Occlusion_Psychophysics,2022.1.4,Win32,32,,,right,"[""right""]",[1.1090000000000373],False,,0.0,0.0,60.0,60.0,60.0,1.0,,,,,,
,,,,,,,,,,,,,,,,,,,,,0.05,,,,,,,,,,Stimuli/psy_flexible_rotation_30_objects_occ0.7_0.9s/images/train/n03001627_-2/n02883344_-1/img_wood_chair_woven_box_2011_gray.jpg,n03001627_-2,n02883344_-1,flexible,0.765202,n02933112_4,Stimuli/psy_fixed_rotation_30_objects_occ0.7_0.9s/images/train/n03928116_4/n02933112_4/img_dp_33_b_2013__vray_buffet_2014-3_gray.png,random,fixed,n03001627_-2,n02883344_-1,Stimuli/canonical view 2/img_n03001627_-2_gray.jpg,Stimuli/canonical view 2/img_n02883344_-1_gray.jpg,foreground,right,Experiments/experiment_26/244.jpg,Experiments/experiment_26/245.jpg,Experiments/experiment_26/246.jpg,Experiments/experiment_26/247.jpg,897,1,2023-09-17_10h13.04.826,Occlusion_Psychophysics,2022.1.4,Win32,32,,,right,"[""right""]",[1.0500000000000682],False,,0.0,0.0,61.0,61.0,61.0,1.0,,,,,,
,,,,,,,,,,,,,,,,,,,,,0.025,,,,,,,,,,Stimuli/psy_flexible_rotation_30_objects_occ0.7_0.9s/images/train/n03928116_4/n02818832_3/img_dp_33_b_2013__vray_b05_ccm_contemporary_bed_max2013_2004_gray.jpg,n03928116_4,n02818832_3,flexible,0.70367,n02818832_3,Stimuli/psy_flexible_rotation_30_objects_occ0.7_0.9s/images/train/n03928116_4/n02818832_3/img_dp_33_b_2013__vray_b05_ccm_contemporary_bed_max2013_2004-3_gray.png,foreground,same as foreground,n03928116_4,n02818832_3,Stimuli/canonical view 2/img_n03928116_4_gray.jpg,Stimuli/canonical view 2/img_n02818832_3_gray.jpg,foreground,left,Experiments/experiment_26/248.jpg,Experiments/experiment_26/249.jpg,Experiments/experiment_26/250.jpg,Experiments/experiment_26/251.jpg,897,1,2023-09-17_10h13.04.826,Occlusion_Psychophysics,2022.1.4,Win32,32,,,left,"[""left""]",[1.02800000000002],True,right,1.0,0.0,62.0,62.0,62.0,1.0,1.005,,,,,
,,,,,,,,,,,,,,,,,,,,,0.025,,,,,,,,,,Stimuli/psy_fixed_rotation_30_objects_occ0.7_0.9s/images/train/n03001627_8/n03001627_9/img_chair_billiani_doll_chair_eames_plastic_armchair_2007_gray.jpg,n03001627_8,n03001627_9,fixed,0.850484,n03928116_0,Stimuli/psy_flexible_rotation_30_objects_occ0.7_0.9s/images/train/n02933112_4/n03928116_0/img_buffet_b02_piano_2015-3_gray.png,random,flexible,n03001627_8,n03001627_9,Stimuli/canonical view 2/img_n03001627_8_gray.jpg,Stimuli/canonical view 2/img_n03001627_9_gray.jpg,foreground,right,Experiments/experiment_26/252.jpg,Experiments/experiment_26/253.jpg,Experiments/experiment_26/254.jpg,Experiments/experiment_26/255.jpg,897,1,2023-09-17_10h13.04.826,Occlusion_Psychophysics,2022.1.4,Win32,32,,,left,"[""left""]",[2.215000000000032],False,,0.0,0.0,63.0,63.0,63.0,1.0,,,,,,
,,,,,,,,,,,,,,,,,,,,,0.05,,,,,,,,,,Stimuli/psy_fixed_rotation_30_objects_occ0.7_0.9s/images/train/n04379243_0/n02828884_3/img_17th_c._monastery_dining_table_2010_b04_wood_metal_park_bench_2013_gray.jpg,n04379243_0,n02828884_3,fixed,0.772817,n02883344_0,Stimuli/psy_flexible_rotation_30_objects_occ0.7_0.9s/images/train/n04405907_5/n02883344_0/img_samsung_40_uhd_smart_tv_2011_b03_box_2001-3_gray.png,random,flexible,n04379243_0,n02828884_3,Stimuli/canonical view 2/img_n04379243_0_gray.jpg,Stimuli/canonical view 2/img_n02828884_3_gray.jpg,foreground,right,Experiments/experiment_26/256.jpg,Experiments/experiment_26/257.jpg,Experiments/experiment_26/258.jpg,Experiments/experiment_26/259.jpg,897,1,2023-09-17_10h13.04.826,Occlusion_Psychophysics,2022.1.4,Win32,32,,,left,"[""left""]",[1.044999999999959],False,,0.0,0.0,64.0,64.0,64.0,1.0,,,,,,
,,,,,,,,,,,,,,,,,,,,,0.05,,,,,,,,,,Stimuli/psy_fixed_rotation_30_objects_occ0.7_0.9s/images/train/n02818832_9/n04405907_5/img_bed01_blue_samsung_40_uhd_smart_tv_2011_2003_gray.jpg,n02818832_9,n04405907_5,fixed,0.72198,n02828884_3,Stimuli/psy_flexible_rotation_30_objects_occ0.7_0.9s/images/train/n02818832_9/n02828884_3/img_bed01_blue_b04_wood_metal_park_bench_2011-3_gray.png,random,flexible,n02818832_9,n04405907_5,Stimuli/canonical view 2/img_n02818832_9_gray.jpg,Stimuli/canonical view 2/img_n04405907_5_gray.jpg,foreground,left,Experiments/experiment_26/260.jpg,Experiments/experiment_26/261.jpg,Experiments/experiment_26/262.jpg,Experiments/experiment_26/263.jpg,897,1,2023-09-17_10h13.04.826,Occlusion_Psychophysics,2022.1.4,Win32,32,,,left,"[""left""]",[0.8959999999999582],False,,0.0,0.0,65.0,65.0,65.0,1.0,,,,,,
,,,,,,,,,,,,,,,,,,,,,0.05,,,,,,,,,,Stimuli/psy_fixed_rotation_30_objects_occ0.7_0.9s/images/train/n02883344_-1/n02828884_3/img_woven_box_b04_wood_metal_park_bench_2007_gray.jpg,n02883344_-1,n02828884_3,fixed,0.800029,n04379243_-7,Stimuli/psy_flexible_rotation_30_objects_occ0.7_0.9s/images/train/n04379243_8/n04379243_-7/img_glass_table_quatre_dining_table_2013-3_gray.png,random,flexible,n02883344_-1,n02818832_3,Stimuli/canonical view 2/img_n02883344_-1_gray.jpg,Stimuli/canonical view 2/img_n02818832_3_gray.jpg,random,right,Experiments/experiment_26/264.jpg,Experiments/experiment_26/265.jpg,Experiments/experiment_26/266.jpg,Experiments/experiment_26/267.jpg,897,1,2023-09-17_10h13.04.826,Occlusion_Psychophysics,2022.1.4,Win32,32,,,right,"[""left""]",[1.6179999999999382],True,right,1.0,0.0,66.0,66.0,66.0,1.0,0.96,,,,,
,,,,,,,,,,,,,,,,,,,,,0.025,,,,,,,,,,Stimuli/psy_fixed_rotation_30_objects_occ0.7_0.9s/images/train/n04256520_9/n02828884_3/img_napoleon_iii_sofa_b04_wood_metal_park_bench_2011_gray.jpg,n04256520_9,n02828884_3,fixed,0.71384,n02828884_3,Stimuli/psy_fixed_rotation_30_objects_occ0.7_0.9s/images/train/n04256520_9/n02828884_3/img_napoleon_iii_sofa_b04_wood_metal_park_bench_2011-3_gray.png,foreground,same as foreground,n04256520_9,n02933112_-18,Stimuli/canonical view 2/img_n04256520_9_gray.jpg,Stimuli/canonical view 2/img_n02933112_-18_gray.jpg,random,right,Experiments/experiment_26/268.jpg,Experiments/experiment_26/269.jpg,Experiments/experiment_26/270.jpg,Experiments/experiment_26/271.jpg,897,1,2023-09-17_10h13.04.826,Occlusion_Psychophysics,2022.1.4,Win32,32,,,right,"[""right""]",[0.98599999999999],False,,0.0,0.0,67.0,67.0,67.0,1.0,,,,,,
,,,,,,,,,,,,,,,,,,,,,0.05,,,,,,,,,,Stimuli/psy_flexible_rotation_30_objects_occ0.7_0.9s/images/train/n03928116_0/n04405907_5/img_b02_piano_samsung_40_uhd_smart_tv_2011_2003_gray.jpg,n03928116_0,n04405907_5,flexible,0.805582,n04405907_5,Stimuli/psy_flexible_rotation_30_objects_occ0.7_0.9s/images/train/n03928116_0/n04405907_5/img_b02_piano_samsung_40_uhd_smart_tv_2011_2003-3_gray.png,foreground,same as foreground,n03928116_0,n04405907_5,Stimuli/canonical view 2/img_n03928116_0_gray.jpg,Stimuli/canonical view 2/img_n04405907_5_gray.jpg,foreground,right,Experiments/experiment_26/272.jpg,Experiments/experiment_26/273.jpg,Experiments/experiment_26/274.jpg,Experiments/experiment_26/275.jpg,897,1,2023-09-17_10h13.04.826,Occlusion_Psychophysics,2022.1.4,Win32,32,,,left,"[""left""]",[1.0120000000000573],False,,0.0,0.0,68.0,68.0,68.0,1.0,,,,,,
,,,,,,,,,,,,,,,,,,,,,0.025,,,,,,,,,,Stimuli/psy_flexible_rotation_30_objects_occ0.7_0.9s/images/train/n02818832_0/n04379243_0/img_b03_the_sofa_and_chair_company_-_stanley_bed_2014_17th_c._monastery_dining_table_2010_2007_gray.jpg,n02818832_0,n04379243_0,flexible,0.836015,n02818832_3,Stimuli/psy_flexible_rotation_30_objects_occ0.7_0.9s/images/train/n03928116_4/n02818832_3/img_dp_33_b_2013__vray_b05_ccm_contemporary_bed_max2013_2007-3_gray.png,random,flexible,n02818832_0,n04379243_0,Stimuli/canonical view 2/img_n02818832_0_gray.jpg,Stimuli/canonical view 2/img_n04379243_0_gray.jpg,foreground,left,Experiments/experiment_26/276.jpg,Experiments/experiment_26/277.jpg,Experiments/experiment_26/278.jpg,Experiments/experiment_26/279.jpg,897,1,2023-09-17_10h13.04.826,Occlusion_Psychophysics,2022.1.4,Win32,32,,,right,"[""left""]",[0.8589999999999236],False,,0.0,0.0,69.0,69.0,69.0,1.0,,,,,,
,,,,,,,,,,,,,,,,,,,,,0.025,,,,,,,,,,Stimuli/psy_fixed_rotation_30_objects_occ0.7_0.9s/images/train/n02883344_15/n02933112_4/img_microwave_box_buffet_2011_gray.jpg,n02883344_15,n02933112_4,fixed,0.804727,n04405907_5,Stimuli/psy_fixed_rotation_30_objects_occ0.7_0.9s/images/train/n02818832_9/n04405907_5/img_bed01_blue_samsung_40_uhd_smart_tv_2011_2013-3_gray.png,random,fixed,n02883344_15,n03001627_-2,Stimuli/canonical view 2/img_n02883344_15_gray.jpg,Stimuli/canonical view 2/img_n03001627_-2_gray.jpg,random,right,Experiments/experiment_26/280.jpg,Experiments/experiment_26/281.jpg,Experiments/experiment_26/282.jpg,Experiments/experiment_26/283.jpg,897,1,2023-09-17_10h13.04.826,Occlusion_Psychophysics,2022.1.4,Win32,32,,,left,"[""right""]",[2.091000000000008],False,,0.0,0.0,70.0,70.0,70.0,1.0,,,,,,
,,,,,,,,,,,,,,,,,,,,,0.025,,,,,,,,,,Stimuli/psy_fixed_rotation_30_objects_occ0.7_0.9s/images/train/n04405907_5/n02818832_0/img_samsung_40_uhd_smart_tv_2011_b03_the_sofa_and_chair_company_-_stanley_bed_2014_2011_gray.jpg,n04405907_5,n02818832_0,fixed,0.860891,n04379243_-7,Stimuli/psy_flexible_rotation_30_objects_occ0.7_0.9s/images/train/n02883344_15/n04379243_-7/img_microwave_box_quatre_dining_table_2011-3_gray.png,random,flexible,n04405907_5,n03001627_-2,Stimuli/canonical view 2/img_n04405907_5_gray.jpg,Stimuli/canonical view 2/img_n03001627_-2_gray.jpg,random,right,Experiments/experiment_26/284.jpg,Experiments/experiment_26/285.jpg,Experiments/experiment_26/286.jpg,Experiments/experiment_26/287.jpg,897,1,2023-09-17_10h13.04.826,Occlusion_Psychophysics,2022.1.4,Win32,32,,,left,"[""right""]",[1.1070000000000846],False,,0.0,0.0,71.0,71.0,71.0,1.0,,,,,,
,,,,,,,,,,,,,,,,,,,,,0.05,,,,,,,,,,Stimuli/psy_flexible_rotation_30_objects_occ0.7_0.9s/images/train/n03001627_9/n02883344_-1/img_chair_eames_plastic_armchair_woven_box_2006_gray.jpg,n03001627_9,n02883344_-1,flexible,0.743263,n02883344_-1,Stimuli/psy_flexible_rotation_30_objects_occ0.7_0.9s/images/train/n03001627_9/n02883344_-1/img_chair_eames_plastic_armchair_woven_box_2006-3_gray.png,foreground,same as foreground,n03001627_9,n04405907_5,Stimuli/canonical view 2/img_n03001627_9_gray.jpg,Stimuli/canonical view 2/img_n04405907_5_gray.jpg,random,left,Experiments/experiment_26/288.jpg,Experiments/experiment_26/289.jpg,Experiments/experiment_26/290.jpg,Experiments/experiment_26/291.jpg,897,1,2023-09-17_10h13.04.826,Occlusion_Psychophysics,2022.1.4,Win32,32,,,left,"[""left""]",[1.13799999999992],True,right,1.0,0.0,72.0,72.0,72.0,1.0,0.946,,,,,
,,,,,,,,,,,,,,,,,,,,,0.025,,,,,,,,,,Stimuli/psy_fixed_rotation_30_objects_occ0.7_0.9s/images/train/n02828884_3/n04256520_9/img_b04_wood_metal_park_bench_napoleon_iii_sofa_2007_gray.jpg,n02828884_3,n04256520_9,fixed,0.701864,n04256520_9,Stimuli/psy_fixed_rotation_30_objects_occ0.7_0.9s/images/train/n02828884_3/n04256520_9/img_b04_wood_metal_park_bench_napoleon_iii_sofa_2007-3_gray.png,foreground,same as foreground,n02828884_3,n03001627_9,Stimuli/canonical view 2/img_n02828884_3_gray.jpg,Stimuli/canonical view 2/img_n03001627_9_gray.jpg,random,left,Experiments/experiment_26/292.jpg,Experiments/experiment_26/293.jpg,Experiments/experiment_26/294.jpg,Experiments/experiment_26/295.jpg,897,1,2023-09-17_10h13.04.826,Occlusion_Psychophysics,2022.1.4,Win32,32,,,right,"[""right""]",[0.8020000000000209],False,,0.0,0.0,73.0,73.0,73.0,1.0,,,,,,
,,,,,,,,,,,,,,,,,,,,,0.05,,,,,,,,,,Stimuli/psy_flexible_rotation_30_objects_occ0.7_0.9s/images/train/n04405907_5/n03928116_10/img_samsung_40_uhd_smart_tv_2011_ydp_103_r_2012__vray_2008_gray.jpg,n04405907_5,n03928116_10,flexible,0.756913,n02883344_-1,Stimuli/psy_fixed_rotation_30_objects_occ0.7_0.9s/images/train/n03001627_9/n02883344_-1/img_chair_eames_plastic_armchair_woven_box_2007-3_gray.png,random,fixed,n04405907_5,n03928116_10,Stimuli/canonical view 2/img_n04405907_5_gray.jpg,Stimuli/canonical view 2/img_n03928116_10_gray.jpg,foreground,left,Experiments/experiment_26/296.jpg,Experiments/experiment_26/297.jpg,Experiments/experiment_26/298.jpg,Experiments/experiment_26/299.jpg,897,1,2023-09-17_10h13.04.826,Occlusion_Psychophysics,2022.1.4,Win32,32,,,right,"[""left""]",[0.9360000000000355],False,,0.0,0.0,74.0,74.0,74.0,1.0,,,,,,
,,,,,,,,,,,,,,,,,,,,,0.025,,,,,,,,,,Stimuli/psy_flexible_rotation_30_objects_occ0.7_0.9s/images/train/n04256520_4/n02818832_9/img_club_house_italia_nautilus_sofa_bed01_blue_2007_gray.jpg,n04256520_4,n02818832_9,flexible,0.768962,n02933112_-2,Stimuli/psy_flexible_rotation_30_objects_occ0.7_0.9s/images/train/n04405907_8/n02933112_-2/img_stylized_tv_sink_base_white_wood_2005-3_gray.png,random,flexible,n04256520_4,n02933112_-2,Stimuli/canonical view 2/img_n04256520_4_gray.jpg,Stimuli/canonical view 2/img_n02933112_-2_gray.jpg,random,left,Experiments/experiment_26/300.jpg,Experiments/experiment_26/301.jpg,Experiments/experiment_26/302.jpg,Experiments/experiment_26/303.jpg,897,1,2023-09-17_10h13.04.826,Occlusion_Psychophysics,2022.1.4,Win32,32,,,right,"[""left""]",[1.0149999999999864],False,,0.0,0.0,75.0,75.0,75.0,1.0,,,,,,
,,,,,,,,,,,,,,,,,,,,,0.025,,,,,,,,,,Stimuli/psy_flexible_rotation_30_objects_occ0.7_0.9s/images/train/n04379243_-7/n02883344_15/img_quatre_dining_table_microwave_box_2015_gray.jpg,n04379243_-7,n02883344_15,flexible,0.700335,n02818832_3,Stimuli/psy_fixed_rotation_30_objects_occ0.7_0.9s/images/train/n02933112_-18/n02818832_3/img_cgaxis_models_48_26_vray_composite_b05_ccm_contemporary_bed_max2013_2015-3_gray.png,random,fixed,n04379243_-7,n03001627_9,Stimuli/canonical view 2/img_n04379243_-7_gray.jpg,Stimuli/canonical view 2/img_n03001627_9_gray.jpg,random,right,Experiments/experiment_26/304.jpg,Experiments/experiment_26/305.jpg,Experiments/experiment_26/306.jpg,Experiments/experiment_26/307.jpg,897,1,2023-09-17_10h13.04.826,Occlusion_Psychophysics,2022.1.4,Win32,32,,,right,"[""right""]",[0.8310000000000173],False,,0.0,0.0,76.0,76.0,76.0,1.0,,,,,,
,,,,,,,,,,,,,,,,,,,,,0.05,,,,,,,,,,Stimuli/psy_fixed_rotation_30_objects_occ0.7_0.9s/images/train/n03001627_8/n03928116_0/img_chair_billiani_doll_b02_piano_2004_gray.jpg,n03001627_8,n03928116_0,fixed,0.716972,n04405907_8,Stimuli/psy_flexible_rotation_30_objects_occ0.7_0.9s/images/train/n04405907_8/n04405907_8/img_stylized_tv_stylized_tv_2004-3_gray.png,random,flexible,n03001627_8,n03928116_0,Stimuli/canonical view 2/img_n03001627_8_gray.jpg,Stimuli/canonical view 2/img_n03928116_0_gray.jpg,foreground,right,Experiments/experiment_26/308.jpg,Experiments/experiment_26/309.jpg,Experiments/experiment_26/310.jpg,Experiments/experiment_26/311.jpg,897,1,2023-09-17_10h13.04.826,Occlusion_Psychophysics,2022.1.4,Win32,32,,,right,"[""left""]",[1.0470000000000255],False,,0.0,0.0,77.0,77.0,77.0,1.0,,,,,,
,,,,,,,,,,,,,,,,,,,,,0.025,,,,,,,,,,Stimuli/psy_flexible_rotation_30_objects_occ0.7_0.9s/images/train/n03928116_4/n03928116_0/img_dp_33_b_2013__vray_b02_piano_2015_gray.jpg,n03928116_4,n03928116_0,flexible,0.801676,n03928116_0,Stimuli/psy_flexible_rotation_30_objects_occ0.7_0.9s/images/train/n03928116_4/n03928116_0/img_dp_33_b_2013__vray_b02_piano_2015-3_gray.png,foreground,same as foreground,n03928116_4,n03928116_0,Stimuli/canonical view 2/img_n03928116_4_gray.jpg,Stimuli/canonical view 2/img_n03928116_0_gray.jpg,foreground,right,Experiments/experiment_26/312.jpg,Experiments/experiment_26/313.jpg,Experiments/experiment_26/314.jpg,Experiments/experiment_26/315.jpg,897,1,2023-09-17_10h13.04.826,Occlusion_Psychophysics,2022.1.4,Win32,32,,,left,"[""left""]",[1.6380000000000337],False,,0.0,0.0,78.0,78.0,78.0,1.0,,,,,,
,,,,,,,,,,,,,,,,,,,,,0.05,,,,,,,,,,Stimuli/psy_flexible_rotation_30_objects_occ0.7_0.9s/images/train/n03928116_0/n04256520_5/img_b02_piano_meridiani_belmondo_bench_sofa_2012_gray.jpg,n03928116_0,n04256520_5,flexible,0.70303,n04405907_8,Stimuli/psy_fixed_rotation_30_objects_occ0.7_0.9s/images/train/n02818832_0/n04405907_8/img_b03_the_sofa_and_chair_company_-_stanley_bed_2014_stylized_tv_2011-3_gray.png,random,fixed,n03928116_0,n04256520_5,Stimuli/canonical view 2/img_n03928116_0_gray.jpg,Stimuli/canonical view 2/img_n04256520_5_gray.jpg,foreground,right,Experiments/experiment_26/316.jpg,Experiments/experiment_26/317.jpg,Experiments/experiment_26/318.jpg,Experiments/experiment_26/319.jpg,897,1,2023-09-17_10h13.04.826,Occlusion_Psychophysics,2022.1.4,Win32,32,,,left,"[""left""]",[1.1499999999999773],False,,0.0,0.0,79.0,79.0,79.0,1.0,,,,,,
,,,,,,,,,,,,,,,,,,,,,0.05,,,,,,,,,,Stimuli/psy_fixed_rotation_30_objects_occ0.7_0.9s/images/train/n02933112_-18/n02818832_3/img_cgaxis_models_48_26_vray_composite_b05_ccm_contemporary_bed_max2013_2002_gray.jpg,n02933112_-18,n02818832_3,fixed,0.756311,n02883344_15,Stimuli/psy_fixed_rotation_30_objects_occ0.7_0.9s/images/train/n02818832_9/n02883344_15/img_bed01_blue_microwave_box_2007-3_gray.png,random,fixed,n02933112_-18,n02818832_3,Stimuli/canonical view 2/img_n02933112_-18_gray.jpg,Stimuli/canonical view 2/img_n02818832_3_gray.jpg,foreground,right,Experiments/experiment_26/320.jpg,Experiments/experiment_26/321.jpg,Experiments/experiment_26/322.jpg,Experiments/experiment_26/323.jpg,897,1,2023-09-17_10h13.04.826,Occlusion_Psychophysics,2022.1.4,Win32,32,,,right,"[""right""]",[1.5769999999999982],True,left,1.0,0.0,80.0,80.0,80.0,1.0,0.979,,,,,
,,,,,,,,,,,,,,,,,,,,,0.025,,,,,,,,,,Stimuli/psy_flexible_rotation_30_objects_occ0.7_0.9s/images/train/n03001627_9/n03928116_10/img_chair_eames_plastic_armchair_ydp_103_r_2012__vray_2014_gray.jpg,n03001627_9,n03928116_10,flexible,0.723398,n03928116_10,Stimuli/psy_flexible_rotation_30_objects_occ0.7_0.9s/images/train/n03001627_9/n03928116_10/img_chair_eames_plastic_armchair_ydp_103_r_2012__vray_2014-3_gray.png,foreground,same as foreground,n03001627_9,n02828884_4,Stimuli/canonical view 2/img_n03001627_9_gray.jpg,Stimuli/canonical view 2/img_n02828884_4_gray.jpg,random,left,Experiments/experiment_26/324.jpg,Experiments/experiment_26/325.jpg,Experiments/experiment_26/326.jpg,Experiments/experiment_26/327.jpg,897,1,2023-09-17_10h13.04.826,Occlusion_Psychophysics,2022.1.4,Win32,32,,,left,"[""left""]",[0.9829999999999472],False,,0.0,0.0,81.0,81.0,81.0,1.0,,,,,,
,,,,,,,,,,,,,,,,,,,,,0.025,,,,,,,,,,Stimuli/psy_flexible_rotation_30_objects_occ0.7_0.9s/images/train/n02933112_-18/n02883344_15/img_cgaxis_models_48_26_vray_composite_microwave_box_2007_gray.jpg,n02933112_-18,n02883344_15,flexible,0.819739,n02883344_15,Stimuli/psy_flexible_rotation_30_objects_occ0.7_0.9s/images/train/n02933112_-18/n02883344_15/img_cgaxis_models_48_26_vray_composite_microwave_box_2007-3_gray.png,foreground,same as foreground,n02933112_-18,n02933112_4,Stimuli/canonical view 2/img_n02933112_-18_gray.jpg,Stimuli/canonical view 2/img_n02933112_4_gray.jpg,random,right,Experiments/experiment_26/328.jpg,Experiments/experiment_26/329.jpg,Experiments/experiment_26/330.jpg,Experiments/experiment_26/331.jpg,897,1,2023-09-17_10h13.04.826,Occlusion_Psychophysics,2022.1.4,Win32,32,,,left,"[""left""]",[0.9919999999999618],False,,0.0,0.0,82.0,82.0,82.0,1.0,,,,,,
,,,,,,,,,,,,,,,,,,,,,0.025,,,,,,,,,,Stimuli/psy_fixed_rotation_30_objects_occ0.7_0.9s/images/train/n02818832_9/n04256520_5/img_bed01_blue_meridiani_belmondo_bench_sofa_2011_gray.jpg,n02818832_9,n04256520_5,fixed,0.78584,n02883344_-1,Stimuli/psy_fixed_rotation_30_objects_occ0.7_0.9s/images/train/n02933112_4/n02883344_-1/img_buffet_woven_box_2004-3_gray.png,random,fixed,n02818832_9,n04256520_5,Stimuli/canonical view 2/img_n02818832_9_gray.jpg,Stimuli/canonical view 2/img_n04256520_5_gray.jpg,foreground,right,Experiments/experiment_26/332.jpg,Experiments/experiment_26/333.jpg,Experiments/experiment_26/334.jpg,Experiments/experiment_26/335.jpg,897,1,2023-09-17_10h13.04.826,Occlusion_Psychophysics,2022.1.4,Win32,32,,,left,"[""left""]",[1.3339999999999463],False,,0.0,0.0,83.0,83.0,83.0,1.0,,,,,,
,,,,,,,,,,,,,,,,,,,,,0.05,,,,,,,,,,Stimuli/psy_flexible_rotation_30_objects_occ0.7_0.9s/images/train/n04405907_9/n02883344_0/img_vray_004_b03_box_2000_gray.jpg,n04405907_9,n02883344_0,flexible,0.855404,n02883344_0,Stimuli/psy_flexible_rotation_30_objects_occ0.7_0.9s/images/train/n04405907_9/n02883344_0/img_vray_004_b03_box_2000-3_gray.png,foreground,same as foreground,n04405907_9,n02883344_0,Stimuli/canonical view 2/img_n04405907_9_gray.jpg,Stimuli/canonical view 2/img_n02883344_0_gray.jpg,foreground,right,Experiments/experiment_26/336.jpg,Experiments/experiment_26/337.jpg,Experiments/experiment_26/338.jpg,Experiments/experiment_26/339.jpg,897,1,2023-09-17_10h13.04.826,Occlusion_Psychophysics,2022.1.4,Win32,32,,,left,"[""left""]",[1.1079999999999472],False,,0.0,0.0,84.0,84.0,84.0,1.0,,,,,,
,,,,,,,,,,,,,,,,,,,,,0.05,,,,,,,,,,Stimuli/psy_flexible_rotation_30_objects_occ0.7_0.9s/images/train/n02933112_-2/n02883344_0/img_sink_base_white_wood_b03_box_2013_gray.jpg,n02933112_-2,n02883344_0,flexible,0.775839,n04256520_4,Stimuli/psy_flexible_rotation_30_objects_occ0.7_0.9s/images/train/n03928116_10/n04256520_4/img_ydp_103_r_2012__vray_club_house_italia_nautilus_sofa_2006-3_gray.png,random,flexible,n02933112_-2,n02818832_9,Stimuli/canonical view 2/img_n02933112_-2_gray.jpg,Stimuli/canonical view 2/img_n02818832_9_gray.jpg,random,left,Experiments/experiment_26/340.jpg,Experiments/experiment_26/341.jpg,Experiments/experiment_26/342.jpg,Experiments/experiment_26/343.jpg,897,1,2023-09-17_10h13.04.826,Occlusion_Psychophysics,2022.1.4,Win32,32,,,left,"[""left""]",[0.7940000000000964],False,,0.0,0.0,85.0,85.0,85.0,1.0,,,,,,
,,,,,,,,,,,,,,,,,,,,,0.025,,,,,,,,,,Stimuli/psy_fixed_rotation_30_objects_occ0.7_0.9s/images/train/n04405907_8/n03928116_0/img_stylized_tv_b02_piano_2006_gray.jpg,n04405907_8,n03928116_0,fixed,0.705576,n03928116_0,Stimuli/psy_fixed_rotation_30_objects_occ0.7_0.9s/images/train/n04405907_8/n03928116_0/img_stylized_tv_b02_piano_2006-3_gray.png,foreground,same as foreground,n04405907_8,n03928116_0,Stimuli/canonical view 2/img_n04405907_8_gray.jpg,Stimuli/canonical view 2/img_n03928116_0_gray.jpg,foreground,left,Experiments/experiment_26/344.jpg,Experiments/experiment_26/345.jpg,Experiments/experiment_26/346.jpg,Experiments/experiment_26/347.jpg,897,1,2023-09-17_10h13.04.826,Occlusion_Psychophysics,2022.1.4,Win32,32,,,left,"[""right""]",[1.7660000000000764],False,,0.0,0.0,86.0,86.0,86.0,1.0,,,,,,
,,,,,,,,,,,,,,,,,,,,,0.05,,,,,,,,,,Stimuli/psy_fixed_rotation_30_objects_occ0.7_0.9s/images/train/n02883344_-1/n02818832_0/img_woven_box_b03_the_sofa_and_chair_company_-_stanley_bed_2014_2011_gray.jpg,n02883344_-1,n02818832_0,fixed,0.801752,n02933112_4,Stimuli/psy_fixed_rotation_30_objects_occ0.7_0.9s/images/train/n02818832_3/n02933112_4/img_b05_ccm_contemporary_bed_max2013_buffet_2003-3_gray.png,random,fixed,n02883344_-1,n02818832_0,Stimuli/canonical view 2/img_n02883344_-1_gray.jpg,Stimuli/canonical view 2/img_n02818832_0_gray.jpg,foreground,right,Experiments/experiment_26/348.jpg,Experiments/experiment_26/349.jpg,Experiments/experiment_26/350.jpg,Experiments/experiment_26/351.jpg,897,1,2023-09-17_10h13.04.826,Occlusion_Psychophysics,2022.1.4,Win32,32,,,left,"[""left""]",[1.0459999999999354],False,,0.0,0.0,87.0,87.0,87.0,1.0,,,,,,
,,,,,,,,,,,,,,,,,,,,,0.025,,,,,,,,,,Stimuli/psy_fixed_rotation_30_objects_occ0.7_0.9s/images/train/n02818832_0/n02933112_4/img_b03_the_sofa_and_chair_company_-_stanley_bed_2014_buffet_2000_gray.jpg,n02818832_0,n02933112_4,fixed,0.757054,n02933112_4,Stimuli/psy_fixed_rotation_30_objects_occ0.7_0.9s/images/train/n02818832_0/n02933112_4/img_b03_the_sofa_and_chair_company_-_stanley_bed_2014_buffet_2000-3_gray.png,foreground,same as foreground,n02818832_0,n02828884_9,Stimuli/canonical view 2/img_n02818832_0_gray.jpg,Stimuli/canonical view 2/img_n02828884_9_gray.jpg,random,left,Experiments/experiment_26/352.jpg,Experiments/experiment_26/353.jpg,Experiments/experiment_26/354.jpg,Experiments/experiment_26/355.jpg,897,1,2023-09-17_10h13.04.826,Occlusion_Psychophysics,2022.1.4,Win32,32,,,left,"[""left""]",[1.0810000000000173],False,,0.0,0.0,88.0,88.0,88.0,1.0,,,,,,
,,,,,,,,,,,,,,,,,,,,,0.05,,,,,,,,,,Stimuli/psy_fixed_rotation_30_objects_occ0.7_0.9s/images/train/n02933112_-18/n02883344_-1/img_cgaxis_models_48_26_vray_composite_woven_box_2014_gray.jpg,n02933112_-18,n02883344_-1,fixed,0.85756,n03001627_9,Stimuli/psy_flexible_rotation_30_objects_occ0.7_0.9s/images/train/n03001627_9/n03001627_9/img_chair_eames_plastic_armchair_chair_eames_plastic_armchair_2011-3_gray.png,random,flexible,n02933112_-18,n04379243_0,Stimuli/canonical view 2/img_n02933112_-18_gray.jpg,Stimuli/canonical view 2/img_n04379243_0_gray.jpg,random,left,Experiments/experiment_26/356.jpg,Experiments/experiment_26/357.jpg,Experiments/experiment_26/358.jpg,Experiments/experiment_26/359.jpg,897,1,2023-09-17_10h13.04.826,Occlusion_Psychophysics,2022.1.4,Win32,32,,,right,"[""right""]",[0.9209999999999354],False,,0.0,0.0,89.0,89.0,89.0,1.0,,,,,,
,,,,,,,,,,,,,,,,,,,,,0.025,,,,,,,,,,Stimuli/psy_flexible_rotation_30_objects_occ0.7_0.9s/images/train/n02883344_15/n03928116_4/img_microwave_box_dp_33_b_2013__vray_2008_gray.jpg,n02883344_15,n03928116_4,flexible,0.714488,n02883344_15,Stimuli/psy_flexible_rotation_30_objects_occ0.7_0.9s/images/train/n02933112_-2/n02883344_15/img_sink_base_white_wood_microwave_box_2007-3_gray.png,random,flexible,n02883344_15,n04405907_9,Stimuli/canonical view 2/img_n02883344_15_gray.jpg,Stimuli/canonical view 2/img_n04405907_9_gray.jpg,random,right,Experiments/experiment_26/360.jpg,Experiments/experiment_26/361.jpg,Experiments/experiment_26/362.jpg,Experiments/experiment_26/363.jpg,897,1,2023-09-17_10h13.04.826,Occlusion_Psychophysics,2022.1.4,Win32,32,,,left,"[""left""]",[1.2300000000000182],False,,0.0,0.0,90.0,90.0,90.0,1.0,,,,,,
,,,,,,,,,,,,,,,,,,,,,0.05,,,,,,,,,,Stimuli/psy_flexible_rotation_30_objects_occ0.7_0.9s/images/train/n02818832_0/n03928116_0/img_b03_the_sofa_and_chair_company_-_stanley_bed_2014_b02_piano_2012_gray.jpg,n02818832_0,n03928116_0,flexible,0.762171,n03928116_0,Stimuli/psy_flexible_rotation_30_objects_occ0.7_0.9s/images/train/n02818832_0/n03928116_0/img_b03_the_sofa_and_chair_company_-_stanley_bed_2014_b02_piano_2012-3_gray.png,foreground,same as foreground,n02818832_0,n03928116_0,Stimuli/canonical view 2/img_n02818832_0_gray.jpg,Stimuli/canonical view 2/img_n03928116_0_gray.jpg,foreground,right,Experiments/experiment_26/364.jpg,Experiments/experiment_26/365.jpg,Experiments/experiment_26/366.jpg,Experiments/experiment_26/367.jpg,897,1,2023-09-17_10h13.04.826,Occlusion_Psychophysics,2022.1.4,Win32,32,,,left,"[""left""]",[0.9619999999999891],False,,0.0,0.0,91.0,91.0,91.0,1.0,,,,,,
,,,,,,,,,,,,,,,,,,,,,0.05,,,,,,,,,,Stimuli/psy_flexible_rotation_30_objects_occ0.7_0.9s/images/train/n03928116_0/n02883344_0/img_b02_piano_b03_box_2001_gray.jpg,n03928116_0,n02883344_0,flexible,0.717497,n04405907_9,Stimuli/psy_fixed_rotation_30_objects_occ0.7_0.9s/images/train/n02818832_3/n04405907_9/img_b05_ccm_contemporary_bed_max2013_vray_004_2004-3_gray.png,random,fixed,n03928116_0,n04379243_-7,Stimuli/canonical view 2/img_n03928116_0_gray.jpg,Stimuli/canonical view 2/img_n04379243_-7_gray.jpg,random,right,Experiments/experiment_26/368.jpg,Experiments/experiment_26/369.jpg,Experiments/experiment_26/370.jpg,Experiments/experiment_26/371.jpg,897,1,2023-09-17_10h13.04.826,Occlusion_Psychophysics,2022.1.4,Win32,32,,,left,"[""left""]",[0.8100000000000591],False,,0.0,0.0,92.0,92.0,92.0,1.0,,,,,,
,,,,,,,,,,,,,,,,,,,,,0.05,,,,,,,,,,Stimuli/psy_flexible_rotation_30_objects_occ0.7_0.9s/images/train/n04256520_4/n03928116_10/img_club_house_italia_nautilus_sofa_ydp_103_r_2012__vray_2005_gray.jpg,n04256520_4,n03928116_10,flexible,0.81985,n02883344_0,Stimuli/psy_flexible_rotation_30_objects_occ0.7_0.9s/images/train/n02883344_0/n02883344_0/img_b03_box_b03_box_2012-3_gray.png,random,flexible,n04256520_4,n02933112_-18,Stimuli/canonical view 2/img_n04256520_4_gray.jpg,Stimuli/canonical view 2/img_n02933112_-18_gray.jpg,random,right,Experiments/experiment_26/372.jpg,Experiments/experiment_26/373.jpg,Experiments/experiment_26/374.jpg,Experiments/experiment_26/375.jpg,897,1,2023-09-17_10h13.04.826,Occlusion_Psychophysics,2022.1.4,Win32,32,,,left,"[""left""]",[1.04200000000003],False,,0.0,0.0,93.0,93.0,93.0,1.0,,,,,,
,,,,,,,,,,,,,,,,,,,,,0.05,,,,,,,,,,Stimuli/psy_flexible_rotation_30_objects_occ0.7_0.9s/images/train/n04405907_8/n02818832_0/img_stylized_tv_b03_the_sofa_and_chair_company_-_stanley_bed_2014_2000_gray.jpg,n04405907_8,n02818832_0,flexible,0.711579,n04256520_9,Stimuli/psy_fixed_rotation_30_objects_occ0.7_0.9s/images/train/n04256520_9/n04256520_9/img_napoleon_iii_sofa_napoleon_iii_sofa_2004-3_gray.png,random,fixed,n04405907_8,n02933112_-18,Stimuli/canonical view 2/img_n04405907_8_gray.jpg,Stimuli/canonical view 2/img_n02933112_-18_gray.jpg,random,right,Experiments/experiment_26/376.jpg,Experiments/experiment_26/377.jpg,Experiments/experiment_26/378.jpg,Experiments/experiment_26/379.jpg,897,1,2023-09-17_10h13.04.826,Occlusion_Psychophysics,2022.1.4,Win32,32,,,left,"[""right""]",[0.8390000000000555],False,,0.0,0.0,94.0,94.0,94.0,1.0,,,,,,
,,,,,,,,,,,,,,,,,,,,,0.05,,,,,,,,,,Stimuli/psy_flexible_rotation_30_objects_occ0.7_0.9s/images/train/n04379243_0/n02818832_9/img_17th_c._monastery_dining_table_2010_bed01_blue_2003_gray.jpg,n04379243_0,n02818832_9,flexible,0.847014,n02818832_9,Stimuli/psy_flexible_rotation_30_objects_occ0.7_0.9s/images/train/n04379243_0/n02818832_9/img_17th_c._monastery_dining_table_2010_bed01_blue_2003-3_gray.png,foreground,same as foreground,n04379243_0,n04405907_8,Stimuli/canonical view 2/img_n04379243_0_gray.jpg,Stimuli/canonical view 2/img_n04405907_8_gray.jpg,random,left,Experiments/experiment_26/380.jpg,Experiments/experiment_26/381.jpg,Experiments/experiment_26/382.jpg,Experiments/experiment_26/383.jpg,897,1,2023-09-17_10h13.04.826,Occlusion_Psychophysics,2022.1.4,Win32,32,,,right,"[""right""]",[1.0490000000000919],True,left,1.0,0.0,95.0,95.0,95.0,1.0,0.972,,,,,
,,,,,,,,,,,,,,,,,,,,,0.025,,,,,,,,,,Stimuli/psy_fixed_rotation_30_objects_occ0.7_0.9s/images/train/n04256520_9/n02933112_4/img_napoleon_iii_sofa_buffet_2012_gray.jpg,n04256520_9,n02933112_4,fixed,0.792249,n02933112_4,Stimuli/psy_fixed_rotation_30_objects_occ0.7_0.9s/images/train/n04256520_9/n02933112_4/img_napoleon_iii_sofa_buffet_2012-3_gray.png,foreground,same as foreground,n04256520_9,n02828884_9,Stimuli/canonical view 2/img_n04256520_9_gray.jpg,Stimuli/canonical view 2/img_n02828884_9_gray.jpg,random,right,Experiments/experiment_26/384.jpg,Experiments/experiment_26/385.jpg,Experiments/experiment_26/386.jpg,Experiments/experiment_26/387.jpg,897,1,2023-09-17_10h13.04.826,Occlusion_Psychophysics,2022.1.4,Win32,32,,,left,"[""right""]",[1.2440000000000282],False,,0.0,0.0,96.0,96.0,96.0,1.0,,,,,,
,,,,,,,,,,,,,,,,,,,,,0.025,,,,,,,,,,Stimuli/psy_flexible_rotation_30_objects_occ0.7_0.9s/images/train/n04379243_8/n04379243_-7/img_glass_table_quatre_dining_table_2001_gray.jpg,n04379243_8,n04379243_-7,flexible,0.814393,n04379243_-7,Stimuli/psy_flexible_rotation_30_objects_occ0.7_0.9s/images/train/n04379243_8/n04379243_-7/img_glass_table_quatre_dining_table_2001-3_gray.png,foreground,same as foreground,n04379243_8,n03928116_0,Stimuli/canonical view 2/img_n04379243_8_gray.jpg,Stimuli/canonical view 2/img_n03928116_0_gray.jpg,random,left,Experiments/experiment_26/388.jpg,Experiments/experiment_26/389.jpg,Experiments/experiment_26/390.jpg,Experiments/experiment_26/391.jpg,897,1,2023-09-17_10h13.04.826,Occlusion_Psychophysics,2022.1.4,Win32,32,,,left,"[""left""]",[0.9890000000000327],False,,0.0,0.0,97.0,97.0,97.0,1.0,,,,,,
,,,,,,,,,,,,,,,,,,,,,0.05,,,,,,,,,,Stimuli/psy_fixed_rotation_30_objects_occ0.7_0.9s/images/train/n02933112_-2/n04379243_0/img_sink_base_white_wood_17th_c._monastery_dining_table_2010_2002_gray.jpg,n02933112_-2,n04379243_0,fixed,0.777421,n04379243_0,Stimuli/psy_fixed_rotation_30_objects_occ0.7_0.9s/images/train/n02933112_-2/n04379243_0/img_sink_base_white_wood_17th_c._monastery_dining_table_2010_2002-3_gray.png,foreground,same as foreground,n02933112_-2,n04379243_0,Stimuli/canonical view 2/img_n02933112_-2_gray.jpg,Stimuli/canonical view 2/img_n04379243_0_gray.jpg,foreground,left,Experiments/experiment_26/392.jpg,Experiments/experiment_26/393.jpg,Experiments/experiment_26/394.jpg,Experiments/experiment_26/395.jpg,897,1,2023-09-17_10h13.04.826,Occlusion_Psychophysics,2022.1.4,Win32,32,,,left,"[""left""]",[1.3260000000000218],False,,0.0,0.0,98.0,98.0,98.0,1.0,,,,,,
,,,,,,,,,,,,,,,,,,,,,0.025,,,,,,,,,,Stimuli/psy_flexible_rotation_30_objects_occ0.7_0.9s/images/train/n02883344_-1/n04405907_8/img_woven_box_stylized_tv_2004_gray.jpg,n02883344_-1,n04405907_8,flexible,0.755102,n02818832_9,Stimuli/psy_fixed_rotation_30_objects_occ0.7_0.9s/images/train/n03928116_4/n02818832_9/img_dp_33_b_2013__vray_bed01_blue_2004-3_gray.png,random,fixed,n02883344_-1,n04405907_8,Stimuli/canonical view 2/img_n02883344_-1_gray.jpg,Stimuli/canonical view 2/img_n04405907_8_gray.jpg,foreground,right,Experiments/experiment_26/396.jpg,Experiments/experiment_26/397.jpg,Experiments/experiment_26/398.jpg,Experiments/experiment_26/399.jpg,897,1,2023-09-17_10h13.04.826,Occlusion_Psychophysics,2022.1.4,Win32,32,,,left,"[""left""]",[0.9529999999999745],False,,0.0,0.0,99.0,99.0,99.0,1.0,,,,,,
,,,,,,,,,,,,,,,,,,,,,,,,,,,,,,,,,,,,,,,,,,,,,,,,,,897,1,2023-09-17_10h13.04.826,Occlusion_Psychophysics,2022.1.4,Win32,32,,,,,,,,,,,,,,,0.0,0.0,0.0,0.0,1.0
,,,,,,,,,,,,,,,,,,,,,0.05,,,,,,,,,,Stimuli/psy_flexible_rotation_30_objects_occ0.7_0.9s/images/train/n02933112_-2/n03928116_0/img_sink_base_white_wood_b02_piano_2009_gray.jpg,n02933112_-2,n03928116_0,flexible,0.711731,n03928116_0,Stimuli/psy_flexible_rotation_30_objects_occ0.7_0.9s/images/train/n02933112_-2/n03928116_0/img_sink_base_white_wood_b02_piano_2009-3_gray.png,foreground,same as foreground,n02933112_-2,n02883344_-1,Stimuli/canonical view 2/img_n02933112_-2_gray.jpg,Stimuli/canonical view 2/img_n02883344_-1_gray.jpg,random,right,Experiments/experiment_26/400.jpg,Experiments/experiment_26/401.jpg,Experiments/experiment_26/402.jpg,Experiments/experiment_26/403.jpg,897,1,2023-09-17_10h13.04.826,Occlusion_Psychophysics,2022.1.4,Win32,32,,,left,"[""left""]",[1.044999999999959],False,,0.0,0.0,0.0,0.0,0.0,1.0,,,,,,
,,,,,,,,,,,,,,,,,,,,,0.05,,,,,,,,,,Stimuli/psy_fixed_rotation_30_objects_occ0.7_0.9s/images/train/n04379243_0/n02883344_-1/img_17th_c._monastery_dining_table_2010_woven_box_2004_gray.jpg,n04379243_0,n02883344_-1,fixed,0.722415,n02883344_-1,Stimuli/psy_fixed_rotation_30_objects_occ0.7_0.9s/images/train/n04379243_0/n02883344_-1/img_17th_c._monastery_dining_table_2010_woven_box_2004-3_gray.png,foreground,same as foreground,n04379243_0,n04256520_5,Stimuli/canonical view 2/img_n04379243_0_gray.jpg,Stimuli/canonical view 2/img_n04256520_5_gray.jpg,random,right,Experiments/experiment_26/404.jpg,Experiments/experiment_26/405.jpg,Experiments/experiment_26/406.jpg,Experiments/experiment_26/407.jpg,897,1,2023-09-17_10h13.04.826,Occlusion_Psychophysics,2022.1.4,Win32,32,,,left,"[""left""]",[1.7030000000000882],False,,0.0,0.0,1.0,1.0,1.0,1.0,,,,,,
,,,,,,,,,,,,,,,,,,,,,0.05,,,,,,,,,,Stimuli/psy_flexible_rotation_30_objects_occ0.7_0.9s/images/train/n04379243_0/n02818832_9/img_17th_c._monastery_dining_table_2010_bed01_blue_2007_gray.jpg,n04379243_0,n02818832_9,flexible,0.705972,n02818832_9,Stimuli/psy_flexible_rotation_30_objects_occ0.7_0.9s/images/train/n04379243_0/n02818832_9/img_17th_c._monastery_dining_table_2010_bed01_blue_2007-3_gray.png,foreground,same as foreground,n04379243_0,n02883344_-1,Stimuli/canonical view 2/img_n04379243_0_gray.jpg,Stimuli/canonical view 2/img_n02883344_-1_gray.jpg,random,left,Experiments/experiment_26/408.jpg,Experiments/experiment_26/409.jpg,Experiments/experiment_26/410.jpg,Experiments/experiment_26/411.jpg,897,1,2023-09-17_10h13.04.826,Occlusion_Psychophysics,2022.1.4,Win32,32,,,left,"[""left""]",[0.9909999999999854],False,,0.0,0.0,2.0,2.0,2.0,1.0,,,,,,
,,,,,,,,,,,,,,,,,,,,,0.025,,,,,,,,,,Stimuli/psy_flexible_rotation_30_objects_occ0.7_0.9s/images/train/n02933112_-2/n03928116_0/img_sink_base_white_wood_b02_piano_2009_gray.jpg,n02933112_-2,n03928116_0,flexible,0.711731,n03928116_0,Stimuli/psy_flexible_rotation_30_objects_occ0.7_0.9s/images/train/n02933112_-2/n03928116_0/img_sink_base_white_wood_b02_piano_2009-3_gray.png,foreground,same as foreground,n02933112_-2,n02828884_9,Stimuli/canonical view 2/img_n02933112_-2_gray.jpg,Stimuli/canonical view 2/img_n02828884_9_gray.jpg,random,left,Experiments/experiment_26/412.jpg,Experiments/experiment_26/413.jpg,Experiments/experiment_26/414.jpg,Experiments/experiment_26/415.jpg,897,1,2023-09-17_10h13.04.826,Occlusion_Psychophysics,2022.1.4,Win32,32,,,left,"[""left""]",[1.830000000000041],False,,0.0,0.0,3.0,3.0,3.0,1.0,,,,,,
,,,,,,,,,,,,,,,,,,,,,0.05,,,,,,,,,,Stimuli/psy_flexible_rotation_30_objects_occ0.7_0.9s/images/train/n04379243_0/n04405907_8/img_17th_c._monastery_dining_table_2010_stylized_tv_2006_gray.jpg,n04379243_0,n04405907_8,flexible,0.76828,n04405907_8,Stimuli/psy_flexible_rotation_30_objects_occ0.7_0.9s/images/train/n04379243_0/n04405907_8/img_17th_c._monastery_dining_table_2010_stylized_tv_2006-3_gray.png,foreground,same as foreground,n04379243_0,n04405907_8,Stimuli/canonical view 2/img_n04379243_0_gray.jpg,Stimuli/canonical view 2/img_n04405907_8_gray.jpg,foreground,right,Experiments/experiment_26/416.jpg,Experiments/experiment_26/417.jpg,Experiments/experiment_26/418.jpg,Experiments/experiment_26/419.jpg,897,1,2023-09-17_10h13.04.826,Occlusion_Psychophysics,2022.1.4,Win32,32,,,left,"[""left""]",[0.8910000000000764],False,,0.0,0.0,4.0,4.0,4.0,1.0,,,,,,
,,,,,,,,,,,,,,,,,,,,,0.025,,,,,,,,,,Stimuli/psy_fixed_rotation_30_objects_occ0.7_0.9s/images/train/n02883344_-1/n04405907_9/img_woven_box_vray_004_2009_gray.jpg,n02883344_-1,n04405907_9,fixed,0.87604,n02883344_-1,Stimuli/psy_flexible_rotation_30_objects_occ0.7_0.9s/images/train/n02933112_-2/n02883344_-1/img_sink_base_white_wood_woven_box_2003-3_gray.png,random,flexible,n02883344_-1,n04405907_9,Stimuli/canonical view 2/img_n02883344_-1_gray.jpg,Stimuli/canonical view 2/img_n04405907_9_gray.jpg,foreground,left,Experiments/experiment_26/420.jpg,Experiments/experiment_26/421.jpg,Experiments/experiment_26/422.jpg,Experiments/experiment_26/423.jpg,897,1,2023-09-17_10h13.04.826,Occlusion_Psychophysics,2022.1.4,Win32,32,,,right,"[""right""]",[1.6089999999999236],False,,0.0,0.0,5.0,5.0,5.0,1.0,,,,,,
,,,,,,,,,,,,,,,,,,,,,0.025,,,,,,,,,,Stimuli/psy_flexible_rotation_30_objects_occ0.7_0.9s/images/train/n04379243_8/n04405907_8/img_glass_table_stylized_tv_2012_gray.jpg,n04379243_8,n04405907_8,flexible,0.713336,n02933112_-2,Stimuli/psy_fixed_rotation_30_objects_occ0.7_0.9s/images/train/n02818832_9/n02933112_-2/img_bed01_blue_sink_base_white_wood_2009-3_gray.png,random,fixed,n04379243_8,n03001627_9,Stimuli/canonical view 2/img_n04379243_8_gray.jpg,Stimuli/canonical view 2/img_n03001627_9_gray.jpg,random,left,Experiments/experiment_26/424.jpg,Experiments/experiment_26/425.jpg,Experiments/experiment_26/426.jpg,Experiments/experiment_26/427.jpg,897,1,2023-09-17_10h13.04.826,Occlusion_Psychophysics,2022.1.4,Win32,32,,,right,"[""left""]",[1.0769999999999982],False,,0.0,0.0,6.0,6.0,6.0,1.0,,,,,,
,,,,,,,,,,,,,,,,,,,,,0.05,,,,,,,,,,Stimuli/psy_flexible_rotation_30_objects_occ0.7_0.9s/images/train/n04405907_9/n04256520_5/img_vray_004_meridiani_belmondo_bench_sofa_2015_gray.jpg,n04405907_9,n04256520_5,flexible,0.791043,n04256520_5,Stimuli/psy_flexible_rotation_30_objects_occ0.7_0.9s/images/train/n04405907_9/n04256520_5/img_vray_004_meridiani_belmondo_bench_sofa_2015-3_gray.png,foreground,same as foreground,n04405907_9,n04256520_5,Stimuli/canonical view 2/img_n04405907_9_gray.jpg,Stimuli/canonical view 2/img_n04256520_5_gray.jpg,foreground,right,Experiments/experiment_26/428.jpg,Experiments/experiment_26/429.jpg,Experiments/experiment_26/430.jpg,Experiments/experiment_26/431.jpg,897,1,2023-09-17_10h13.04.826,Occlusion_Psychophysics,2022.1.4,Win32,32,,,left,"[""left""]",[1.1449999999999818],True,left,1.0,0.0,7.0,7.0,7.0,1.0,0.942,,,,,
,,,,,,,,,,,,,,,,,,,,,0.025,,,,,,,,,,Stimuli/psy_fixed_rotation_30_objects_occ0.7_0.9s/images/train/n04405907_5/n02883344_0/img_samsung_40_uhd_smart_tv_2011_b03_box_2014_gray.jpg,n04405907_5,n02883344_0,fixed,0.838451,n02883344_0,Stimuli/psy_fixed_rotation_30_objects_occ0.7_0.9s/images/train/n04405907_5/n02883344_0/img_samsung_40_uhd_smart_tv_2011_b03_box_2014-3_gray.png,foreground,same as foreground,n04405907_5,n02883344_0,Stimuli/canonical view 2/img_n04405907_5_gray.jpg,Stimuli/canonical view 2/img_n02883344_0_gray.jpg,foreground,left,Experiments/experiment_26/432.jpg,Experiments/experiment_26/433.jpg,Experiments/experiment_26/434.jpg,Experiments/experiment_26/435.jpg,897,1,2023-09-17_10h13.04.826,Occlusion_Psychophysics,2022.1.4,Win32,32,,,right,"[""right""]",[0.93100000000004],False,,0.0,0.0,8.0,8.0,8.0,1.0,,,,,,
,,,,,,,,,,,,,,,,,,,,,0.025,,,,,,,,,,Stimuli/psy_fixed_rotation_30_objects_occ0.7_0.9s/images/train/n02933112_-2/n02818832_9/img_sink_base_white_wood_bed01_blue_2009_gray.jpg,n02933112_-2,n02818832_9,fixed,0.704151,n04379243_-7,Stimuli/psy_flexible_rotation_30_objects_occ0.7_0.9s/images/train/n04256520_5/n04379243_-7/img_meridiani_belmondo_bench_sofa_quatre_dining_table_2005-3_gray.png,random,flexible,n02933112_-2,n04256520_4,Stimuli/canonical view 2/img_n02933112_-2_gray.jpg,Stimuli/canonical view 2/img_n04256520_4_gray.jpg,random,right,Experiments/experiment_26/436.jpg,Experiments/experiment_26/437.jpg,Experiments/experiment_26/438.jpg,Experiments/experiment_26/439.jpg,897,1,2023-09-17_10h13.04.826,Occlusion_Psychophysics,2022.1.4,Win32,32,,,left,"[""left""]",[0.9239999999999782],False,,0.0,0.0,9.0,9.0,9.0,1.0,,,,,,
,,,,,,,,,,,,,,,,,,,,,0.025,,,,,,,,,,Stimuli/psy_fixed_rotation_30_objects_occ0.7_0.9s/images/train/n02818832_9/n02828884_3/img_bed01_blue_b04_wood_metal_park_bench_2009_gray.jpg,n02818832_9,n02828884_3,fixed,0.745843,n02883344_15,Stimuli/psy_fixed_rotation_30_objects_occ0.7_0.9s/images/train/n02933112_4/n02883344_15/img_buffet_microwave_box_2000-3_gray.png,random,fixed,n02818832_9,n04379243_-7,Stimuli/canonical view 2/img_n02818832_9_gray.jpg,Stimuli/canonical view 2/img_n04379243_-7_gray.jpg,random,left,Experiments/experiment_26/440.jpg,Experiments/experiment_26/441.jpg,Experiments/experiment_26/442.jpg,Experiments/experiment_26/443.jpg,897,1,2023-09-17_10h13.04.826,Occlusion_Psychophysics,2022.1.4,Win32,32,,,right,"[""left""]",[1.1100000000000136],False,,0.0,0.0,10.0,10.0,10.0,1.0,,,,,,
,,,,,,,,,,,,,,,,,,,,,0.05,,,,,,,,,,Stimuli/psy_flexible_rotation_30_objects_occ0.7_0.9s/images/train/n04256520_5/n02883344_0/img_meridiani_belmondo_bench_sofa_b03_box_2007_gray.jpg,n04256520_5,n02883344_0,flexible,0.723063,n02883344_0,Stimuli/psy_flexible_rotation_30_objects_occ0.7_0.9s/images/train/n04256520_5/n02883344_0/img_meridiani_belmondo_bench_sofa_b03_box_2007-3_gray.png,foreground,same as foreground,n04256520_5,n02818832_3,Stimuli/canonical view 2/img_n04256520_5_gray.jpg,Stimuli/canonical view 2/img_n02818832_3_gray.jpg,random,right,Experiments/experiment_26/444.jpg,Experiments/experiment_26/445.jpg,Experiments/experiment_26/446.jpg,Experiments/experiment_26/447.jpg,897,1,2023-09-17_10h13.04.826,Occlusion_Psychophysics,2022.1.4,Win32,32,,,left,"[""left""]",[1.1449999999999818],False,,0.0,0.0,11.0,11.0,11.0,1.0,,,,,,
,,,,,,,,,,,,,,,,,,,,,0.025,,,,,,,,,,Stimuli/psy_fixed_rotation_30_objects_occ0.7_0.9s/images/train/n04379243_0/n04405907_8/img_17th_c._monastery_dining_table_2010_stylized_tv_2014_gray.jpg,n04379243_0,n04405907_8,fixed,0.725295,n04405907_8,Stimuli/psy_fixed_rotation_30_objects_occ0.7_0.9s/images/train/n04379243_0/n04405907_8/img_17th_c._monastery_dining_table_2010_stylized_tv_2014-3_gray.png,foreground,same as foreground,n04379243_0,n04405907_5,Stimuli/canonical view 2/img_n04379243_0_gray.jpg,Stimuli/canonical view 2/img_n04405907_5_gray.jpg,random,right,Experiments/experiment_26/448.jpg,Experiments/experiment_26/449.jpg,Experiments/experiment_26/450.jpg,Experiments/experiment_26/451.jpg,897,1,2023-09-17_10h13.04.826,Occlusion_Psychophysics,2022.1.4,Win32,32,,,left,"[""left""]",[1.294999999999959],False,,0.0,0.0,12.0,12.0,12.0,1.0,,,,,,
,,,,,,,,,,,,,,,,,,,,,0.025,,,,,,,,,,Stimuli/psy_flexible_rotation_30_objects_occ0.7_0.9s/images/train/n04405907_8/n04405907_5/img_stylized_tv_samsung_40_uhd_smart_tv_2011_2015_gray.jpg,n04405907_8,n04405907_5,flexible,0.745239,n04405907_5,Stimuli/psy_flexible_rotation_30_objects_occ0.7_0.9s/images/train/n04405907_8/n04405907_5/img_stylized_tv_samsung_40_uhd_smart_tv_2011_2015-3_gray.png,foreground,same as foreground,n04405907_8,n02933112_-2,Stimuli/canonical view 2/img_n04405907_8_gray.jpg,Stimuli/canonical view 2/img_n02933112_-2_gray.jpg,random,right,Experiments/experiment_26/452.jpg,Experiments/experiment_26/453.jpg,Experiments/experiment_26/454.jpg,Experiments/experiment_26/455.jpg,897,1,2023-09-17_10h13.04.826,Occlusion_Psychophysics,2022.1.4,Win32,32,,,right,"[""right""]",[1.2340000000000373],False,,0.0,0.0,13.0,13.0,13.0,1.0,,,,,,
,,,,,,,,,,,,,,,,,,,,,0.025,,,,,,,,,,Stimuli/psy_fixed_rotation_30_objects_occ0.7_0.9s/images/train/n02818832_0/n02818832_9/img_b03_the_sofa_and_chair_company_-_stanley_bed_2014_bed01_blue_2006_gray.jpg,n02818832_0,n02818832_9,fixed,0.73446,n02818832_9,Stimuli/psy_fixed_rotation_30_objects_occ0.7_0.9s/images/train/n02818832_0/n02818832_9/img_b03_the_sofa_and_chair_company_-_stanley_bed_2014_bed01_blue_2006-3_gray.png,foreground,same as foreground,n02818832_0,n02818832_9,Stimuli/canonical view 2/img_n02818832_0_gray.jpg,Stimuli/canonical view 2/img_n02818832_9_gray.jpg,foreground,right,Experiments/experiment_26/456.jpg,Experiments/experiment_26/457.jpg,Experiments/experiment_26/458.jpg,Experiments/experiment_26/459.jpg,897,1,2023-09-17_10h13.04.826,Occlusion_Psychophysics,2022.1.4,Win32,32,,,left,"[""left""]",[0.8260000000000218],False,,0.0,0.0,14.0,14.0,14.0,1.0,,,,,,
