in_color,Instructions_key.keys,Instructions_key.rt,Tutorial_instruction_key.keys,Tutorial_instruction_key.rt,Tutorial_fixation_ley.keys,Tutorial_fixation_ley.rt,Tutorial_single_img_key.keys,Tutorial_single_img_key.rt,Tutorial_intra_trial_fixation_key.keys,Tutorial_intra_trial_fixation_key.rt,Tutorial_stimulus_key.keys,Tutorial_stimulus_key.rt,Tutorial_response_key.keys,Tutorial_response_key.rt,Tutorial_attention_check_key.keys,Tutorial_attention_check_key.rt,advance_or_repeat.keys,advance_or_repeat.rt,Practice_instructions_key.keys,Practice_instructions_key.rt,intra_trial_duration,Practice_key_response.keys,Practice_key_response.rt,Practice_react_key.keys,Practice_react_key.rt,Practice_loop.thisRepN,Practice_loop.thisTrialN,Practice_loop.thisN,Practice_loop.thisIndex,Practice_loop.ran,multi_object_filepath,background_id,foreground_id,multi_object_rotation,occlusion_level,single_object_id,single_object_filepath,single_is_foreground_or_random,single_object_rotation,background_choice_id,alt_choice_id,background_option_filepath,alternative_option_filepath,alternative_is_foreground_or_random,location_of_correct_answer,multi_object_exp_filename,single_object_exp_filename,background_option_exp_filename,alternative_option_exp_filename,participant,session,date,expName,psychopyVersion,OS,frameRate,Practice_end_key.keys,Practice_end_key.rt,correct_answer,Input_selection.keys,Input_selection.rt,Was_attention_check,Attention_check.keys,Attention_check.corr,Each_session_loop.thisRepN,Each_session_loop.thisTrialN,Each_session_loop.thisN,Each_session_loop.thisIndex,Each_session_loop.ran,Attention_check.rt,Num_sessions.thisRepN,Num_sessions.thisTrialN,Num_sessions.thisN,Num_sessions.thisIndex,Num_sessions.ran
False,space,102.0685,space,4.7031,space,4.1988,space,6.8356,space,1.9048,space,9.1782,right,6.0624,right,2.831,a,2007.0987,a,5.6485,0.025,left,2.0191,a,2.9809,0.0,0.0,0.0,0.0,1.0,Stimuli/psy_flexible_rotation_30_objects_occ0.7_0.9s/images/train/n02933112_-18/n04405907_5/img_cgaxis_models_48_26_vray_composite_samsung_40_uhd_smart_tv_2011_2011_gray.jpg,n02933112_-18,n04405907_5,flexible,0.764104,n03928116_0,Stimuli/psy_fixed_rotation_30_objects_occ0.7_0.9s/images/train/n04405907_5/n03928116_0/img_samsung_40_uhd_smart_tv_2011_b02_piano_2000-3_gray.png,random,fixed,n02933112_-18,n04379243_-7,Stimuli/canonical view 2/img_n02933112_-18_gray.jpg,Stimuli/canonical view 2/img_n04379243_-7_gray.jpg,random,right,Experiments/experiment_43/1000.jpg,Experiments/experiment_43/1001.jpg,Experiments/experiment_43/1002.jpg,Experiments/experiment_43/1003.jpg,899,1,2023-09-17_11h40.32.452,Occlusion_Psychophysics,2022.1.4,MacIntel,59.99520038,,,,,,,,,,,,,,,,,,,
,,,,,,,,,,,,,,,,,,,,,0.05,,,,,,,,,,Stimuli/psy_flexible_rotation_30_objects_occ0.7_0.9s/images/train/n02933112_4/n02828884_3/img_buffet_b04_wood_metal_park_bench_2006_gray.jpg,n02933112_4,n02828884_3,flexible,0.895234,n02828884_3,Stimuli/psy_flexible_rotation_30_objects_occ0.7_0.9s/images/train/n02933112_4/n02828884_3/img_buffet_b04_wood_metal_park_bench_2006-3_gray.png,foreground,same as foreground,n02933112_4,n02933112_-18,Stimuli/canonical view 2/img_n02933112_4_gray.jpg,Stimuli/canonical view 2/img_n02933112_-18_gray.jpg,random,left,Experiments/experiment_43/0.jpg,Experiments/experiment_43/1.jpg,Experiments/experiment_43/2.jpg,Experiments/experiment_43/3.jpg,899,1,2023-09-17_11h40.32.452,Occlusion_Psychophysics,2022.1.4,MacIntel,59.99520038,right,2.9263,right,"[""left""]",[1.3097999999968124],False,,0.0,0.0,0.0,0.0,0.0,1.0,,,,,,
,,,,,,,,,,,,,,,,,,,,,0.05,,,,,,,,,,Stimuli/psy_flexible_rotation_30_objects_occ0.7_0.9s/images/train/n04256520_9/n02828884_3/img_napoleon_iii_sofa_b04_wood_metal_park_bench_2002_gray.jpg,n04256520_9,n02828884_3,flexible,0.703268,n02818832_0,Stimuli/psy_fixed_rotation_30_objects_occ0.7_0.9s/images/train/n04405907_8/n02818832_0/img_stylized_tv_b03_the_sofa_and_chair_company_-_stanley_bed_2014_2007-3_gray.png,random,fixed,n04256520_9,n02828884_3,Stimuli/canonical view 2/img_n04256520_9_gray.jpg,Stimuli/canonical view 2/img_n02828884_3_gray.jpg,foreground,right,Experiments/experiment_43/4.jpg,Experiments/experiment_43/5.jpg,Experiments/experiment_43/6.jpg,Experiments/experiment_43/7.jpg,899,1,2023-09-17_11h40.32.452,Occlusion_Psychophysics,2022.1.4,MacIntel,59.99520038,,,left,"[""right""]",[0.6519000000057531],False,,0.0,0.0,1.0,1.0,1.0,1.0,,,,,,
,,,,,,,,,,,,,,,,,,,,,0.05,,,,,,,,,,Stimuli/psy_flexible_rotation_30_objects_occ0.7_0.9s/images/train/n02828884_3/n02933112_-18/img_b04_wood_metal_park_bench_cgaxis_models_48_26_vray_composite_2005_gray.jpg,n02828884_3,n02933112_-18,flexible,0.84435,n04256520_9,Stimuli/psy_fixed_rotation_30_objects_occ0.7_0.9s/images/train/n03928116_4/n04256520_9/img_dp_33_b_2013__vray_napoleon_iii_sofa_2000-3_gray.png,random,fixed,n02828884_3,n02933112_-18,Stimuli/canonical view 2/img_n02828884_3_gray.jpg,Stimuli/canonical view 2/img_n02933112_-18_gray.jpg,foreground,right,Experiments/experiment_43/8.jpg,Experiments/experiment_43/9.jpg,Experiments/experiment_43/10.jpg,Experiments/experiment_43/11.jpg,899,1,2023-09-17_11h40.32.452,Occlusion_Psychophysics,2022.1.4,MacIntel,59.99520038,,,right,"[""left""]",[1.4241000000092754],False,,0.0,0.0,2.0,2.0,2.0,1.0,,,,,,
,,,,,,,,,,,,,,,,,,,,,0.025,,,,,,,,,,Stimuli/psy_fixed_rotation_30_objects_occ0.7_0.9s/images/train/n02818832_0/n02933112_4/img_b03_the_sofa_and_chair_company_-_stanley_bed_2014_buffet_2002_gray.jpg,n02818832_0,n02933112_4,fixed,0.780205,n02933112_4,Stimuli/psy_fixed_rotation_30_objects_occ0.7_0.9s/images/train/n02818832_0/n02933112_4/img_b03_the_sofa_and_chair_company_-_stanley_bed_2014_buffet_2002-3_gray.png,foreground,same as foreground,n02818832_0,n03928116_4,Stimuli/canonical view 2/img_n02818832_0_gray.jpg,Stimuli/canonical view 2/img_n03928116_4_gray.jpg,random,left,Experiments/experiment_43/12.jpg,Experiments/experiment_43/13.jpg,Experiments/experiment_43/14.jpg,Experiments/experiment_43/15.jpg,899,1,2023-09-17_11h40.32.452,Occlusion_Psychophysics,2022.1.4,MacIntel,59.99520038,,,left,"[""left""]",[1.1296000000088497],False,,0.0,0.0,3.0,3.0,3.0,1.0,,,,,,
,,,,,,,,,,,,,,,,,,,,,0.05,,,,,,,,,,Stimuli/psy_fixed_rotation_30_objects_occ0.7_0.9s/images/train/n02883344_-1/n02828884_3/img_woven_box_b04_wood_metal_park_bench_2002_gray.jpg,n02883344_-1,n02828884_3,fixed,0.73879,n02828884_3,Stimuli/psy_fixed_rotation_30_objects_occ0.7_0.9s/images/train/n02883344_-1/n02828884_3/img_woven_box_b04_wood_metal_park_bench_2002-3_gray.png,foreground,same as foreground,n02883344_-1,n04405907_9,Stimuli/canonical view 2/img_n02883344_-1_gray.jpg,Stimuli/canonical view 2/img_n04405907_9_gray.jpg,random,right,Experiments/experiment_43/16.jpg,Experiments/experiment_43/17.jpg,Experiments/experiment_43/18.jpg,Experiments/experiment_43/19.jpg,899,1,2023-09-17_11h40.32.452,Occlusion_Psychophysics,2022.1.4,MacIntel,59.99520038,,,right,"[""right""]",[1.0405000000000655],False,,0.0,0.0,4.0,4.0,4.0,1.0,,,,,,
,,,,,,,,,,,,,,,,,,,,,0.025,,,,,,,,,,Stimuli/psy_flexible_rotation_30_objects_occ0.7_0.9s/images/train/n04256520_5/n02818832_0/img_meridiani_belmondo_bench_sofa_b03_the_sofa_and_chair_company_-_stanley_bed_2014_2003_gray.jpg,n04256520_5,n02818832_0,flexible,0.728982,n02818832_0,Stimuli/psy_flexible_rotation_30_objects_occ0.7_0.9s/images/train/n04256520_5/n02818832_0/img_meridiani_belmondo_bench_sofa_b03_the_sofa_and_chair_company_-_stanley_bed_2014_2003-3_gray.png,foreground,same as foreground,n04256520_5,n02933112_4,Stimuli/canonical view 2/img_n04256520_5_gray.jpg,Stimuli/canonical view 2/img_n02933112_4_gray.jpg,random,left,Experiments/experiment_43/20.jpg,Experiments/experiment_43/21.jpg,Experiments/experiment_43/22.jpg,Experiments/experiment_43/23.jpg,899,1,2023-09-17_11h40.32.452,Occlusion_Psychophysics,2022.1.4,MacIntel,59.99520038,,,left,"[""left""]",[0.9085999999942942],False,,0.0,0.0,5.0,5.0,5.0,1.0,,,,,,
,,,,,,,,,,,,,,,,,,,,,0.05,,,,,,,,,,Stimuli/psy_flexible_rotation_30_objects_occ0.7_0.9s/images/train/n04405907_8/n02883344_15/img_stylized_tv_microwave_box_2005_gray.jpg,n04405907_8,n02883344_15,flexible,0.820502,n02933112_-2,Stimuli/psy_flexible_rotation_30_objects_occ0.7_0.9s/images/train/n04256520_9/n02933112_-2/img_napoleon_iii_sofa_sink_base_white_wood_2007-3_gray.png,random,flexible,n04405907_8,n02883344_15,Stimuli/canonical view 2/img_n04405907_8_gray.jpg,Stimuli/canonical view 2/img_n02883344_15_gray.jpg,foreground,left,Experiments/experiment_43/24.jpg,Experiments/experiment_43/25.jpg,Experiments/experiment_43/26.jpg,Experiments/experiment_43/27.jpg,899,1,2023-09-17_11h40.32.452,Occlusion_Psychophysics,2022.1.4,MacIntel,59.99520038,,,left,"[""left""]",[0.9992999999967651],False,,0.0,0.0,6.0,6.0,6.0,1.0,,,,,,
,,,,,,,,,,,,,,,,,,,,,0.05,,,,,,,,,,Stimuli/psy_fixed_rotation_30_objects_occ0.7_0.9s/images/train/n03001627_8/n02883344_15/img_chair_billiani_doll_microwave_box_2010_gray.jpg,n03001627_8,n02883344_15,fixed,0.735855,n03928116_0,Stimuli/psy_flexible_rotation_30_objects_occ0.7_0.9s/images/train/n03001627_9/n03928116_0/img_chair_eames_plastic_armchair_b02_piano_2011-3_gray.png,random,flexible,n03001627_8,n02828884_4,Stimuli/canonical view 2/img_n03001627_8_gray.jpg,Stimuli/canonical view 2/img_n02828884_4_gray.jpg,random,right,Experiments/experiment_43/28.jpg,Experiments/experiment_43/29.jpg,Experiments/experiment_43/30.jpg,Experiments/experiment_43/31.jpg,899,1,2023-09-17_11h40.32.452,Occlusion_Psychophysics,2022.1.4,MacIntel,59.99520038,,,left,"[""left""]",[1.3436000000092463],False,,0.0,0.0,7.0,7.0,7.0,1.0,,,,,,
,,,,,,,,,,,,,,,,,,,,,0.05,,,,,,,,,,Stimuli/psy_flexible_rotation_30_objects_occ0.7_0.9s/images/train/n04379243_8/n03928116_4/img_glass_table_dp_33_b_2013__vray_2009_gray.jpg,n04379243_8,n03928116_4,flexible,0.714186,n04405907_5,Stimuli/psy_fixed_rotation_30_objects_occ0.7_0.9s/images/train/n04405907_8/n04405907_5/img_stylized_tv_samsung_40_uhd_smart_tv_2011_2003-3_gray.png,random,fixed,n04379243_8,n03928116_4,Stimuli/canonical view 2/img_n04379243_8_gray.jpg,Stimuli/canonical view 2/img_n03928116_4_gray.jpg,foreground,right,Experiments/experiment_43/32.jpg,Experiments/experiment_43/33.jpg,Experiments/experiment_43/34.jpg,Experiments/experiment_43/35.jpg,899,1,2023-09-17_11h40.32.452,Occlusion_Psychophysics,2022.1.4,MacIntel,59.99520038,,,right,"[""right""]",[0.657900000006066],False,,0.0,0.0,8.0,8.0,8.0,1.0,,,,,,
,,,,,,,,,,,,,,,,,,,,,0.025,,,,,,,,,,Stimuli/psy_flexible_rotation_30_objects_occ0.7_0.9s/images/train/n04405907_8/n02883344_15/img_stylized_tv_microwave_box_2013_gray.jpg,n04405907_8,n02883344_15,flexible,0.752126,n02933112_-2,Stimuli/psy_flexible_rotation_30_objects_occ0.7_0.9s/images/train/n04256520_4/n02933112_-2/img_club_house_italia_nautilus_sofa_sink_base_white_wood_2014-3_gray.png,random,flexible,n04405907_8,n02883344_15,Stimuli/canonical view 2/img_n04405907_8_gray.jpg,Stimuli/canonical view 2/img_n02883344_15_gray.jpg,foreground,right,Experiments/experiment_43/36.jpg,Experiments/experiment_43/37.jpg,Experiments/experiment_43/38.jpg,Experiments/experiment_43/39.jpg,899,1,2023-09-17_11h40.32.452,Occlusion_Psychophysics,2022.1.4,MacIntel,59.99520038,,,left,"[""left""]",[0.5242999999968561],False,,0.0,0.0,9.0,9.0,9.0,1.0,,,,,,
,,,,,,,,,,,,,,,,,,,,,0.025,,,,,,,,,,Stimuli/psy_fixed_rotation_30_objects_occ0.7_0.9s/images/train/n04256520_9/n03928116_10/img_napoleon_iii_sofa_ydp_103_r_2012__vray_2005_gray.jpg,n04256520_9,n03928116_10,fixed,0.750817,n03928116_10,Stimuli/psy_fixed_rotation_30_objects_occ0.7_0.9s/images/train/n04256520_9/n03928116_10/img_napoleon_iii_sofa_ydp_103_r_2012__vray_2005-3_gray.png,foreground,same as foreground,n04256520_9,n03928116_0,Stimuli/canonical view 2/img_n04256520_9_gray.jpg,Stimuli/canonical view 2/img_n03928116_0_gray.jpg,random,left,Experiments/experiment_43/40.jpg,Experiments/experiment_43/41.jpg,Experiments/experiment_43/42.jpg,Experiments/experiment_43/43.jpg,899,1,2023-09-17_11h40.32.452,Occlusion_Psychophysics,2022.1.4,MacIntel,59.99520038,,,right,"[""right""]",[1.8872000000028493],False,,0.0,0.0,10.0,10.0,10.0,1.0,,,,,,
,,,,,,,,,,,,,,,,,,,,,0.025,,,,,,,,,,Stimuli/psy_flexible_rotation_30_objects_occ0.7_0.9s/images/train/n03928116_0/n04405907_5/img_b02_piano_samsung_40_uhd_smart_tv_2011_2006_gray.jpg,n03928116_0,n04405907_5,flexible,0.73952,n04405907_5,Stimuli/psy_flexible_rotation_30_objects_occ0.7_0.9s/images/train/n03928116_0/n04405907_5/img_b02_piano_samsung_40_uhd_smart_tv_2011_2006-3_gray.png,foreground,same as foreground,n03928116_0,n04405907_5,Stimuli/canonical view 2/img_n03928116_0_gray.jpg,Stimuli/canonical view 2/img_n04405907_5_gray.jpg,foreground,right,Experiments/experiment_43/44.jpg,Experiments/experiment_43/45.jpg,Experiments/experiment_43/46.jpg,Experiments/experiment_43/47.jpg,899,1,2023-09-17_11h40.32.452,Occlusion_Psychophysics,2022.1.4,MacIntel,59.99520038,,,right,"[""right""]",[0.8585000000002765],False,,0.0,0.0,11.0,11.0,11.0,1.0,,,,,,
,,,,,,,,,,,,,,,,,,,,,0.025,,,,,,,,,,Stimuli/psy_flexible_rotation_30_objects_occ0.7_0.9s/images/train/n02883344_15/n02933112_4/img_microwave_box_buffet_2014_gray.jpg,n02883344_15,n02933112_4,flexible,0.738095,n02933112_4,Stimuli/psy_flexible_rotation_30_objects_occ0.7_0.9s/images/train/n02883344_15/n02933112_4/img_microwave_box_buffet_2014-3_gray.png,foreground,same as foreground,n02883344_15,n02828884_4,Stimuli/canonical view 2/img_n02883344_15_gray.jpg,Stimuli/canonical view 2/img_n02828884_4_gray.jpg,random,left,Experiments/experiment_43/48.jpg,Experiments/experiment_43/49.jpg,Experiments/experiment_43/50.jpg,Experiments/experiment_43/51.jpg,899,1,2023-09-17_11h40.32.452,Occlusion_Psychophysics,2022.1.4,MacIntel,59.99520038,,,left,"[""left""]",[0.7095999999942251],True,left,1.0,0.0,12.0,12.0,12.0,1.0,1.1136,,,,,
,,,,,,,,,,,,,,,,,,,,,0.05,,,,,,,,,,Stimuli/psy_flexible_rotation_30_objects_occ0.7_0.9s/images/train/n03928116_10/n02828884_3/img_ydp_103_r_2012__vray_b04_wood_metal_park_bench_2010_gray.jpg,n03928116_10,n02828884_3,flexible,0.800873,n02828884_3,Stimuli/psy_flexible_rotation_30_objects_occ0.7_0.9s/images/train/n03928116_10/n02828884_3/img_ydp_103_r_2012__vray_b04_wood_metal_park_bench_2010-3_gray.png,foreground,same as foreground,n03928116_10,n03001627_8,Stimuli/canonical view 2/img_n03928116_10_gray.jpg,Stimuli/canonical view 2/img_n03001627_8_gray.jpg,random,right,Experiments/experiment_43/52.jpg,Experiments/experiment_43/53.jpg,Experiments/experiment_43/54.jpg,Experiments/experiment_43/55.jpg,899,1,2023-09-17_11h40.32.452,Occlusion_Psychophysics,2022.1.4,MacIntel,59.99520038,,,right,"[""right""]",[0.8536000000090098],False,,0.0,0.0,13.0,13.0,13.0,1.0,,,,,,
,,,,,,,,,,,,,,,,,,,,,0.025,,,,,,,,,,Stimuli/psy_flexible_rotation_30_objects_occ0.7_0.9s/images/train/n02828884_4/n02883344_-1/img_b05_c-5_classic_series_bench-2012_woven_box_2012_gray.jpg,n02828884_4,n02883344_-1,flexible,0.790378,n02883344_-1,Stimuli/psy_flexible_rotation_30_objects_occ0.7_0.9s/images/train/n02828884_4/n02883344_-1/img_b05_c-5_classic_series_bench-2012_woven_box_2012-3_gray.png,foreground,same as foreground,n02828884_4,n02828884_9,Stimuli/canonical view 2/img_n02828884_4_gray.jpg,Stimuli/canonical view 2/img_n02828884_9_gray.jpg,random,right,Experiments/experiment_43/56.jpg,Experiments/experiment_43/57.jpg,Experiments/experiment_43/58.jpg,Experiments/experiment_43/59.jpg,899,1,2023-09-17_11h40.32.452,Occlusion_Psychophysics,2022.1.4,MacIntel,59.99520038,,,right,"[""left""]",[1.1889999999998508],False,,0.0,0.0,14.0,14.0,14.0,1.0,,,,,,
,,,,,,,,,,,,,,,,,,,,,0.025,,,,,,,,,,Stimuli/psy_fixed_rotation_30_objects_occ0.7_0.9s/images/train/n04256520_9/n04379243_-7/img_napoleon_iii_sofa_quatre_dining_table_2006_gray.jpg,n04256520_9,n04379243_-7,fixed,0.812174,n04379243_-7,Stimuli/psy_fixed_rotation_30_objects_occ0.7_0.9s/images/train/n04256520_9/n04379243_-7/img_napoleon_iii_sofa_quatre_dining_table_2006-3_gray.png,foreground,same as foreground,n04256520_9,n04379243_-7,Stimuli/canonical view 2/img_n04256520_9_gray.jpg,Stimuli/canonical view 2/img_n04379243_-7_gray.jpg,foreground,left,Experiments/experiment_43/60.jpg,Experiments/experiment_43/61.jpg,Experiments/experiment_43/62.jpg,Experiments/experiment_43/63.jpg,899,1,2023-09-17_11h40.32.452,Occlusion_Psychophysics,2022.1.4,MacIntel,59.99520038,,,right,"[""right""]",[0.6755999999941196],False,,0.0,0.0,15.0,15.0,15.0,1.0,,,,,,
,,,,,,,,,,,,,,,,,,,,,0.025,,,,,,,,,,Stimuli/psy_flexible_rotation_30_objects_occ0.7_0.9s/images/train/n03928116_4/n02933112_-2/img_dp_33_b_2013__vray_sink_base_white_wood_2012_gray.jpg,n03928116_4,n02933112_-2,flexible,0.73383,n02933112_-2,Stimuli/psy_flexible_rotation_30_objects_occ0.7_0.9s/images/train/n03928116_4/n02933112_-2/img_dp_33_b_2013__vray_sink_base_white_wood_2012-3_gray.png,foreground,same as foreground,n03928116_4,n04405907_8,Stimuli/canonical view 2/img_n03928116_4_gray.jpg,Stimuli/canonical view 2/img_n04405907_8_gray.jpg,random,right,Experiments/experiment_43/64.jpg,Experiments/experiment_43/65.jpg,Experiments/experiment_43/66.jpg,Experiments/experiment_43/67.jpg,899,1,2023-09-17_11h40.32.452,Occlusion_Psychophysics,2022.1.4,MacIntel,59.99520038,,,right,"[""right""]",[0.7649999999998727],False,,0.0,0.0,16.0,16.0,16.0,1.0,,,,,,
,,,,,,,,,,,,,,,,,,,,,0.025,,,,,,,,,,Stimuli/psy_flexible_rotation_30_objects_occ0.7_0.9s/images/train/n04256520_5/n02818832_9/img_meridiani_belmondo_bench_sofa_bed01_blue_2009_gray.jpg,n04256520_5,n02818832_9,flexible,0.865923,n02818832_9,Stimuli/psy_flexible_rotation_30_objects_occ0.7_0.9s/images/train/n04256520_5/n02818832_9/img_meridiani_belmondo_bench_sofa_bed01_blue_2009-3_gray.png,foreground,same as foreground,n04256520_5,n02818832_9,Stimuli/canonical view 2/img_n04256520_5_gray.jpg,Stimuli/canonical view 2/img_n02818832_9_gray.jpg,foreground,right,Experiments/experiment_43/68.jpg,Experiments/experiment_43/69.jpg,Experiments/experiment_43/70.jpg,Experiments/experiment_43/71.jpg,899,1,2023-09-17_11h40.32.452,Occlusion_Psychophysics,2022.1.4,MacIntel,59.99520038,,,left,"[""right""]",[0.6717000000026019],False,,0.0,0.0,17.0,17.0,17.0,1.0,,,,,,
,,,,,,,,,,,,,,,,,,,,,0.025,,,,,,,,,,Stimuli/psy_fixed_rotation_30_objects_occ0.7_0.9s/images/train/n04256520_5/n02818832_0/img_meridiani_belmondo_bench_sofa_b03_the_sofa_and_chair_company_-_stanley_bed_2014_2011_gray.jpg,n04256520_5,n02818832_0,fixed,0.750678,n02818832_0,Stimuli/psy_fixed_rotation_30_objects_occ0.7_0.9s/images/train/n04256520_5/n02818832_0/img_meridiani_belmondo_bench_sofa_b03_the_sofa_and_chair_company_-_stanley_bed_2014_2011-3_gray.png,foreground,same as foreground,n04256520_5,n04405907_9,Stimuli/canonical view 2/img_n04256520_5_gray.jpg,Stimuli/canonical view 2/img_n04405907_9_gray.jpg,random,left,Experiments/experiment_43/72.jpg,Experiments/experiment_43/73.jpg,Experiments/experiment_43/74.jpg,Experiments/experiment_43/75.jpg,899,1,2023-09-17_11h40.32.452,Occlusion_Psychophysics,2022.1.4,MacIntel,59.99520038,,,right,"[""right""]",[1.1884000000059132],False,,0.0,0.0,18.0,18.0,18.0,1.0,,,,,,
,,,,,,,,,,,,,,,,,,,,,0.025,,,,,,,,,,Stimuli/psy_fixed_rotation_30_objects_occ0.7_0.9s/images/train/n02883344_-1/n04256520_4/img_woven_box_club_house_italia_nautilus_sofa_2010_gray.jpg,n02883344_-1,n04256520_4,fixed,0.704202,n04256520_4,Stimuli/psy_fixed_rotation_30_objects_occ0.7_0.9s/images/train/n02883344_-1/n04256520_4/img_woven_box_club_house_italia_nautilus_sofa_2010-3_gray.png,foreground,same as foreground,n02883344_-1,n02883344_0,Stimuli/canonical view 2/img_n02883344_-1_gray.jpg,Stimuli/canonical view 2/img_n02883344_0_gray.jpg,random,right,Experiments/experiment_43/76.jpg,Experiments/experiment_43/77.jpg,Experiments/experiment_43/78.jpg,Experiments/experiment_43/79.jpg,899,1,2023-09-17_11h40.32.452,Occlusion_Psychophysics,2022.1.4,MacIntel,59.99520038,,,right,"[""right""]",[1.1064000000060332],False,,0.0,0.0,19.0,19.0,19.0,1.0,,,,,,
,,,,,,,,,,,,,,,,,,,,,0.05,,,,,,,,,,Stimuli/psy_flexible_rotation_30_objects_occ0.7_0.9s/images/train/n03928116_4/n03001627_-2/img_dp_33_b_2013__vray_wood_chair_2004_gray.jpg,n03928116_4,n03001627_-2,flexible,0.721228,n03001627_-2,Stimuli/psy_flexible_rotation_30_objects_occ0.7_0.9s/images/train/n03928116_4/n03001627_-2/img_dp_33_b_2013__vray_wood_chair_2004-3_gray.png,foreground,same as foreground,n03928116_4,n03001627_-2,Stimuli/canonical view 2/img_n03928116_4_gray.jpg,Stimuli/canonical view 2/img_n03001627_-2_gray.jpg,foreground,left,Experiments/experiment_43/80.jpg,Experiments/experiment_43/81.jpg,Experiments/experiment_43/82.jpg,Experiments/experiment_43/83.jpg,899,1,2023-09-17_11h40.32.452,Occlusion_Psychophysics,2022.1.4,MacIntel,59.99520038,,,right,"[""right""]",[0.6495999999938249],False,,0.0,0.0,20.0,20.0,20.0,1.0,,,,,,
,,,,,,,,,,,,,,,,,,,,,0.025,,,,,,,,,,Stimuli/psy_flexible_rotation_30_objects_occ0.7_0.9s/images/train/n03928116_0/n04256520_4/img_b02_piano_club_house_italia_nautilus_sofa_2008_gray.jpg,n03928116_0,n04256520_4,flexible,0.736088,n04256520_4,Stimuli/psy_flexible_rotation_30_objects_occ0.7_0.9s/images/train/n03928116_0/n04256520_4/img_b02_piano_club_house_italia_nautilus_sofa_2008-3_gray.png,foreground,same as foreground,n03928116_0,n02883344_15,Stimuli/canonical view 2/img_n03928116_0_gray.jpg,Stimuli/canonical view 2/img_n02883344_15_gray.jpg,random,right,Experiments/experiment_43/84.jpg,Experiments/experiment_43/85.jpg,Experiments/experiment_43/86.jpg,Experiments/experiment_43/87.jpg,899,1,2023-09-17_11h40.32.452,Occlusion_Psychophysics,2022.1.4,MacIntel,59.99520038,,,left,"[""left""]",[1.3094999999998436],False,,0.0,0.0,21.0,21.0,21.0,1.0,,,,,,
,,,,,,,,,,,,,,,,,,,,,0.05,,,,,,,,,,Stimuli/psy_fixed_rotation_30_objects_occ0.7_0.9s/images/train/n03001627_8/n02818832_3/img_chair_billiani_doll_b05_ccm_contemporary_bed_max2013_2005_gray.jpg,n03001627_8,n02818832_3,fixed,0.831378,n04405907_9,Stimuli/psy_flexible_rotation_30_objects_occ0.7_0.9s/images/train/n02818832_0/n04405907_9/img_b03_the_sofa_and_chair_company_-_stanley_bed_2014_vray_004_2011-3_gray.png,random,flexible,n03001627_8,n02818832_3,Stimuli/canonical view 2/img_n03001627_8_gray.jpg,Stimuli/canonical view 2/img_n02818832_3_gray.jpg,foreground,left,Experiments/experiment_43/88.jpg,Experiments/experiment_43/89.jpg,Experiments/experiment_43/90.jpg,Experiments/experiment_43/91.jpg,899,1,2023-09-17_11h40.32.452,Occlusion_Psychophysics,2022.1.4,MacIntel,59.99520038,,,left,"[""left""]",[0.7923999999911757],False,,0.0,0.0,22.0,22.0,22.0,1.0,,,,,,
,,,,,,,,,,,,,,,,,,,,,0.025,,,,,,,,,,Stimuli/psy_fixed_rotation_30_objects_occ0.7_0.9s/images/train/n04405907_9/n04405907_5/img_vray_004_samsung_40_uhd_smart_tv_2011_2015_gray.jpg,n04405907_9,n04405907_5,fixed,0.769593,n04405907_5,Stimuli/psy_fixed_rotation_30_objects_occ0.7_0.9s/images/train/n04405907_9/n04405907_5/img_vray_004_samsung_40_uhd_smart_tv_2011_2015-3_gray.png,foreground,same as foreground,n04405907_9,n04405907_5,Stimuli/canonical view 2/img_n04405907_9_gray.jpg,Stimuli/canonical view 2/img_n04405907_5_gray.jpg,foreground,left,Experiments/experiment_43/92.jpg,Experiments/experiment_43/93.jpg,Experiments/experiment_43/94.jpg,Experiments/experiment_43/95.jpg,899,1,2023-09-17_11h40.32.452,Occlusion_Psychophysics,2022.1.4,MacIntel,59.99520038,,,left,"[""left""]",[1.225500000000011],False,,0.0,0.0,23.0,23.0,23.0,1.0,,,,,,
,,,,,,,,,,,,,,,,,,,,,0.025,,,,,,,,,,Stimuli/psy_flexible_rotation_30_objects_occ0.7_0.9s/images/train/n04379243_-7/n02828884_3/img_quatre_dining_table_b04_wood_metal_park_bench_2010_gray.jpg,n04379243_-7,n02828884_3,flexible,0.714753,n04379243_-7,Stimuli/psy_flexible_rotation_30_objects_occ0.7_0.9s/images/train/n03928116_0/n04379243_-7/img_b02_piano_quatre_dining_table_2005-3_gray.png,random,flexible,n04379243_-7,n04256520_4,Stimuli/canonical view 2/img_n04379243_-7_gray.jpg,Stimuli/canonical view 2/img_n04256520_4_gray.jpg,random,right,Experiments/experiment_43/96.jpg,Experiments/experiment_43/97.jpg,Experiments/experiment_43/98.jpg,Experiments/experiment_43/99.jpg,899,1,2023-09-17_11h40.32.452,Occlusion_Psychophysics,2022.1.4,MacIntel,59.99520038,,,right,"[""right""]",[0.6430000000000291],False,,0.0,0.0,24.0,24.0,24.0,1.0,,,,,,
,,,,,,,,,,,,,,,,,,,,,0.05,,,,,,,,,,Stimuli/psy_fixed_rotation_30_objects_occ0.7_0.9s/images/train/n04379243_0/n04405907_8/img_17th_c._monastery_dining_table_2010_stylized_tv_2014_gray.jpg,n04379243_0,n04405907_8,fixed,0.725295,n04405907_8,Stimuli/psy_fixed_rotation_30_objects_occ0.7_0.9s/images/train/n04379243_0/n04405907_8/img_17th_c._monastery_dining_table_2010_stylized_tv_2014-3_gray.png,foreground,same as foreground,n04379243_0,n04405907_8,Stimuli/canonical view 2/img_n04379243_0_gray.jpg,Stimuli/canonical view 2/img_n04405907_8_gray.jpg,foreground,right,Experiments/experiment_43/100.jpg,Experiments/experiment_43/101.jpg,Experiments/experiment_43/102.jpg,Experiments/experiment_43/103.jpg,899,1,2023-09-17_11h40.32.452,Occlusion_Psychophysics,2022.1.4,MacIntel,59.99520038,,,right,"[""right""]",[0.5780999999938103],False,,0.0,0.0,25.0,25.0,25.0,1.0,,,,,,
,,,,,,,,,,,,,,,,,,,,,0.025,,,,,,,,,,Stimuli/psy_flexible_rotation_30_objects_occ0.7_0.9s/images/train/n02828884_3/n04379243_-7/img_b04_wood_metal_park_bench_quatre_dining_table_2014_gray.jpg,n02828884_3,n04379243_-7,flexible,0.773523,n04379243_-7,Stimuli/psy_flexible_rotation_30_objects_occ0.7_0.9s/images/train/n02828884_3/n04379243_-7/img_b04_wood_metal_park_bench_quatre_dining_table_2014-3_gray.png,foreground,same as foreground,n02828884_3,n02883344_0,Stimuli/canonical view 2/img_n02828884_3_gray.jpg,Stimuli/canonical view 2/img_n02883344_0_gray.jpg,random,right,Experiments/experiment_43/104.jpg,Experiments/experiment_43/105.jpg,Experiments/experiment_43/106.jpg,Experiments/experiment_43/107.jpg,899,1,2023-09-17_11h40.32.452,Occlusion_Psychophysics,2022.1.4,MacIntel,59.99520038,,,right,"[""right""]",[0.6097999999969943],False,,0.0,0.0,26.0,26.0,26.0,1.0,,,,,,
,,,,,,,,,,,,,,,,,,,,,0.025,,,,,,,,,,Stimuli/psy_fixed_rotation_30_objects_occ0.7_0.9s/images/train/n04256520_4/n02818832_0/img_club_house_italia_nautilus_sofa_b03_the_sofa_and_chair_company_-_stanley_bed_2014_2003_gray.jpg,n04256520_4,n02818832_0,fixed,0.714605,n02818832_0,Stimuli/psy_fixed_rotation_30_objects_occ0.7_0.9s/images/train/n04256520_4/n02818832_0/img_club_house_italia_nautilus_sofa_b03_the_sofa_and_chair_company_-_stanley_bed_2014_2003-3_gray.png,foreground,same as foreground,n04256520_4,n02818832_0,Stimuli/canonical view 2/img_n04256520_4_gray.jpg,Stimuli/canonical view 2/img_n02818832_0_gray.jpg,foreground,left,Experiments/experiment_43/108.jpg,Experiments/experiment_43/109.jpg,Experiments/experiment_43/110.jpg,Experiments/experiment_43/111.jpg,899,1,2023-09-17_11h40.32.452,Occlusion_Psychophysics,2022.1.4,MacIntel,59.99520038,,,left,"[""left""]",[0.5625999999942906],True,right,1.0,0.0,27.0,27.0,27.0,1.0,0.9507,,,,,
,,,,,,,,,,,,,,,,,,,,,0.05,,,,,,,,,,Stimuli/psy_flexible_rotation_30_objects_occ0.7_0.9s/images/train/n04256520_5/n02818832_0/img_meridiani_belmondo_bench_sofa_b03_the_sofa_and_chair_company_-_stanley_bed_2014_2012_gray.jpg,n04256520_5,n02818832_0,flexible,0.745232,n04405907_9,Stimuli/psy_fixed_rotation_30_objects_occ0.7_0.9s/images/train/n03928116_10/n04405907_9/img_ydp_103_r_2012__vray_vray_004_2001-3_gray.png,random,fixed,n04256520_5,n04256520_9,Stimuli/canonical view 2/img_n04256520_5_gray.jpg,Stimuli/canonical view 2/img_n04256520_9_gray.jpg,random,right,Experiments/experiment_43/112.jpg,Experiments/experiment_43/113.jpg,Experiments/experiment_43/114.jpg,Experiments/experiment_43/115.jpg,899,1,2023-09-17_11h40.32.452,Occlusion_Psychophysics,2022.1.4,MacIntel,59.99520038,,,left,"[""right""]",[0.7407000000030166],False,,0.0,0.0,28.0,28.0,28.0,1.0,,,,,,
,,,,,,,,,,,,,,,,,,,,,0.025,,,,,,,,,,Stimuli/psy_fixed_rotation_30_objects_occ0.7_0.9s/images/train/n04379243_8/n02883344_15/img_glass_table_microwave_box_2007_gray.jpg,n04379243_8,n02883344_15,fixed,0.755435,n04379243_-7,Stimuli/psy_fixed_rotation_30_objects_occ0.7_0.9s/images/train/n03928116_0/n04379243_-7/img_b02_piano_quatre_dining_table_2005-3_gray.png,random,fixed,n04379243_8,n04379243_-7,Stimuli/canonical view 2/img_n04379243_8_gray.jpg,Stimuli/canonical view 2/img_n04379243_-7_gray.jpg,random,left,Experiments/experiment_43/116.jpg,Experiments/experiment_43/117.jpg,Experiments/experiment_43/118.jpg,Experiments/experiment_43/119.jpg,899,1,2023-09-17_11h40.32.452,Occlusion_Psychophysics,2022.1.4,MacIntel,59.99520038,,,right,"[""right""]",[0.5588999999908992],False,,0.0,0.0,29.0,29.0,29.0,1.0,,,,,,
,,,,,,,,,,,,,,,,,,,,,0.025,,,,,,,,,,Stimuli/psy_fixed_rotation_30_objects_occ0.7_0.9s/images/train/n03001627_-2/n04405907_8/img_wood_chair_stylized_tv_2015_gray.jpg,n03001627_-2,n04405907_8,fixed,0.828113,n04256520_5,Stimuli/psy_fixed_rotation_30_objects_occ0.7_0.9s/images/train/n02818832_9/n04256520_5/img_bed01_blue_meridiani_belmondo_bench_sofa_2001-3_gray.png,random,fixed,n03001627_-2,n04256520_5,Stimuli/canonical view 2/img_n03001627_-2_gray.jpg,Stimuli/canonical view 2/img_n04256520_5_gray.jpg,random,right,Experiments/experiment_43/120.jpg,Experiments/experiment_43/121.jpg,Experiments/experiment_43/122.jpg,Experiments/experiment_43/123.jpg,899,1,2023-09-17_11h40.32.452,Occlusion_Psychophysics,2022.1.4,MacIntel,59.99520038,,,right,"[""right""]",[0.5751000000086606],False,,0.0,0.0,30.0,30.0,30.0,1.0,,,,,,
,,,,,,,,,,,,,,,,,,,,,0.025,,,,,,,,,,Stimuli/psy_flexible_rotation_30_objects_occ0.7_0.9s/images/train/n02933112_4/n02883344_-1/img_buffet_woven_box_2007_gray.jpg,n02933112_4,n02883344_-1,flexible,0.700605,n02883344_-1,Stimuli/psy_flexible_rotation_30_objects_occ0.7_0.9s/images/train/n02933112_4/n02883344_-1/img_buffet_woven_box_2007-3_gray.png,foreground,same as foreground,n02933112_4,n02883344_-1,Stimuli/canonical view 2/img_n02933112_4_gray.jpg,Stimuli/canonical view 2/img_n02883344_-1_gray.jpg,foreground,left,Experiments/experiment_43/124.jpg,Experiments/experiment_43/125.jpg,Experiments/experiment_43/126.jpg,Experiments/experiment_43/127.jpg,899,1,2023-09-17_11h40.32.452,Occlusion_Psychophysics,2022.1.4,MacIntel,59.99520038,,,left,"[""left""]",[0.6492999999973108],False,,0.0,0.0,31.0,31.0,31.0,1.0,,,,,,
,,,,,,,,,,,,,,,,,,,,,0.05,,,,,,,,,,Stimuli/psy_flexible_rotation_30_objects_occ0.7_0.9s/images/train/n02828884_3/n02818832_0/img_b04_wood_metal_park_bench_b03_the_sofa_and_chair_company_-_stanley_bed_2014_2009_gray.jpg,n02828884_3,n02818832_0,flexible,0.748345,n02818832_0,Stimuli/psy_flexible_rotation_30_objects_occ0.7_0.9s/images/train/n02828884_3/n02818832_0/img_b04_wood_metal_park_bench_b03_the_sofa_and_chair_company_-_stanley_bed_2014_2009-3_gray.png,foreground,same as foreground,n02828884_3,n02818832_0,Stimuli/canonical view 2/img_n02828884_3_gray.jpg,Stimuli/canonical view 2/img_n02818832_0_gray.jpg,foreground,right,Experiments/experiment_43/128.jpg,Experiments/experiment_43/129.jpg,Experiments/experiment_43/130.jpg,Experiments/experiment_43/131.jpg,899,1,2023-09-17_11h40.32.452,Occlusion_Psychophysics,2022.1.4,MacIntel,59.99520038,,,right,"[""right""]",[0.9549999999999272],False,,0.0,0.0,32.0,32.0,32.0,1.0,,,,,,
,,,,,,,,,,,,,,,,,,,,,0.05,,,,,,,,,,Stimuli/psy_fixed_rotation_30_objects_occ0.7_0.9s/images/train/n04256520_9/n02933112_4/img_napoleon_iii_sofa_buffet_2006_gray.jpg,n04256520_9,n02933112_4,fixed,0.728929,n02933112_4,Stimuli/psy_fixed_rotation_30_objects_occ0.7_0.9s/images/train/n04256520_9/n02933112_4/img_napoleon_iii_sofa_buffet_2006-3_gray.png,foreground,same as foreground,n04256520_9,n02933112_4,Stimuli/canonical view 2/img_n04256520_9_gray.jpg,Stimuli/canonical view 2/img_n02933112_4_gray.jpg,foreground,left,Experiments/experiment_43/132.jpg,Experiments/experiment_43/133.jpg,Experiments/experiment_43/134.jpg,Experiments/experiment_43/135.jpg,899,1,2023-09-17_11h40.32.452,Occlusion_Psychophysics,2022.1.4,MacIntel,59.99520038,,,right,"[""right""]",[0.6780999999941741],False,,0.0,0.0,33.0,33.0,33.0,1.0,,,,,,
,,,,,,,,,,,,,,,,,,,,,0.025,,,,,,,,,,Stimuli/psy_fixed_rotation_30_objects_occ0.7_0.9s/images/train/n03928116_0/n04256520_5/img_b02_piano_meridiani_belmondo_bench_sofa_2012_gray.jpg,n03928116_0,n04256520_5,fixed,0.80724,n04256520_5,Stimuli/psy_fixed_rotation_30_objects_occ0.7_0.9s/images/train/n03928116_0/n04256520_5/img_b02_piano_meridiani_belmondo_bench_sofa_2012-3_gray.png,foreground,same as foreground,n03928116_0,n04256520_5,Stimuli/canonical view 2/img_n03928116_0_gray.jpg,Stimuli/canonical view 2/img_n04256520_5_gray.jpg,foreground,left,Experiments/experiment_43/136.jpg,Experiments/experiment_43/137.jpg,Experiments/experiment_43/138.jpg,Experiments/experiment_43/139.jpg,899,1,2023-09-17_11h40.32.452,Occlusion_Psychophysics,2022.1.4,MacIntel,59.99520038,,,right,"[""right""]",[0.6078999999913322],False,,0.0,0.0,34.0,34.0,34.0,1.0,,,,,,
,,,,,,,,,,,,,,,,,,,,,0.05,,,,,,,,,,Stimuli/psy_flexible_rotation_30_objects_occ0.7_0.9s/images/train/n04256520_5/n04405907_8/img_meridiani_belmondo_bench_sofa_stylized_tv_2015_gray.jpg,n04256520_5,n04405907_8,flexible,0.7493,n04405907_8,Stimuli/psy_flexible_rotation_30_objects_occ0.7_0.9s/images/train/n04256520_5/n04405907_8/img_meridiani_belmondo_bench_sofa_stylized_tv_2015-3_gray.png,foreground,same as foreground,n04256520_5,n02883344_-1,Stimuli/canonical view 2/img_n04256520_5_gray.jpg,Stimuli/canonical view 2/img_n02883344_-1_gray.jpg,random,right,Experiments/experiment_43/140.jpg,Experiments/experiment_43/141.jpg,Experiments/experiment_43/142.jpg,Experiments/experiment_43/143.jpg,899,1,2023-09-17_11h40.32.452,Occlusion_Psychophysics,2022.1.4,MacIntel,59.99520038,,,right,"[""right""]",[0.5740999999943597],False,,0.0,0.0,35.0,35.0,35.0,1.0,,,,,,
,,,,,,,,,,,,,,,,,,,,,0.025,,,,,,,,,,Stimuli/psy_flexible_rotation_30_objects_occ0.7_0.9s/images/train/n04379243_0/n04379243_8/img_17th_c._monastery_dining_table_2010_glass_table_2009_gray.jpg,n04379243_0,n04379243_8,flexible,0.807344,n04405907_9,Stimuli/psy_flexible_rotation_30_objects_occ0.7_0.9s/images/train/n04405907_8/n04405907_9/img_stylized_tv_vray_004_2008-3_gray.png,random,flexible,n04379243_0,n04379243_8,Stimuli/canonical view 2/img_n04379243_0_gray.jpg,Stimuli/canonical view 2/img_n04379243_8_gray.jpg,foreground,right,Experiments/experiment_43/144.jpg,Experiments/experiment_43/145.jpg,Experiments/experiment_43/146.jpg,Experiments/experiment_43/147.jpg,899,1,2023-09-17_11h40.32.452,Occlusion_Psychophysics,2022.1.4,MacIntel,59.99520038,,,right,"[""left""]",[0.6721000000093227],False,,0.0,0.0,36.0,36.0,36.0,1.0,,,,,,
,,,,,,,,,,,,,,,,,,,,,0.05,,,,,,,,,,Stimuli/psy_fixed_rotation_30_objects_occ0.7_0.9s/images/train/n04405907_5/n04379243_0/img_samsung_40_uhd_smart_tv_2011_17th_c._monastery_dining_table_2010_2005_gray.jpg,n04405907_5,n04379243_0,fixed,0.71053,n04256520_5,Stimuli/psy_flexible_rotation_30_objects_occ0.7_0.9s/images/train/n02933112_-2/n04256520_5/img_sink_base_white_wood_meridiani_belmondo_bench_sofa_2005-3_gray.png,random,flexible,n04405907_5,n02818832_3,Stimuli/canonical view 2/img_n04405907_5_gray.jpg,Stimuli/canonical view 2/img_n02818832_3_gray.jpg,random,right,Experiments/experiment_43/148.jpg,Experiments/experiment_43/149.jpg,Experiments/experiment_43/150.jpg,Experiments/experiment_43/151.jpg,899,1,2023-09-17_11h40.32.452,Occlusion_Psychophysics,2022.1.4,MacIntel,59.99520038,,,right,"[""right""]",[0.7146000000088861],False,,0.0,0.0,37.0,37.0,37.0,1.0,,,,,,
,,,,,,,,,,,,,,,,,,,,,0.05,,,,,,,,,,Stimuli/psy_flexible_rotation_30_objects_occ0.7_0.9s/images/train/n02883344_15/n02883344_-1/img_microwave_box_woven_box_2006_gray.jpg,n02883344_15,n02883344_-1,flexible,0.787709,n02883344_-1,Stimuli/psy_flexible_rotation_30_objects_occ0.7_0.9s/images/train/n02883344_15/n02883344_-1/img_microwave_box_woven_box_2006-3_gray.png,foreground,same as foreground,n02883344_15,n02883344_-1,Stimuli/canonical view 2/img_n02883344_15_gray.jpg,Stimuli/canonical view 2/img_n02883344_-1_gray.jpg,foreground,right,Experiments/experiment_43/152.jpg,Experiments/experiment_43/153.jpg,Experiments/experiment_43/154.jpg,Experiments/experiment_43/155.jpg,899,1,2023-09-17_11h40.32.452,Occlusion_Psychophysics,2022.1.4,MacIntel,59.99520038,,,right,"[""right""]",[0.8142000000029839],False,,0.0,0.0,38.0,38.0,38.0,1.0,,,,,,
,,,,,,,,,,,,,,,,,,,,,0.025,,,,,,,,,,Stimuli/psy_flexible_rotation_30_objects_occ0.7_0.9s/images/train/n04379243_8/n02828884_4/img_glass_table_b05_c-5_classic_series_bench-2012_2003_gray.jpg,n04379243_8,n02828884_4,flexible,0.754498,n03001627_8,Stimuli/psy_flexible_rotation_30_objects_occ0.7_0.9s/images/train/n02818832_0/n03001627_8/img_b03_the_sofa_and_chair_company_-_stanley_bed_2014_chair_billiani_doll_2000-3_gray.png,random,flexible,n04379243_8,n02883344_-1,Stimuli/canonical view 2/img_n04379243_8_gray.jpg,Stimuli/canonical view 2/img_n02883344_-1_gray.jpg,random,left,Experiments/experiment_43/156.jpg,Experiments/experiment_43/157.jpg,Experiments/experiment_43/158.jpg,Experiments/experiment_43/159.jpg,899,1,2023-09-17_11h40.32.452,Occlusion_Psychophysics,2022.1.4,MacIntel,59.99520038,,,right,"[""right""]",[0.5097000000032494],False,,0.0,0.0,39.0,39.0,39.0,1.0,,,,,,
,,,,,,,,,,,,,,,,,,,,,0.025,,,,,,,,,,Stimuli/psy_flexible_rotation_30_objects_occ0.7_0.9s/images/train/n03001627_9/n03928116_0/img_chair_eames_plastic_armchair_b02_piano_2006_gray.jpg,n03001627_9,n03928116_0,flexible,0.760535,n04256520_9,Stimuli/psy_flexible_rotation_30_objects_occ0.7_0.9s/images/train/n03001627_-2/n04256520_9/img_wood_chair_napoleon_iii_sofa_2014-3_gray.png,random,flexible,n03001627_9,n03928116_0,Stimuli/canonical view 2/img_n03001627_9_gray.jpg,Stimuli/canonical view 2/img_n03928116_0_gray.jpg,foreground,left,Experiments/experiment_43/160.jpg,Experiments/experiment_43/161.jpg,Experiments/experiment_43/162.jpg,Experiments/experiment_43/163.jpg,899,1,2023-09-17_11h40.32.452,Occlusion_Psychophysics,2022.1.4,MacIntel,59.99520038,,,right,"[""left""]",[0.8117000000029293],False,,0.0,0.0,40.0,40.0,40.0,1.0,,,,,,
,,,,,,,,,,,,,,,,,,,,,0.025,,,,,,,,,,Stimuli/psy_flexible_rotation_30_objects_occ0.7_0.9s/images/train/n02933112_-18/n02818832_3/img_cgaxis_models_48_26_vray_composite_b05_ccm_contemporary_bed_max2013_2003_gray.jpg,n02933112_-18,n02818832_3,flexible,0.862528,n02818832_3,Stimuli/psy_flexible_rotation_30_objects_occ0.7_0.9s/images/train/n02933112_-18/n02818832_3/img_cgaxis_models_48_26_vray_composite_b05_ccm_contemporary_bed_max2013_2003-3_gray.png,foreground,same as foreground,n02933112_-18,n02818832_3,Stimuli/canonical view 2/img_n02933112_-18_gray.jpg,Stimuli/canonical view 2/img_n02818832_3_gray.jpg,foreground,right,Experiments/experiment_43/164.jpg,Experiments/experiment_43/165.jpg,Experiments/experiment_43/166.jpg,Experiments/experiment_43/167.jpg,899,1,2023-09-17_11h40.32.452,Occlusion_Psychophysics,2022.1.4,MacIntel,59.99520038,,,left,"[""right""]",[1.005500000000211],False,,0.0,0.0,41.0,41.0,41.0,1.0,,,,,,
,,,,,,,,,,,,,,,,,,,,,0.05,,,,,,,,,,Stimuli/psy_flexible_rotation_30_objects_occ0.7_0.9s/images/train/n02933112_4/n04256520_4/img_buffet_club_house_italia_nautilus_sofa_2010_gray.jpg,n02933112_4,n04256520_4,flexible,0.717934,n02933112_4,Stimuli/psy_flexible_rotation_30_objects_occ0.7_0.9s/images/train/n03928116_4/n02933112_4/img_dp_33_b_2013__vray_buffet_2014-3_gray.png,random,flexible,n02933112_4,n04256520_4,Stimuli/canonical view 2/img_n02933112_4_gray.jpg,Stimuli/canonical view 2/img_n04256520_4_gray.jpg,foreground,left,Experiments/experiment_43/168.jpg,Experiments/experiment_43/169.jpg,Experiments/experiment_43/170.jpg,Experiments/experiment_43/171.jpg,899,1,2023-09-17_11h40.32.452,Occlusion_Psychophysics,2022.1.4,MacIntel,59.99520038,,,right,"[""right""]",[1.4564000000059423],False,,0.0,0.0,42.0,42.0,42.0,1.0,,,,,,
,,,,,,,,,,,,,,,,,,,,,0.05,,,,,,,,,,Stimuli/psy_fixed_rotation_30_objects_occ0.7_0.9s/images/train/n04405907_5/n03928116_4/img_samsung_40_uhd_smart_tv_2011_dp_33_b_2013__vray_2002_gray.jpg,n04405907_5,n03928116_4,fixed,0.71283,n03928116_4,Stimuli/psy_fixed_rotation_30_objects_occ0.7_0.9s/images/train/n04405907_5/n03928116_4/img_samsung_40_uhd_smart_tv_2011_dp_33_b_2013__vray_2002-3_gray.png,foreground,same as foreground,n04405907_5,n02818832_9,Stimuli/canonical view 2/img_n04405907_5_gray.jpg,Stimuli/canonical view 2/img_n02818832_9_gray.jpg,random,left,Experiments/experiment_43/172.jpg,Experiments/experiment_43/173.jpg,Experiments/experiment_43/174.jpg,Experiments/experiment_43/175.jpg,899,1,2023-09-17_11h40.32.452,Occlusion_Psychophysics,2022.1.4,MacIntel,59.99520038,,,right,"[""right""]",[0.6816000000089844],False,,0.0,0.0,43.0,43.0,43.0,1.0,,,,,,
,,,,,,,,,,,,,,,,,,,,,0.05,,,,,,,,,,Stimuli/psy_fixed_rotation_30_objects_occ0.7_0.9s/images/train/n04256520_5/n02883344_15/img_meridiani_belmondo_bench_sofa_microwave_box_2014_gray.jpg,n04256520_5,n02883344_15,fixed,0.713317,n04405907_5,Stimuli/psy_flexible_rotation_30_objects_occ0.7_0.9s/images/train/n02883344_-1/n04405907_5/img_woven_box_samsung_40_uhd_smart_tv_2011_2013-3_gray.png,random,flexible,n04256520_5,n02828884_3,Stimuli/canonical view 2/img_n04256520_5_gray.jpg,Stimuli/canonical view 2/img_n02828884_3_gray.jpg,random,left,Experiments/experiment_43/176.jpg,Experiments/experiment_43/177.jpg,Experiments/experiment_43/178.jpg,Experiments/experiment_43/179.jpg,899,1,2023-09-17_11h40.32.452,Occlusion_Psychophysics,2022.1.4,MacIntel,59.99520038,,,right,"[""left""]",[0.6464999999998327],False,,0.0,0.0,44.0,44.0,44.0,1.0,,,,,,
,,,,,,,,,,,,,,,,,,,,,0.05,,,,,,,,,,Stimuli/psy_fixed_rotation_30_objects_occ0.7_0.9s/images/train/n03928116_10/n02933112_-2/img_ydp_103_r_2012__vray_sink_base_white_wood_2006_gray.jpg,n03928116_10,n02933112_-2,fixed,0.707783,n04379243_0,Stimuli/psy_flexible_rotation_30_objects_occ0.7_0.9s/images/train/n02818832_9/n04379243_0/img_bed01_blue_17th_c._monastery_dining_table_2010_2000-3_gray.png,random,flexible,n03928116_10,n04256520_5,Stimuli/canonical view 2/img_n03928116_10_gray.jpg,Stimuli/canonical view 2/img_n04256520_5_gray.jpg,random,right,Experiments/experiment_43/180.jpg,Experiments/experiment_43/181.jpg,Experiments/experiment_43/182.jpg,Experiments/experiment_43/183.jpg,899,1,2023-09-17_11h40.32.452,Occlusion_Psychophysics,2022.1.4,MacIntel,59.99520038,,,left,"[""right""]",[0.7044000000059896],False,,0.0,0.0,45.0,45.0,45.0,1.0,,,,,,
,,,,,,,,,,,,,,,,,,,,,0.05,,,,,,,,,,Stimuli/psy_fixed_rotation_30_objects_occ0.7_0.9s/images/train/n04405907_9/n04405907_8/img_vray_004_stylized_tv_2004_gray.jpg,n04405907_9,n04405907_8,fixed,0.712699,n02883344_0,Stimuli/psy_fixed_rotation_30_objects_occ0.7_0.9s/images/train/n02933112_-2/n02883344_0/img_sink_base_white_wood_b03_box_2009-3_gray.png,random,fixed,n04405907_9,n02828884_9,Stimuli/canonical view 2/img_n04405907_9_gray.jpg,Stimuli/canonical view 2/img_n02828884_9_gray.jpg,random,right,Experiments/experiment_43/184.jpg,Experiments/experiment_43/185.jpg,Experiments/experiment_43/186.jpg,Experiments/experiment_43/187.jpg,899,1,2023-09-17_11h40.32.452,Occlusion_Psychophysics,2022.1.4,MacIntel,59.99520038,,,left,"[""left""]",[0.6879000000058113],False,,0.0,0.0,46.0,46.0,46.0,1.0,,,,,,
,,,,,,,,,,,,,,,,,,,,,0.025,,,,,,,,,,Stimuli/psy_fixed_rotation_30_objects_occ0.7_0.9s/images/train/n04379243_-7/n04379243_0/img_quatre_dining_table_17th_c._monastery_dining_table_2010_2000_gray.jpg,n04379243_-7,n04379243_0,fixed,0.832817,n04379243_0,Stimuli/psy_fixed_rotation_30_objects_occ0.7_0.9s/images/train/n04379243_-7/n04379243_0/img_quatre_dining_table_17th_c._monastery_dining_table_2010_2000-3_gray.png,foreground,same as foreground,n04379243_-7,n02818832_0,Stimuli/canonical view 2/img_n04379243_-7_gray.jpg,Stimuli/canonical view 2/img_n02818832_0_gray.jpg,random,left,Experiments/experiment_43/188.jpg,Experiments/experiment_43/189.jpg,Experiments/experiment_43/190.jpg,Experiments/experiment_43/191.jpg,899,1,2023-09-17_11h40.32.452,Occlusion_Psychophysics,2022.1.4,MacIntel,59.99520038,,,right,"[""right""]",[0.9411999999879299],False,,0.0,0.0,47.0,47.0,47.0,1.0,,,,,,
,,,,,,,,,,,,,,,,,,,,,0.025,,,,,,,,,,Stimuli/psy_fixed_rotation_30_objects_occ0.7_0.9s/images/train/n02828884_9/n04256520_5/img_cr-96_bench_meridiani_belmondo_bench_sofa_2011_gray.jpg,n02828884_9,n04256520_5,fixed,0.745736,n04256520_5,Stimuli/psy_fixed_rotation_30_objects_occ0.7_0.9s/images/train/n02828884_9/n04256520_5/img_cr-96_bench_meridiani_belmondo_bench_sofa_2011-3_gray.png,foreground,same as foreground,n02828884_9,n02828884_3,Stimuli/canonical view 2/img_n02828884_9_gray.jpg,Stimuli/canonical view 2/img_n02828884_3_gray.jpg,random,left,Experiments/experiment_43/192.jpg,Experiments/experiment_43/193.jpg,Experiments/experiment_43/194.jpg,Experiments/experiment_43/195.jpg,899,1,2023-09-17_11h40.32.452,Occlusion_Psychophysics,2022.1.4,MacIntel,59.99520038,,,left,"[""left""]",[0.5715000000000146],False,,0.0,0.0,48.0,48.0,48.0,1.0,,,,,,
,,,,,,,,,,,,,,,,,,,,,0.025,,,,,,,,,,Stimuli/psy_flexible_rotation_30_objects_occ0.7_0.9s/images/train/n02818832_9/n04405907_5/img_bed01_blue_samsung_40_uhd_smart_tv_2011_2005_gray.jpg,n02818832_9,n04405907_5,flexible,0.706463,n04405907_8,Stimuli/psy_flexible_rotation_30_objects_occ0.7_0.9s/images/train/n04379243_-7/n04405907_8/img_quatre_dining_table_stylized_tv_2008-3_gray.png,random,flexible,n02818832_9,n04405907_5,Stimuli/canonical view 2/img_n02818832_9_gray.jpg,Stimuli/canonical view 2/img_n04405907_5_gray.jpg,foreground,right,Experiments/experiment_43/196.jpg,Experiments/experiment_43/197.jpg,Experiments/experiment_43/198.jpg,Experiments/experiment_43/199.jpg,899,1,2023-09-17_11h40.32.452,Occlusion_Psychophysics,2022.1.4,MacIntel,59.99520038,,,left,"[""right""]",[1.074299999997038],False,,0.0,0.0,49.0,49.0,49.0,1.0,,,,,,
,,,,,,,,,,,,,,,,,,,,,0.05,,,,,,,,,,Stimuli/psy_fixed_rotation_30_objects_occ0.7_0.9s/images/train/n03928116_0/n02883344_15/img_b02_piano_microwave_box_2007_gray.jpg,n03928116_0,n02883344_15,fixed,0.740612,n02818832_0,Stimuli/psy_flexible_rotation_30_objects_occ0.7_0.9s/images/train/n02828884_3/n02818832_0/img_b04_wood_metal_park_bench_b03_the_sofa_and_chair_company_-_stanley_bed_2014_2006-3_gray.png,random,flexible,n03928116_0,n02828884_4,Stimuli/canonical view 2/img_n03928116_0_gray.jpg,Stimuli/canonical view 2/img_n02828884_4_gray.jpg,random,right,Experiments/experiment_43/200.jpg,Experiments/experiment_43/201.jpg,Experiments/experiment_43/202.jpg,Experiments/experiment_43/203.jpg,899,1,2023-09-17_11h40.32.452,Occlusion_Psychophysics,2022.1.4,MacIntel,59.99520038,,,right,"[""right""]",[0.5830000000000837],False,,0.0,0.0,50.0,50.0,50.0,1.0,,,,,,
,,,,,,,,,,,,,,,,,,,,,0.025,,,,,,,,,,Stimuli/psy_fixed_rotation_30_objects_occ0.7_0.9s/images/train/n04405907_8/n02818832_0/img_stylized_tv_b03_the_sofa_and_chair_company_-_stanley_bed_2014_2006_gray.jpg,n04405907_8,n02818832_0,fixed,0.703205,n02818832_0,Stimuli/psy_fixed_rotation_30_objects_occ0.7_0.9s/images/train/n04405907_8/n02818832_0/img_stylized_tv_b03_the_sofa_and_chair_company_-_stanley_bed_2014_2006-3_gray.png,foreground,same as foreground,n04405907_8,n02818832_0,Stimuli/canonical view 2/img_n04405907_8_gray.jpg,Stimuli/canonical view 2/img_n02818832_0_gray.jpg,foreground,left,Experiments/experiment_43/204.jpg,Experiments/experiment_43/205.jpg,Experiments/experiment_43/206.jpg,Experiments/experiment_43/207.jpg,899,1,2023-09-17_11h40.32.452,Occlusion_Psychophysics,2022.1.4,MacIntel,59.99520038,,,left,"[""left""]",[0.525299999996605],False,,0.0,0.0,51.0,51.0,51.0,1.0,,,,,,
,,,,,,,,,,,,,,,,,,,,,0.025,,,,,,,,,,Stimuli/psy_fixed_rotation_30_objects_occ0.7_0.9s/images/train/n03928116_0/n04256520_4/img_b02_piano_club_house_italia_nautilus_sofa_2008_gray.jpg,n03928116_0,n04256520_4,fixed,0.749671,n04256520_9,Stimuli/psy_fixed_rotation_30_objects_occ0.7_0.9s/images/train/n03928116_4/n04256520_9/img_dp_33_b_2013__vray_napoleon_iii_sofa_2001-3_gray.png,random,fixed,n03928116_0,n04256520_4,Stimuli/canonical view 2/img_n03928116_0_gray.jpg,Stimuli/canonical view 2/img_n04256520_4_gray.jpg,foreground,left,Experiments/experiment_43/208.jpg,Experiments/experiment_43/209.jpg,Experiments/experiment_43/210.jpg,Experiments/experiment_43/211.jpg,899,1,2023-09-17_11h40.32.452,Occlusion_Psychophysics,2022.1.4,MacIntel,59.99520038,,,left,"[""left""]",[0.6381999999880463],False,,0.0,0.0,52.0,52.0,52.0,1.0,,,,,,
,,,,,,,,,,,,,,,,,,,,,0.05,,,,,,,,,,Stimuli/psy_flexible_rotation_30_objects_occ0.7_0.9s/images/train/n02933112_-18/n02818832_9/img_cgaxis_models_48_26_vray_composite_bed01_blue_2000_gray.jpg,n02933112_-18,n02818832_9,flexible,0.777685,n02818832_9,Stimuli/psy_flexible_rotation_30_objects_occ0.7_0.9s/images/train/n02933112_-18/n02818832_9/img_cgaxis_models_48_26_vray_composite_bed01_blue_2000-3_gray.png,foreground,same as foreground,n02933112_-18,n02818832_0,Stimuli/canonical view 2/img_n02933112_-18_gray.jpg,Stimuli/canonical view 2/img_n02818832_0_gray.jpg,random,left,Experiments/experiment_43/212.jpg,Experiments/experiment_43/213.jpg,Experiments/experiment_43/214.jpg,Experiments/experiment_43/215.jpg,899,1,2023-09-17_11h40.32.452,Occlusion_Psychophysics,2022.1.4,MacIntel,59.99520038,,,right,"[""left""]",[0.7055999999938649],False,,0.0,0.0,53.0,53.0,53.0,1.0,,,,,,
,,,,,,,,,,,,,,,,,,,,,0.05,,,,,,,,,,Stimuli/psy_flexible_rotation_30_objects_occ0.7_0.9s/images/train/n02883344_15/n04379243_-7/img_microwave_box_quatre_dining_table_2015_gray.jpg,n02883344_15,n04379243_-7,flexible,0.714842,n02828884_3,Stimuli/psy_fixed_rotation_30_objects_occ0.7_0.9s/images/train/n02828884_3/n02828884_3/img_b04_wood_metal_park_bench_b04_wood_metal_park_bench_2003-3_gray.png,random,fixed,n02883344_15,n04379243_-7,Stimuli/canonical view 2/img_n02883344_15_gray.jpg,Stimuli/canonical view 2/img_n04379243_-7_gray.jpg,foreground,right,Experiments/experiment_43/216.jpg,Experiments/experiment_43/217.jpg,Experiments/experiment_43/218.jpg,Experiments/experiment_43/219.jpg,899,1,2023-09-17_11h40.32.452,Occlusion_Psychophysics,2022.1.4,MacIntel,59.99520038,,,right,"[""right""]",[0.5136999999881482],False,,0.0,0.0,54.0,54.0,54.0,1.0,,,,,,
,,,,,,,,,,,,,,,,,,,,,0.05,,,,,,,,,,Stimuli/psy_fixed_rotation_30_objects_occ0.7_0.9s/images/train/n04256520_9/n02883344_0/img_napoleon_iii_sofa_b03_box_2008_gray.jpg,n04256520_9,n02883344_0,fixed,0.706093,n02883344_0,Stimuli/psy_fixed_rotation_30_objects_occ0.7_0.9s/images/train/n04256520_9/n02883344_0/img_napoleon_iii_sofa_b03_box_2008-3_gray.png,foreground,same as foreground,n04256520_9,n03928116_4,Stimuli/canonical view 2/img_n04256520_9_gray.jpg,Stimuli/canonical view 2/img_n03928116_4_gray.jpg,random,left,Experiments/experiment_43/220.jpg,Experiments/experiment_43/221.jpg,Experiments/experiment_43/222.jpg,Experiments/experiment_43/223.jpg,899,1,2023-09-17_11h40.32.452,Occlusion_Psychophysics,2022.1.4,MacIntel,59.99520038,,,left,"[""left""]",[0.6074000000057822],False,,0.0,0.0,55.0,55.0,55.0,1.0,,,,,,
,,,,,,,,,,,,,,,,,,,,,0.05,,,,,,,,,,Stimuli/psy_flexible_rotation_30_objects_occ0.7_0.9s/images/train/n02818832_3/n04405907_9/img_b05_ccm_contemporary_bed_max2013_vray_004_2014_gray.jpg,n02818832_3,n04405907_9,flexible,0.846608,n02883344_0,Stimuli/psy_fixed_rotation_30_objects_occ0.7_0.9s/images/train/n02818832_3/n02883344_0/img_b05_ccm_contemporary_bed_max2013_b03_box_2009-3_gray.png,random,fixed,n02818832_3,n02933112_-2,Stimuli/canonical view 2/img_n02818832_3_gray.jpg,Stimuli/canonical view 2/img_n02933112_-2_gray.jpg,random,left,Experiments/experiment_43/224.jpg,Experiments/experiment_43/225.jpg,Experiments/experiment_43/226.jpg,Experiments/experiment_43/227.jpg,899,1,2023-09-17_11h40.32.452,Occlusion_Psychophysics,2022.1.4,MacIntel,59.99520038,,,left,"[""left""]",[0.6926999999882355],True,right,1.0,0.0,56.0,56.0,56.0,1.0,0.6536,,,,,
,,,,,,,,,,,,,,,,,,,,,0.05,,,,,,,,,,Stimuli/psy_flexible_rotation_30_objects_occ0.7_0.9s/images/train/n04256520_5/n02818832_0/img_meridiani_belmondo_bench_sofa_b03_the_sofa_and_chair_company_-_stanley_bed_2014_2005_gray.jpg,n04256520_5,n02818832_0,flexible,0.748076,n04405907_8,Stimuli/psy_flexible_rotation_30_objects_occ0.7_0.9s/images/train/n02933112_4/n04405907_8/img_buffet_stylized_tv_2004-3_gray.png,random,flexible,n04256520_5,n04405907_9,Stimuli/canonical view 2/img_n04256520_5_gray.jpg,Stimuli/canonical view 2/img_n04405907_9_gray.jpg,random,left,Experiments/experiment_43/228.jpg,Experiments/experiment_43/229.jpg,Experiments/experiment_43/230.jpg,Experiments/experiment_43/231.jpg,899,1,2023-09-17_11h40.32.452,Occlusion_Psychophysics,2022.1.4,MacIntel,59.99520038,,,left,"[""left""]",[0.6263999999910084],False,,0.0,0.0,57.0,57.0,57.0,1.0,,,,,,
,,,,,,,,,,,,,,,,,,,,,0.025,,,,,,,,,,Stimuli/psy_fixed_rotation_30_objects_occ0.7_0.9s/images/train/n03001627_9/n02933112_-18/img_chair_eames_plastic_armchair_cgaxis_models_48_26_vray_composite_2005_gray.jpg,n03001627_9,n02933112_-18,fixed,0.8827,n02933112_-18,Stimuli/psy_fixed_rotation_30_objects_occ0.7_0.9s/images/train/n03001627_9/n02933112_-18/img_chair_eames_plastic_armchair_cgaxis_models_48_26_vray_composite_2005-3_gray.png,foreground,same as foreground,n03001627_9,n03001627_8,Stimuli/canonical view 2/img_n03001627_9_gray.jpg,Stimuli/canonical view 2/img_n03001627_8_gray.jpg,random,left,Experiments/experiment_43/232.jpg,Experiments/experiment_43/233.jpg,Experiments/experiment_43/234.jpg,Experiments/experiment_43/235.jpg,899,1,2023-09-17_11h40.32.452,Occlusion_Psychophysics,2022.1.4,MacIntel,59.99520038,,,left,"[""right""]",[0.657900000006066],False,,0.0,0.0,58.0,58.0,58.0,1.0,,,,,,
,,,,,,,,,,,,,,,,,,,,,0.025,,,,,,,,,,Stimuli/psy_fixed_rotation_30_objects_occ0.7_0.9s/images/train/n02883344_-1/n02933112_4/img_woven_box_buffet_2001_gray.jpg,n02883344_-1,n02933112_4,fixed,0.810702,n02933112_4,Stimuli/psy_fixed_rotation_30_objects_occ0.7_0.9s/images/train/n02883344_-1/n02933112_4/img_woven_box_buffet_2001-3_gray.png,foreground,same as foreground,n02883344_-1,n04405907_8,Stimuli/canonical view 2/img_n02883344_-1_gray.jpg,Stimuli/canonical view 2/img_n04405907_8_gray.jpg,random,left,Experiments/experiment_43/236.jpg,Experiments/experiment_43/237.jpg,Experiments/experiment_43/238.jpg,Experiments/experiment_43/239.jpg,899,1,2023-09-17_11h40.32.452,Occlusion_Psychophysics,2022.1.4,MacIntel,59.99520038,,,right,"[""right""]",[0.6447999999968488],False,,0.0,0.0,59.0,59.0,59.0,1.0,,,,,,
,,,,,,,,,,,,,,,,,,,,,0.05,,,,,,,,,,Stimuli/psy_fixed_rotation_30_objects_occ0.7_0.9s/images/train/n02828884_4/n02883344_-1/img_b05_c-5_classic_series_bench-2012_woven_box_2002_gray.jpg,n02828884_4,n02883344_-1,fixed,0.707889,n04405907_8,Stimuli/psy_flexible_rotation_30_objects_occ0.7_0.9s/images/train/n04405907_9/n04405907_8/img_vray_004_stylized_tv_2015-3_gray.png,random,flexible,n02828884_4,n04379243_8,Stimuli/canonical view 2/img_n02828884_4_gray.jpg,Stimuli/canonical view 2/img_n04379243_8_gray.jpg,random,left,Experiments/experiment_43/240.jpg,Experiments/experiment_43/241.jpg,Experiments/experiment_43/242.jpg,Experiments/experiment_43/243.jpg,899,1,2023-09-17_11h40.32.452,Occlusion_Psychophysics,2022.1.4,MacIntel,59.99520038,,,left,"[""left""]",[0.6090000000003783],False,,0.0,0.0,60.0,60.0,60.0,1.0,,,,,,
,,,,,,,,,,,,,,,,,,,,,0.025,,,,,,,,,,Stimuli/psy_flexible_rotation_30_objects_occ0.7_0.9s/images/train/n02933112_-2/n04405907_8/img_sink_base_white_wood_stylized_tv_2010_gray.jpg,n02933112_-2,n04405907_8,flexible,0.794372,n04405907_8,Stimuli/psy_flexible_rotation_30_objects_occ0.7_0.9s/images/train/n02933112_-2/n04405907_8/img_sink_base_white_wood_stylized_tv_2010-3_gray.png,foreground,same as foreground,n02933112_-2,n04405907_8,Stimuli/canonical view 2/img_n02933112_-2_gray.jpg,Stimuli/canonical view 2/img_n04405907_8_gray.jpg,foreground,left,Experiments/experiment_43/244.jpg,Experiments/experiment_43/245.jpg,Experiments/experiment_43/246.jpg,Experiments/experiment_43/247.jpg,899,1,2023-09-17_11h40.32.452,Occlusion_Psychophysics,2022.1.4,MacIntel,59.99520038,,,right,"[""right""]",[0.6287999999967724],False,,0.0,0.0,61.0,61.0,61.0,1.0,,,,,,
,,,,,,,,,,,,,,,,,,,,,0.05,,,,,,,,,,Stimuli/psy_fixed_rotation_30_objects_occ0.7_0.9s/images/train/n04256520_9/n02818832_3/img_napoleon_iii_sofa_b05_ccm_contemporary_bed_max2013_2012_gray.jpg,n04256520_9,n02818832_3,fixed,0.812779,n04379243_-7,Stimuli/psy_fixed_rotation_30_objects_occ0.7_0.9s/images/train/n04379243_8/n04379243_-7/img_glass_table_quatre_dining_table_2001-3_gray.png,random,fixed,n04256520_9,n03928116_4,Stimuli/canonical view 2/img_n04256520_9_gray.jpg,Stimuli/canonical view 2/img_n03928116_4_gray.jpg,random,left,Experiments/experiment_43/248.jpg,Experiments/experiment_43/249.jpg,Experiments/experiment_43/250.jpg,Experiments/experiment_43/251.jpg,899,1,2023-09-17_11h40.32.452,Occlusion_Psychophysics,2022.1.4,MacIntel,59.99520038,,,right,"[""right""]",[0.5435000000002219],False,,0.0,0.0,62.0,62.0,62.0,1.0,,,,,,
,,,,,,,,,,,,,,,,,,,,,0.025,,,,,,,,,,Stimuli/psy_fixed_rotation_30_objects_occ0.7_0.9s/images/train/n02828884_3/n03928116_0/img_b04_wood_metal_park_bench_b02_piano_2007_gray.jpg,n02828884_3,n03928116_0,fixed,0.702116,n03928116_0,Stimuli/psy_fixed_rotation_30_objects_occ0.7_0.9s/images/train/n02828884_3/n03928116_0/img_b04_wood_metal_park_bench_b02_piano_2007-3_gray.png,foreground,same as foreground,n02828884_3,n03928116_0,Stimuli/canonical view 2/img_n02828884_3_gray.jpg,Stimuli/canonical view 2/img_n03928116_0_gray.jpg,foreground,right,Experiments/experiment_43/252.jpg,Experiments/experiment_43/253.jpg,Experiments/experiment_43/254.jpg,Experiments/experiment_43/255.jpg,899,1,2023-09-17_11h40.32.452,Occlusion_Psychophysics,2022.1.4,MacIntel,59.99520038,,,left,"[""right""]",[1.0909999999998945],False,,0.0,0.0,63.0,63.0,63.0,1.0,,,,,,
,,,,,,,,,,,,,,,,,,,,,0.025,,,,,,,,,,Stimuli/psy_flexible_rotation_30_objects_occ0.7_0.9s/images/train/n02818832_3/n02828884_3/img_b05_ccm_contemporary_bed_max2013_b04_wood_metal_park_bench_2014_gray.jpg,n02818832_3,n02828884_3,flexible,0.70087,n02883344_15,Stimuli/psy_fixed_rotation_30_objects_occ0.7_0.9s/images/train/n02933112_-18/n02883344_15/img_cgaxis_models_48_26_vray_composite_microwave_box_2008-3_gray.png,random,fixed,n02818832_3,n04405907_8,Stimuli/canonical view 2/img_n02818832_3_gray.jpg,Stimuli/canonical view 2/img_n04405907_8_gray.jpg,random,right,Experiments/experiment_43/256.jpg,Experiments/experiment_43/257.jpg,Experiments/experiment_43/258.jpg,Experiments/experiment_43/259.jpg,899,1,2023-09-17_11h40.32.452,Occlusion_Psychophysics,2022.1.4,MacIntel,59.99520038,,,right,"[""right""]",[0.5867999999968561],False,,0.0,0.0,64.0,64.0,64.0,1.0,,,,,,
,,,,,,,,,,,,,,,,,,,,,0.025,,,,,,,,,,Stimuli/psy_flexible_rotation_30_objects_occ0.7_0.9s/images/train/n03928116_10/n03928116_4/img_ydp_103_r_2012__vray_dp_33_b_2013__vray_2000_gray.jpg,n03928116_10,n03928116_4,flexible,0.756005,n02933112_-2,Stimuli/psy_flexible_rotation_30_objects_occ0.7_0.9s/images/train/n03928116_0/n02933112_-2/img_b02_piano_sink_base_white_wood_2015-3_gray.png,random,flexible,n03928116_10,n03928116_4,Stimuli/canonical view 2/img_n03928116_10_gray.jpg,Stimuli/canonical view 2/img_n03928116_4_gray.jpg,foreground,right,Experiments/experiment_43/260.jpg,Experiments/experiment_43/261.jpg,Experiments/experiment_43/262.jpg,Experiments/experiment_43/263.jpg,899,1,2023-09-17_11h40.32.452,Occlusion_Psychophysics,2022.1.4,MacIntel,59.99520038,,,left,"[""right""]",[1.2607999999968342],False,,0.0,0.0,65.0,65.0,65.0,1.0,,,,,,
,,,,,,,,,,,,,,,,,,,,,0.025,,,,,,,,,,Stimuli/psy_flexible_rotation_30_objects_occ0.7_0.9s/images/train/n02933112_4/n02883344_15/img_buffet_microwave_box_2015_gray.jpg,n02933112_4,n02883344_15,flexible,0.85183,n02883344_15,Stimuli/psy_flexible_rotation_30_objects_occ0.7_0.9s/images/train/n02933112_4/n02883344_15/img_buffet_microwave_box_2015-3_gray.png,foreground,same as foreground,n02933112_4,n02883344_15,Stimuli/canonical view 2/img_n02933112_4_gray.jpg,Stimuli/canonical view 2/img_n02883344_15_gray.jpg,foreground,right,Experiments/experiment_43/264.jpg,Experiments/experiment_43/265.jpg,Experiments/experiment_43/266.jpg,Experiments/experiment_43/267.jpg,899,1,2023-09-17_11h40.32.452,Occlusion_Psychophysics,2022.1.4,MacIntel,59.99520038,,,right,"[""right""]",[0.7100000000000364],False,,0.0,0.0,66.0,66.0,66.0,1.0,,,,,,
,,,,,,,,,,,,,,,,,,,,,0.05,,,,,,,,,,Stimuli/psy_flexible_rotation_30_objects_occ0.7_0.9s/images/train/n03928116_10/n02933112_-2/img_ydp_103_r_2012__vray_sink_base_white_wood_2008_gray.jpg,n03928116_10,n02933112_-2,flexible,0.712058,n04379243_-7,Stimuli/psy_flexible_rotation_30_objects_occ0.7_0.9s/images/train/n02818832_9/n04379243_-7/img_bed01_blue_quatre_dining_table_2002-3_gray.png,random,flexible,n03928116_10,n03001627_-2,Stimuli/canonical view 2/img_n03928116_10_gray.jpg,Stimuli/canonical view 2/img_n03001627_-2_gray.jpg,random,left,Experiments/experiment_43/268.jpg,Experiments/experiment_43/269.jpg,Experiments/experiment_43/270.jpg,Experiments/experiment_43/271.jpg,899,1,2023-09-17_11h40.32.452,Occlusion_Psychophysics,2022.1.4,MacIntel,59.99520038,,,left,"[""left""]",[0.6735999999937121],False,,0.0,0.0,67.0,67.0,67.0,1.0,,,,,,
,,,,,,,,,,,,,,,,,,,,,0.025,,,,,,,,,,Stimuli/psy_fixed_rotation_30_objects_occ0.7_0.9s/images/train/n02818832_0/n02933112_-18/img_b03_the_sofa_and_chair_company_-_stanley_bed_2014_cgaxis_models_48_26_vray_composite_2008_gray.jpg,n02818832_0,n02933112_-18,fixed,0.720714,n02883344_-1,Stimuli/psy_fixed_rotation_30_objects_occ0.7_0.9s/images/train/n04379243_-7/n02883344_-1/img_quatre_dining_table_woven_box_2005-3_gray.png,random,fixed,n02818832_0,n02933112_-18,Stimuli/canonical view 2/img_n02818832_0_gray.jpg,Stimuli/canonical view 2/img_n02933112_-18_gray.jpg,foreground,left,Experiments/experiment_43/272.jpg,Experiments/experiment_43/273.jpg,Experiments/experiment_43/274.jpg,Experiments/experiment_43/275.jpg,899,1,2023-09-17_11h40.32.452,Occlusion_Psychophysics,2022.1.4,MacIntel,59.99520038,,,right,"[""left""]",[0.9541000000090207],False,,0.0,0.0,68.0,68.0,68.0,1.0,,,,,,
,,,,,,,,,,,,,,,,,,,,,0.05,,,,,,,,,,Stimuli/psy_fixed_rotation_30_objects_occ0.7_0.9s/images/train/n04256520_5/n04405907_5/img_meridiani_belmondo_bench_sofa_samsung_40_uhd_smart_tv_2011_2011_gray.jpg,n04256520_5,n04405907_5,fixed,0.725331,n04379243_-7,Stimuli/psy_fixed_rotation_30_objects_occ0.7_0.9s/images/train/n02818832_3/n04379243_-7/img_b05_ccm_contemporary_bed_max2013_quatre_dining_table_2012-3_gray.png,random,fixed,n04256520_5,n03928116_10,Stimuli/canonical view 2/img_n04256520_5_gray.jpg,Stimuli/canonical view 2/img_n03928116_10_gray.jpg,random,right,Experiments/experiment_43/276.jpg,Experiments/experiment_43/277.jpg,Experiments/experiment_43/278.jpg,Experiments/experiment_43/279.jpg,899,1,2023-09-17_11h40.32.452,Occlusion_Psychophysics,2022.1.4,MacIntel,59.99520038,,,right,"[""right""]",[0.5425000000000182],False,,0.0,0.0,69.0,69.0,69.0,1.0,,,,,,
,,,,,,,,,,,,,,,,,,,,,0.05,,,,,,,,,,Stimuli/psy_fixed_rotation_30_objects_occ0.7_0.9s/images/train/n02933112_4/n04379243_0/img_buffet_17th_c._monastery_dining_table_2010_2009_gray.jpg,n02933112_4,n04379243_0,fixed,0.793746,n02933112_-18,Stimuli/psy_fixed_rotation_30_objects_occ0.7_0.9s/images/train/n02883344_0/n02933112_-18/img_b03_box_cgaxis_models_48_26_vray_composite_2015-3_gray.png,random,fixed,n02933112_4,n02818832_3,Stimuli/canonical view 2/img_n02933112_4_gray.jpg,Stimuli/canonical view 2/img_n02818832_3_gray.jpg,random,right,Experiments/experiment_43/280.jpg,Experiments/experiment_43/281.jpg,Experiments/experiment_43/282.jpg,Experiments/experiment_43/283.jpg,899,1,2023-09-17_11h40.32.452,Occlusion_Psychophysics,2022.1.4,MacIntel,59.99520038,,,left,"[""right""]",[1.0410000000001673],False,,0.0,0.0,70.0,70.0,70.0,1.0,,,,,,
,,,,,,,,,,,,,,,,,,,,,0.05,,,,,,,,,,Stimuli/psy_fixed_rotation_30_objects_occ0.7_0.9s/images/train/n03928116_4/n03928116_10/img_dp_33_b_2013__vray_ydp_103_r_2012__vray_2011_gray.jpg,n03928116_4,n03928116_10,fixed,0.772634,n04256520_4,Stimuli/psy_fixed_rotation_30_objects_occ0.7_0.9s/images/train/n03928116_10/n04256520_4/img_ydp_103_r_2012__vray_club_house_italia_nautilus_sofa_2007-3_gray.png,random,fixed,n03928116_4,n02933112_-2,Stimuli/canonical view 2/img_n03928116_4_gray.jpg,Stimuli/canonical view 2/img_n02933112_-2_gray.jpg,random,right,Experiments/experiment_43/284.jpg,Experiments/experiment_43/285.jpg,Experiments/experiment_43/286.jpg,Experiments/experiment_43/287.jpg,899,1,2023-09-17_11h40.32.452,Occlusion_Psychophysics,2022.1.4,MacIntel,59.99520038,,,right,"[""right""]",[1.27599999999984],False,,0.0,0.0,71.0,71.0,71.0,1.0,,,,,,
,,,,,,,,,,,,,,,,,,,,,0.05,,,,,,,,,,Stimuli/psy_flexible_rotation_30_objects_occ0.7_0.9s/images/train/n04405907_8/n02818832_3/img_stylized_tv_b05_ccm_contemporary_bed_max2013_2003_gray.jpg,n04405907_8,n02818832_3,flexible,0.867576,n02818832_3,Stimuli/psy_flexible_rotation_30_objects_occ0.7_0.9s/images/train/n04405907_8/n02818832_3/img_stylized_tv_b05_ccm_contemporary_bed_max2013_2003-3_gray.png,foreground,same as foreground,n04405907_8,n02818832_3,Stimuli/canonical view 2/img_n04405907_8_gray.jpg,Stimuli/canonical view 2/img_n02818832_3_gray.jpg,foreground,right,Experiments/experiment_43/288.jpg,Experiments/experiment_43/289.jpg,Experiments/experiment_43/290.jpg,Experiments/experiment_43/291.jpg,899,1,2023-09-17_11h40.32.452,Occlusion_Psychophysics,2022.1.4,MacIntel,59.99520038,,,left,"[""left""]",[1.5982000000026346],False,,0.0,0.0,72.0,72.0,72.0,1.0,,,,,,
,,,,,,,,,,,,,,,,,,,,,0.025,,,,,,,,,,Stimuli/psy_fixed_rotation_30_objects_occ0.7_0.9s/images/train/n02828884_4/n02883344_15/img_b05_c-5_classic_series_bench-2012_microwave_box_2004_gray.jpg,n02828884_4,n02883344_15,fixed,0.728984,n04405907_8,Stimuli/psy_fixed_rotation_30_objects_occ0.7_0.9s/images/train/n02883344_15/n04405907_8/img_microwave_box_stylized_tv_2014-3_gray.png,random,fixed,n02828884_4,n03001627_8,Stimuli/canonical view 2/img_n02828884_4_gray.jpg,Stimuli/canonical view 2/img_n03001627_8_gray.jpg,random,right,Experiments/experiment_43/292.jpg,Experiments/experiment_43/293.jpg,Experiments/experiment_43/294.jpg,Experiments/experiment_43/295.jpg,899,1,2023-09-17_11h40.32.452,Occlusion_Psychophysics,2022.1.4,MacIntel,59.99520038,,,right,"[""right""]",[0.6118000000119537],False,,0.0,0.0,73.0,73.0,73.0,1.0,,,,,,
,,,,,,,,,,,,,,,,,,,,,0.05,,,,,,,,,,Stimuli/psy_flexible_rotation_30_objects_occ0.7_0.9s/images/train/n02828884_3/n04256520_4/img_b04_wood_metal_park_bench_club_house_italia_nautilus_sofa_2004_gray.jpg,n02828884_3,n04256520_4,flexible,0.78395,n04256520_4,Stimuli/psy_flexible_rotation_30_objects_occ0.7_0.9s/images/train/n02828884_3/n04256520_4/img_b04_wood_metal_park_bench_club_house_italia_nautilus_sofa_2004-3_gray.png,foreground,same as foreground,n02828884_3,n04256520_4,Stimuli/canonical view 2/img_n02828884_3_gray.jpg,Stimuli/canonical view 2/img_n04256520_4_gray.jpg,foreground,right,Experiments/experiment_43/296.jpg,Experiments/experiment_43/297.jpg,Experiments/experiment_43/298.jpg,Experiments/experiment_43/299.jpg,899,1,2023-09-17_11h40.32.452,Occlusion_Psychophysics,2022.1.4,MacIntel,59.99520038,,,right,"[""right""]",[0.6449999999999818],False,,0.0,0.0,74.0,74.0,74.0,1.0,,,,,,
,,,,,,,,,,,,,,,,,,,,,0.05,,,,,,,,,,Stimuli/psy_flexible_rotation_30_objects_occ0.7_0.9s/images/train/n04379243_-7/n02883344_15/img_quatre_dining_table_microwave_box_2011_gray.jpg,n04379243_-7,n02883344_15,flexible,0.810965,n03928116_4,Stimuli/psy_flexible_rotation_30_objects_occ0.7_0.9s/images/train/n02883344_-1/n03928116_4/img_woven_box_dp_33_b_2013__vray_2002-3_gray.png,random,flexible,n04379243_-7,n02883344_15,Stimuli/canonical view 2/img_n04379243_-7_gray.jpg,Stimuli/canonical view 2/img_n02883344_15_gray.jpg,foreground,left,Experiments/experiment_43/300.jpg,Experiments/experiment_43/301.jpg,Experiments/experiment_43/302.jpg,Experiments/experiment_43/303.jpg,899,1,2023-09-17_11h40.32.452,Occlusion_Psychophysics,2022.1.4,MacIntel,59.99520038,,,left,"[""right""]",[0.6753999999909865],False,,0.0,0.0,75.0,75.0,75.0,1.0,,,,,,
,,,,,,,,,,,,,,,,,,,,,0.05,,,,,,,,,,Stimuli/psy_flexible_rotation_30_objects_occ0.7_0.9s/images/train/n04256520_9/n04405907_5/img_napoleon_iii_sofa_samsung_40_uhd_smart_tv_2011_2002_gray.jpg,n04256520_9,n04405907_5,flexible,0.726113,n02818832_3,Stimuli/psy_flexible_rotation_30_objects_occ0.7_0.9s/images/train/n02818832_9/n02818832_3/img_bed01_blue_b05_ccm_contemporary_bed_max2013_2011-3_gray.png,random,flexible,n04256520_9,n04405907_5,Stimuli/canonical view 2/img_n04256520_9_gray.jpg,Stimuli/canonical view 2/img_n04405907_5_gray.jpg,foreground,right,Experiments/experiment_43/304.jpg,Experiments/experiment_43/305.jpg,Experiments/experiment_43/306.jpg,Experiments/experiment_43/307.jpg,899,1,2023-09-17_11h40.32.452,Occlusion_Psychophysics,2022.1.4,MacIntel,59.99520038,,,left,"[""left""]",[0.7428000000118118],False,,0.0,0.0,76.0,76.0,76.0,1.0,,,,,,
,,,,,,,,,,,,,,,,,,,,,0.025,,,,,,,,,,Stimuli/psy_flexible_rotation_30_objects_occ0.7_0.9s/images/train/n03928116_0/n04405907_8/img_b02_piano_stylized_tv_2002_gray.jpg,n03928116_0,n04405907_8,flexible,0.72777,n04405907_8,Stimuli/psy_flexible_rotation_30_objects_occ0.7_0.9s/images/train/n03928116_0/n04405907_8/img_b02_piano_stylized_tv_2002-3_gray.png,foreground,same as foreground,n03928116_0,n02883344_-1,Stimuli/canonical view 2/img_n03928116_0_gray.jpg,Stimuli/canonical view 2/img_n02883344_-1_gray.jpg,random,left,Experiments/experiment_43/308.jpg,Experiments/experiment_43/309.jpg,Experiments/experiment_43/310.jpg,Experiments/experiment_43/311.jpg,899,1,2023-09-17_11h40.32.452,Occlusion_Psychophysics,2022.1.4,MacIntel,59.99520038,,,right,"[""right""]",[0.554399999990892],False,,0.0,0.0,77.0,77.0,77.0,1.0,,,,,,
,,,,,,,,,,,,,,,,,,,,,0.05,,,,,,,,,,Stimuli/psy_fixed_rotation_30_objects_occ0.7_0.9s/images/train/n04379243_-7/n03928116_10/img_quatre_dining_table_ydp_103_r_2012__vray_2007_gray.jpg,n04379243_-7,n03928116_10,fixed,0.723035,n03928116_10,Stimuli/psy_fixed_rotation_30_objects_occ0.7_0.9s/images/train/n04379243_-7/n03928116_10/img_quatre_dining_table_ydp_103_r_2012__vray_2007-3_gray.png,foreground,same as foreground,n04379243_-7,n03928116_10,Stimuli/canonical view 2/img_n04379243_-7_gray.jpg,Stimuli/canonical view 2/img_n03928116_10_gray.jpg,foreground,right,Experiments/experiment_43/312.jpg,Experiments/experiment_43/313.jpg,Experiments/experiment_43/314.jpg,Experiments/experiment_43/315.jpg,899,1,2023-09-17_11h40.32.452,Occlusion_Psychophysics,2022.1.4,MacIntel,59.99520038,,,right,"[""right""]",[0.6044000000056258],False,,0.0,0.0,78.0,78.0,78.0,1.0,,,,,,
,,,,,,,,,,,,,,,,,,,,,0.025,,,,,,,,,,Stimuli/psy_fixed_rotation_30_objects_occ0.7_0.9s/images/train/n03928116_4/n02818832_0/img_dp_33_b_2013__vray_b03_the_sofa_and_chair_company_-_stanley_bed_2014_2008_gray.jpg,n03928116_4,n02818832_0,fixed,0.703962,n03928116_4,Stimuli/psy_fixed_rotation_30_objects_occ0.7_0.9s/images/train/n04379243_0/n03928116_4/img_17th_c._monastery_dining_table_2010_dp_33_b_2013__vray_2008-3_gray.png,random,fixed,n03928116_4,n04256520_4,Stimuli/canonical view 2/img_n03928116_4_gray.jpg,Stimuli/canonical view 2/img_n04256520_4_gray.jpg,random,left,Experiments/experiment_43/316.jpg,Experiments/experiment_43/317.jpg,Experiments/experiment_43/318.jpg,Experiments/experiment_43/319.jpg,899,1,2023-09-17_11h40.32.452,Occlusion_Psychophysics,2022.1.4,MacIntel,59.99520038,,,right,"[""right""]",[0.6412999999970452],True,left,1.0,0.0,79.0,79.0,79.0,1.0,0.7307,,,,,
,,,,,,,,,,,,,,,,,,,,,0.025,,,,,,,,,,Stimuli/psy_flexible_rotation_30_objects_occ0.7_0.9s/images/train/n02818832_9/n02883344_0/img_bed01_blue_b03_box_2012_gray.jpg,n02818832_9,n02883344_0,flexible,0.712709,n02883344_0,Stimuli/psy_flexible_rotation_30_objects_occ0.7_0.9s/images/train/n02818832_9/n02883344_0/img_bed01_blue_b03_box_2012-3_gray.png,foreground,same as foreground,n02818832_9,n03928116_4,Stimuli/canonical view 2/img_n02818832_9_gray.jpg,Stimuli/canonical view 2/img_n03928116_4_gray.jpg,random,right,Experiments/experiment_43/320.jpg,Experiments/experiment_43/321.jpg,Experiments/experiment_43/322.jpg,Experiments/experiment_43/323.jpg,899,1,2023-09-17_11h40.32.452,Occlusion_Psychophysics,2022.1.4,MacIntel,59.99520038,,,left,"[""left""]",[0.8732000000027256],False,,0.0,0.0,80.0,80.0,80.0,1.0,,,,,,
,,,,,,,,,,,,,,,,,,,,,0.05,,,,,,,,,,Stimuli/psy_flexible_rotation_30_objects_occ0.7_0.9s/images/train/n02883344_0/n04256520_4/img_b03_box_club_house_italia_nautilus_sofa_2003_gray.jpg,n02883344_0,n04256520_4,flexible,0.89974,n04256520_4,Stimuli/psy_flexible_rotation_30_objects_occ0.7_0.9s/images/train/n02883344_0/n04256520_4/img_b03_box_club_house_italia_nautilus_sofa_2003-3_gray.png,foreground,same as foreground,n02883344_0,n04256520_9,Stimuli/canonical view 2/img_n02883344_0_gray.jpg,Stimuli/canonical view 2/img_n04256520_9_gray.jpg,random,right,Experiments/experiment_43/324.jpg,Experiments/experiment_43/325.jpg,Experiments/experiment_43/326.jpg,Experiments/experiment_43/327.jpg,899,1,2023-09-17_11h40.32.452,Occlusion_Psychophysics,2022.1.4,MacIntel,59.99520038,,,right,"[""left""]",[0.7523999999907574],False,,0.0,0.0,81.0,81.0,81.0,1.0,,,,,,
,,,,,,,,,,,,,,,,,,,,,0.05,,,,,,,,,,Stimuli/psy_fixed_rotation_30_objects_occ0.7_0.9s/images/train/n02818832_9/n02883344_15/img_bed01_blue_microwave_box_2011_gray.jpg,n02818832_9,n02883344_15,fixed,0.702061,n04256520_9,Stimuli/psy_fixed_rotation_30_objects_occ0.7_0.9s/images/train/n03928116_4/n04256520_9/img_dp_33_b_2013__vray_napoleon_iii_sofa_2008-3_gray.png,random,fixed,n02818832_9,n02883344_15,Stimuli/canonical view 2/img_n02818832_9_gray.jpg,Stimuli/canonical view 2/img_n02883344_15_gray.jpg,foreground,right,Experiments/experiment_43/328.jpg,Experiments/experiment_43/329.jpg,Experiments/experiment_43/330.jpg,Experiments/experiment_43/331.jpg,899,1,2023-09-17_11h40.32.452,Occlusion_Psychophysics,2022.1.4,MacIntel,59.99520038,,,left,"[""left""]",[0.8454999999999018],False,,0.0,0.0,82.0,82.0,82.0,1.0,,,,,,
,,,,,,,,,,,,,,,,,,,,,0.05,,,,,,,,,,Stimuli/psy_flexible_rotation_30_objects_occ0.7_0.9s/images/train/n02933112_-18/n02883344_15/img_cgaxis_models_48_26_vray_composite_microwave_box_2013_gray.jpg,n02933112_-18,n02883344_15,flexible,0.809789,n02828884_3,Stimuli/psy_fixed_rotation_30_objects_occ0.7_0.9s/images/train/n04070727_0/n02828884_3/img_b03_ka90ivi20r_2013__vray_b04_wood_metal_park_bench_2009-3_gray.png,random,fixed,n02933112_-18,n02883344_15,Stimuli/canonical view 2/img_n02933112_-18_gray.jpg,Stimuli/canonical view 2/img_n02883344_15_gray.jpg,foreground,left,Experiments/experiment_43/332.jpg,Experiments/experiment_43/333.jpg,Experiments/experiment_43/334.jpg,Experiments/experiment_43/335.jpg,899,1,2023-09-17_11h40.32.452,Occlusion_Psychophysics,2022.1.4,MacIntel,59.99520038,,,left,"[""right""]",[0.7457000000031258],False,,0.0,0.0,83.0,83.0,83.0,1.0,,,,,,
,,,,,,,,,,,,,,,,,,,,,0.025,,,,,,,,,,Stimuli/psy_fixed_rotation_30_objects_occ0.7_0.9s/images/train/n04405907_9/n03928116_4/img_vray_004_dp_33_b_2013__vray_2000_gray.jpg,n04405907_9,n03928116_4,fixed,0.701733,n02828884_4,Stimuli/psy_flexible_rotation_30_objects_occ0.7_0.9s/images/train/n02818832_0/n02828884_4/img_b03_the_sofa_and_chair_company_-_stanley_bed_2014_b05_c-5_classic_series_bench-2012_2010-3_gray.png,random,flexible,n04405907_9,n04256520_9,Stimuli/canonical view 2/img_n04405907_9_gray.jpg,Stimuli/canonical view 2/img_n04256520_9_gray.jpg,random,left,Experiments/experiment_43/336.jpg,Experiments/experiment_43/337.jpg,Experiments/experiment_43/338.jpg,Experiments/experiment_43/339.jpg,899,1,2023-09-17_11h40.32.452,Occlusion_Psychophysics,2022.1.4,MacIntel,59.99520038,,,left,"[""right""]",[0.5712999999968815],False,,0.0,0.0,84.0,84.0,84.0,1.0,,,,,,
,,,,,,,,,,,,,,,,,,,,,0.05,,,,,,,,,,Stimuli/psy_fixed_rotation_30_objects_occ0.7_0.9s/images/train/n02933112_4/n04379243_-7/img_buffet_quatre_dining_table_2007_gray.jpg,n02933112_4,n04379243_-7,fixed,0.707562,n04379243_-7,Stimuli/psy_fixed_rotation_30_objects_occ0.7_0.9s/images/train/n02933112_4/n04379243_-7/img_buffet_quatre_dining_table_2007-3_gray.png,foreground,same as foreground,n02933112_4,n04379243_-7,Stimuli/canonical view 2/img_n02933112_4_gray.jpg,Stimuli/canonical view 2/img_n04379243_-7_gray.jpg,foreground,left,Experiments/experiment_43/340.jpg,Experiments/experiment_43/341.jpg,Experiments/experiment_43/342.jpg,Experiments/experiment_43/343.jpg,899,1,2023-09-17_11h40.32.452,Occlusion_Psychophysics,2022.1.4,MacIntel,59.99520038,,,left,"[""left""]",[0.8727999999969143],False,,0.0,0.0,85.0,85.0,85.0,1.0,,,,,,
,,,,,,,,,,,,,,,,,,,,,0.05,,,,,,,,,,Stimuli/psy_fixed_rotation_30_objects_occ0.7_0.9s/images/train/n02818832_3/n03928116_4/img_b05_ccm_contemporary_bed_max2013_dp_33_b_2013__vray_2004_gray.jpg,n02818832_3,n03928116_4,fixed,0.711101,n02933112_-18,Stimuli/psy_flexible_rotation_30_objects_occ0.7_0.9s/images/train/n02828884_3/n02933112_-18/img_b04_wood_metal_park_bench_cgaxis_models_48_26_vray_composite_2010-3_gray.png,random,flexible,n02818832_3,n03928116_4,Stimuli/canonical view 2/img_n02818832_3_gray.jpg,Stimuli/canonical view 2/img_n03928116_4_gray.jpg,foreground,right,Experiments/experiment_43/344.jpg,Experiments/experiment_43/345.jpg,Experiments/experiment_43/346.jpg,Experiments/experiment_43/347.jpg,899,1,2023-09-17_11h40.32.452,Occlusion_Psychophysics,2022.1.4,MacIntel,59.99520038,,,left,"[""left""]",[1.0558999999911975],False,,0.0,0.0,86.0,86.0,86.0,1.0,,,,,,
,,,,,,,,,,,,,,,,,,,,,0.025,,,,,,,,,,Stimuli/psy_fixed_rotation_30_objects_occ0.7_0.9s/images/train/n02818832_9/n02828884_3/img_bed01_blue_b04_wood_metal_park_bench_2002_gray.jpg,n02818832_9,n02828884_3,fixed,0.758836,n02818832_9,Stimuli/psy_flexible_rotation_30_objects_occ0.7_0.9s/images/train/n02933112_-18/n02818832_9/img_cgaxis_models_48_26_vray_composite_bed01_blue_2005-3_gray.png,random,flexible,n02818832_9,n04405907_8,Stimuli/canonical view 2/img_n02818832_9_gray.jpg,Stimuli/canonical view 2/img_n04405907_8_gray.jpg,random,left,Experiments/experiment_43/348.jpg,Experiments/experiment_43/349.jpg,Experiments/experiment_43/350.jpg,Experiments/experiment_43/351.jpg,899,1,2023-09-17_11h40.32.452,Occlusion_Psychophysics,2022.1.4,MacIntel,59.99520038,,,right,"[""right""]",[0.7283999999908701],True,right,1.0,0.0,87.0,87.0,87.0,1.0,0.6863,,,,,
,,,,,,,,,,,,,,,,,,,,,0.025,,,,,,,,,,Stimuli/psy_fixed_rotation_30_objects_occ0.7_0.9s/images/train/n02883344_0/n03928116_0/img_b03_box_b02_piano_2007_gray.jpg,n02883344_0,n03928116_0,fixed,0.796458,n03928116_4,Stimuli/psy_fixed_rotation_30_objects_occ0.7_0.9s/images/train/n02883344_0/n03928116_4/img_b03_box_dp_33_b_2013__vray_2009-3_gray.png,random,fixed,n02883344_0,n03928116_0,Stimuli/canonical view 2/img_n02883344_0_gray.jpg,Stimuli/canonical view 2/img_n03928116_0_gray.jpg,foreground,left,Experiments/experiment_43/352.jpg,Experiments/experiment_43/353.jpg,Experiments/experiment_43/354.jpg,Experiments/experiment_43/355.jpg,899,1,2023-09-17_11h40.32.452,Occlusion_Psychophysics,2022.1.4,MacIntel,59.99520038,,,left,"[""left""]",[0.8415999999938322],False,,0.0,0.0,88.0,88.0,88.0,1.0,,,,,,
,,,,,,,,,,,,,,,,,,,,,0.05,,,,,,,,,,Stimuli/psy_flexible_rotation_30_objects_occ0.7_0.9s/images/train/n02933112_-2/n02818832_3/img_sink_base_white_wood_b05_ccm_contemporary_bed_max2013_2014_gray.jpg,n02933112_-2,n02818832_3,flexible,0.772819,n04405907_5,Stimuli/psy_fixed_rotation_30_objects_occ0.7_0.9s/images/train/n04379243_8/n04405907_5/img_glass_table_samsung_40_uhd_smart_tv_2011_2007-3_gray.png,random,fixed,n02933112_-2,n02818832_3,Stimuli/canonical view 2/img_n02933112_-2_gray.jpg,Stimuli/canonical view 2/img_n02818832_3_gray.jpg,foreground,left,Experiments/experiment_43/356.jpg,Experiments/experiment_43/357.jpg,Experiments/experiment_43/358.jpg,Experiments/experiment_43/359.jpg,899,1,2023-09-17_11h40.32.452,Occlusion_Psychophysics,2022.1.4,MacIntel,59.99520038,,,right,"[""right""]",[0.6817000000028202],False,,0.0,0.0,89.0,89.0,89.0,1.0,,,,,,
,,,,,,,,,,,,,,,,,,,,,0.025,,,,,,,,,,Stimuli/psy_flexible_rotation_30_objects_occ0.7_0.9s/images/train/n03001627_9/n02883344_-1/img_chair_eames_plastic_armchair_woven_box_2009_gray.jpg,n03001627_9,n02883344_-1,flexible,0.739754,n02883344_-1,Stimuli/psy_flexible_rotation_30_objects_occ0.7_0.9s/images/train/n03001627_9/n02883344_-1/img_chair_eames_plastic_armchair_woven_box_2009-3_gray.png,foreground,same as foreground,n03001627_9,n02883344_-1,Stimuli/canonical view 2/img_n03001627_9_gray.jpg,Stimuli/canonical view 2/img_n02883344_-1_gray.jpg,foreground,left,Experiments/experiment_43/360.jpg,Experiments/experiment_43/361.jpg,Experiments/experiment_43/362.jpg,Experiments/experiment_43/363.jpg,899,1,2023-09-17_11h40.32.452,Occlusion_Psychophysics,2022.1.4,MacIntel,59.99520038,,,right,"[""right""]",[1.2571999999881882],False,,0.0,0.0,90.0,90.0,90.0,1.0,,,,,,
,,,,,,,,,,,,,,,,,,,,,0.025,,,,,,,,,,Stimuli/psy_flexible_rotation_30_objects_occ0.7_0.9s/images/train/n02818832_0/n02933112_-2/img_b03_the_sofa_and_chair_company_-_stanley_bed_2014_sink_base_white_wood_2001_gray.jpg,n02818832_0,n02933112_-2,flexible,0.718196,n04256520_4,Stimuli/psy_flexible_rotation_30_objects_occ0.7_0.9s/images/train/n03928116_0/n04256520_4/img_b02_piano_club_house_italia_nautilus_sofa_2013-3_gray.png,random,flexible,n02818832_0,n02933112_-18,Stimuli/canonical view 2/img_n02818832_0_gray.jpg,Stimuli/canonical view 2/img_n02933112_-18_gray.jpg,random,right,Experiments/experiment_43/364.jpg,Experiments/experiment_43/365.jpg,Experiments/experiment_43/366.jpg,Experiments/experiment_43/367.jpg,899,1,2023-09-17_11h40.32.452,Occlusion_Psychophysics,2022.1.4,MacIntel,59.99520038,,,right,"[""left""]",[1.343299999996816],False,,0.0,0.0,91.0,91.0,91.0,1.0,,,,,,
,,,,,,,,,,,,,,,,,,,,,0.025,,,,,,,,,,Stimuli/psy_flexible_rotation_30_objects_occ0.7_0.9s/images/train/n02818832_0/n02818832_3/img_b03_the_sofa_and_chair_company_-_stanley_bed_2014_b05_ccm_contemporary_bed_max2013_2007_gray.jpg,n02818832_0,n02818832_3,flexible,0.822619,n02818832_3,Stimuli/psy_flexible_rotation_30_objects_occ0.7_0.9s/images/train/n02818832_0/n02818832_3/img_b03_the_sofa_and_chair_company_-_stanley_bed_2014_b05_ccm_contemporary_bed_max2013_2007-3_gray.png,foreground,same as foreground,n02818832_0,n02818832_3,Stimuli/canonical view 2/img_n02818832_0_gray.jpg,Stimuli/canonical view 2/img_n02818832_3_gray.jpg,foreground,right,Experiments/experiment_43/368.jpg,Experiments/experiment_43/369.jpg,Experiments/experiment_43/370.jpg,Experiments/experiment_43/371.jpg,899,1,2023-09-17_11h40.32.452,Occlusion_Psychophysics,2022.1.4,MacIntel,59.99520038,,,left,"[""right""]",[1.1759999999999309],False,,0.0,0.0,92.0,92.0,92.0,1.0,,,,,,
,,,,,,,,,,,,,,,,,,,,,0.025,,,,,,,,,,Stimuli/psy_fixed_rotation_30_objects_occ0.7_0.9s/images/train/n02828884_3/n03928116_0/img_b04_wood_metal_park_bench_b02_piano_2005_gray.jpg,n02828884_3,n03928116_0,fixed,0.748047,n02883344_0,Stimuli/psy_fixed_rotation_30_objects_occ0.7_0.9s/images/train/n04256520_5/n02883344_0/img_meridiani_belmondo_bench_sofa_b03_box_2001-3_gray.png,random,fixed,n02828884_3,n02883344_-1,Stimuli/canonical view 2/img_n02828884_3_gray.jpg,Stimuli/canonical view 2/img_n02883344_-1_gray.jpg,random,left,Experiments/experiment_43/372.jpg,Experiments/experiment_43/373.jpg,Experiments/experiment_43/374.jpg,Experiments/experiment_43/375.jpg,899,1,2023-09-17_11h40.32.452,Occlusion_Psychophysics,2022.1.4,MacIntel,59.99520038,,,right,"[""right""]",[0.5782999999969434],False,,0.0,0.0,93.0,93.0,93.0,1.0,,,,,,
,,,,,,,,,,,,,,,,,,,,,0.025,,,,,,,,,,Stimuli/psy_flexible_rotation_30_objects_occ0.7_0.9s/images/train/n04256520_4/n04256520_5/img_club_house_italia_nautilus_sofa_meridiani_belmondo_bench_sofa_2004_gray.jpg,n04256520_4,n04256520_5,flexible,0.710108,n04256520_5,Stimuli/psy_flexible_rotation_30_objects_occ0.7_0.9s/images/train/n04256520_4/n04256520_5/img_club_house_italia_nautilus_sofa_meridiani_belmondo_bench_sofa_2004-3_gray.png,foreground,same as foreground,n04256520_4,n03928116_10,Stimuli/canonical view 2/img_n04256520_4_gray.jpg,Stimuli/canonical view 2/img_n03928116_10_gray.jpg,random,right,Experiments/experiment_43/376.jpg,Experiments/experiment_43/377.jpg,Experiments/experiment_43/378.jpg,Experiments/experiment_43/379.jpg,899,1,2023-09-17_11h40.32.452,Occlusion_Psychophysics,2022.1.4,MacIntel,59.99520038,,,left,"[""left""]",[0.625],False,,0.0,0.0,94.0,94.0,94.0,1.0,,,,,,
,,,,,,,,,,,,,,,,,,,,,0.025,,,,,,,,,,Stimuli/psy_fixed_rotation_30_objects_occ0.7_0.9s/images/train/n04405907_5/n03928116_10/img_samsung_40_uhd_smart_tv_2011_ydp_103_r_2012__vray_2006_gray.jpg,n04405907_5,n03928116_10,fixed,0.765166,n04405907_9,Stimuli/psy_fixed_rotation_30_objects_occ0.7_0.9s/images/train/n04379243_-7/n04405907_9/img_quatre_dining_table_vray_004_2005-3_gray.png,random,fixed,n04405907_5,n03928116_10,Stimuli/canonical view 2/img_n04405907_5_gray.jpg,Stimuli/canonical view 2/img_n03928116_10_gray.jpg,foreground,left,Experiments/experiment_43/380.jpg,Experiments/experiment_43/381.jpg,Experiments/experiment_43/382.jpg,Experiments/experiment_43/383.jpg,899,1,2023-09-17_11h40.32.452,Occlusion_Psychophysics,2022.1.4,MacIntel,59.99520038,,,left,"[""left""]",[1.1088999999910811],False,,0.0,0.0,95.0,95.0,95.0,1.0,,,,,,
,,,,,,,,,,,,,,,,,,,,,0.025,,,,,,,,,,Stimuli/psy_fixed_rotation_30_objects_occ0.7_0.9s/images/train/n02933112_-18/n02883344_-1/img_cgaxis_models_48_26_vray_composite_woven_box_2007_gray.jpg,n02933112_-18,n02883344_-1,fixed,0.752685,n02883344_-1,Stimuli/psy_fixed_rotation_30_objects_occ0.7_0.9s/images/train/n02933112_-18/n02883344_-1/img_cgaxis_models_48_26_vray_composite_woven_box_2007-3_gray.png,foreground,same as foreground,n02933112_-18,n02883344_0,Stimuli/canonical view 2/img_n02933112_-18_gray.jpg,Stimuli/canonical view 2/img_n02883344_0_gray.jpg,random,right,Experiments/experiment_43/384.jpg,Experiments/experiment_43/385.jpg,Experiments/experiment_43/386.jpg,Experiments/experiment_43/387.jpg,899,1,2023-09-17_11h40.32.452,Occlusion_Psychophysics,2022.1.4,MacIntel,59.99520038,,,left,"[""left""]",[1.6083000000121501],True,left,1.0,0.0,96.0,96.0,96.0,1.0,0.7693,,,,,
,,,,,,,,,,,,,,,,,,,,,0.05,,,,,,,,,,Stimuli/psy_flexible_rotation_30_objects_occ0.7_0.9s/images/train/n02933112_-2/n04405907_8/img_sink_base_white_wood_stylized_tv_2004_gray.jpg,n02933112_-2,n04405907_8,flexible,0.710695,n02818832_3,Stimuli/psy_fixed_rotation_30_objects_occ0.7_0.9s/images/train/n02818832_9/n02818832_3/img_bed01_blue_b05_ccm_contemporary_bed_max2013_2009-3_gray.png,random,fixed,n02933112_-2,n04405907_5,Stimuli/canonical view 2/img_n02933112_-2_gray.jpg,Stimuli/canonical view 2/img_n04405907_5_gray.jpg,random,left,Experiments/experiment_43/388.jpg,Experiments/experiment_43/389.jpg,Experiments/experiment_43/390.jpg,Experiments/experiment_43/391.jpg,899,1,2023-09-17_11h40.32.452,Occlusion_Psychophysics,2022.1.4,MacIntel,59.99520038,,,right,"[""right""]",[0.5788000000120519],False,,0.0,0.0,97.0,97.0,97.0,1.0,,,,,,
,,,,,,,,,,,,,,,,,,,,,0.05,,,,,,,,,,Stimuli/psy_flexible_rotation_30_objects_occ0.7_0.9s/images/train/n04405907_5/n02818832_0/img_samsung_40_uhd_smart_tv_2011_b03_the_sofa_and_chair_company_-_stanley_bed_2014_2009_gray.jpg,n04405907_5,n02818832_0,flexible,0.724627,n02818832_0,Stimuli/psy_flexible_rotation_30_objects_occ0.7_0.9s/images/train/n04405907_5/n02818832_0/img_samsung_40_uhd_smart_tv_2011_b03_the_sofa_and_chair_company_-_stanley_bed_2014_2009-3_gray.png,foreground,same as foreground,n04405907_5,n02818832_0,Stimuli/canonical view 2/img_n04405907_5_gray.jpg,Stimuli/canonical view 2/img_n02818832_0_gray.jpg,foreground,left,Experiments/experiment_43/392.jpg,Experiments/experiment_43/393.jpg,Experiments/experiment_43/394.jpg,Experiments/experiment_43/395.jpg,899,1,2023-09-17_11h40.32.452,Occlusion_Psychophysics,2022.1.4,MacIntel,59.99520038,,,right,"[""right""]",[0.6062000000029002],False,,0.0,0.0,98.0,98.0,98.0,1.0,,,,,,
,,,,,,,,,,,,,,,,,,,,,0.025,,,,,,,,,,Stimuli/psy_fixed_rotation_30_objects_occ0.7_0.9s/images/train/n04379243_-7/n02818832_0/img_quatre_dining_table_b03_the_sofa_and_chair_company_-_stanley_bed_2014_2013_gray.jpg,n04379243_-7,n02818832_0,fixed,0.74526,n02818832_0,Stimuli/psy_fixed_rotation_30_objects_occ0.7_0.9s/images/train/n04379243_-7/n02818832_0/img_quatre_dining_table_b03_the_sofa_and_chair_company_-_stanley_bed_2014_2013-3_gray.png,foreground,same as foreground,n04379243_-7,n03928116_10,Stimuli/canonical view 2/img_n04379243_-7_gray.jpg,Stimuli/canonical view 2/img_n03928116_10_gray.jpg,random,right,Experiments/experiment_43/396.jpg,Experiments/experiment_43/397.jpg,Experiments/experiment_43/398.jpg,Experiments/experiment_43/399.jpg,899,1,2023-09-17_11h40.32.452,Occlusion_Psychophysics,2022.1.4,MacIntel,59.99520038,,,right,"[""right""]",[0.555599999993774],False,,0.0,0.0,99.0,99.0,99.0,1.0,,,,,,
,,,,,,,,,,,,,,,,,,,,,,,,,,,,,,,,,,,,,,,,,,,,,,,,,,899,1,2023-09-17_11h40.32.452,Occlusion_Psychophysics,2022.1.4,MacIntel,59.99520038,,,,,,,,,,,,,,,0.0,0.0,0.0,0.0,1.0
,,,,,,,,,,,,,,,,,,,,,0.05,,,,,,,,,,Stimuli/psy_flexible_rotation_30_objects_occ0.7_0.9s/images/train/n03928116_10/n02883344_0/img_ydp_103_r_2012__vray_b03_box_2011_gray.jpg,n03928116_10,n02883344_0,flexible,0.833724,n03928116_10,Stimuli/psy_flexible_rotation_30_objects_occ0.7_0.9s/images/train/n04379243_0/n03928116_10/img_17th_c._monastery_dining_table_2010_ydp_103_r_2012__vray_2008-3_gray.png,random,flexible,n03928116_10,n02933112_4,Stimuli/canonical view 2/img_n03928116_10_gray.jpg,Stimuli/canonical view 2/img_n02933112_4_gray.jpg,random,left,Experiments/experiment_43/400.jpg,Experiments/experiment_43/401.jpg,Experiments/experiment_43/402.jpg,Experiments/experiment_43/403.jpg,899,1,2023-09-17_11h40.32.452,Occlusion_Psychophysics,2022.1.4,MacIntel,59.99520038,,,left,"[""left""]",[1.1304999999997563],False,,0.0,0.0,0.0,0.0,0.0,1.0,,,,,,
,,,,,,,,,,,,,,,,,,,,,0.05,,,,,,,,,,Stimuli/psy_flexible_rotation_30_objects_occ0.7_0.9s/images/train/n04256520_9/n02883344_0/img_napoleon_iii_sofa_b03_box_2015_gray.jpg,n04256520_9,n02883344_0,flexible,0.700333,n02883344_0,Stimuli/psy_flexible_rotation_30_objects_occ0.7_0.9s/images/train/n04256520_9/n02883344_0/img_napoleon_iii_sofa_b03_box_2015-3_gray.png,foreground,same as foreground,n04256520_9,n04379243_-7,Stimuli/canonical view 2/img_n04256520_9_gray.jpg,Stimuli/canonical view 2/img_n04379243_-7_gray.jpg,random,left,Experiments/experiment_43/404.jpg,Experiments/experiment_43/405.jpg,Experiments/experiment_43/406.jpg,Experiments/experiment_43/407.jpg,899,1,2023-09-17_11h40.32.452,Occlusion_Psychophysics,2022.1.4,MacIntel,59.99520038,,,right,"[""right""]",[0.5451999999881991],False,,0.0,0.0,1.0,1.0,1.0,1.0,,,,,,
,,,,,,,,,,,,,,,,,,,,,0.05,,,,,,,,,,Stimuli/psy_flexible_rotation_30_objects_occ0.7_0.9s/images/train/n04256520_4/n02828884_4/img_club_house_italia_nautilus_sofa_b05_c-5_classic_series_bench-2012_2009_gray.jpg,n04256520_4,n02828884_4,flexible,0.714824,n03001627_8,Stimuli/psy_flexible_rotation_30_objects_occ0.7_0.9s/images/train/n04405907_8/n03001627_8/img_stylized_tv_chair_billiani_doll_2008-3_gray.png,random,flexible,n04256520_4,n02883344_0,Stimuli/canonical view 2/img_n04256520_4_gray.jpg,Stimuli/canonical view 2/img_n02883344_0_gray.jpg,random,left,Experiments/experiment_43/408.jpg,Experiments/experiment_43/409.jpg,Experiments/experiment_43/410.jpg,Experiments/experiment_43/411.jpg,899,1,2023-09-17_11h40.32.452,Occlusion_Psychophysics,2022.1.4,MacIntel,59.99520038,,,right,"[""right""]",[0.675700000002962],False,,0.0,0.0,2.0,2.0,2.0,1.0,,,,,,
,,,,,,,,,,,,,,,,,,,,,0.025,,,,,,,,,,Stimuli/psy_fixed_rotation_30_objects_occ0.7_0.9s/images/train/n04256520_4/n02818832_9/img_club_house_italia_nautilus_sofa_bed01_blue_2011_gray.jpg,n04256520_4,n02818832_9,fixed,0.794986,n02818832_9,Stimuli/psy_fixed_rotation_30_objects_occ0.7_0.9s/images/train/n04256520_4/n02818832_9/img_club_house_italia_nautilus_sofa_bed01_blue_2011-3_gray.png,foreground,same as foreground,n04256520_4,n02818832_9,Stimuli/canonical view 2/img_n04256520_4_gray.jpg,Stimuli/canonical view 2/img_n02818832_9_gray.jpg,foreground,right,Experiments/experiment_43/412.jpg,Experiments/experiment_43/413.jpg,Experiments/experiment_43/414.jpg,Experiments/experiment_43/415.jpg,899,1,2023-09-17_11h40.32.452,Occlusion_Psychophysics,2022.1.4,MacIntel,59.99520038,,,left,"[""left""]",[1.0705999999941014],True,left,1.0,0.0,3.0,3.0,3.0,1.0,0.8621,,,,,
,,,,,,,,,,,,,,,,,,,,,0.05,,,,,,,,,,Stimuli/psy_flexible_rotation_30_objects_occ0.7_0.9s/images/train/n02818832_9/n04256520_9/img_bed01_blue_napoleon_iii_sofa_2013_gray.jpg,n02818832_9,n04256520_9,flexible,0.731069,n04256520_9,Stimuli/psy_flexible_rotation_30_objects_occ0.7_0.9s/images/train/n02818832_9/n04256520_9/img_bed01_blue_napoleon_iii_sofa_2013-3_gray.png,foreground,same as foreground,n02818832_9,n04256520_9,Stimuli/canonical view 2/img_n02818832_9_gray.jpg,Stimuli/canonical view 2/img_n04256520_9_gray.jpg,foreground,right,Experiments/experiment_43/416.jpg,Experiments/experiment_43/417.jpg,Experiments/experiment_43/418.jpg,Experiments/experiment_43/419.jpg,899,1,2023-09-17_11h40.32.452,Occlusion_Psychophysics,2022.1.4,MacIntel,59.99520038,,,right,"[""right""]",[1.2128999999913503],False,,0.0,0.0,4.0,4.0,4.0,1.0,,,,,,
,,,,,,,,,,,,,,,,,,,,,0.025,,,,,,,,,,Stimuli/psy_fixed_rotation_30_objects_occ0.7_0.9s/images/train/n04256520_5/n02883344_15/img_meridiani_belmondo_bench_sofa_microwave_box_2013_gray.jpg,n04256520_5,n02883344_15,fixed,0.783729,n04379243_-7,Stimuli/psy_fixed_rotation_30_objects_occ0.7_0.9s/images/train/n03928116_10/n04379243_-7/img_ydp_103_r_2012__vray_quatre_dining_table_2013-3_gray.png,random,fixed,n04256520_5,n03001627_-2,Stimuli/canonical view 2/img_n04256520_5_gray.jpg,Stimuli/canonical view 2/img_n03001627_-2_gray.jpg,random,right,Experiments/experiment_43/420.jpg,Experiments/experiment_43/421.jpg,Experiments/experiment_43/422.jpg,Experiments/experiment_43/423.jpg,899,1,2023-09-17_11h40.32.452,Occlusion_Psychophysics,2022.1.4,MacIntel,59.99520038,,,left,"[""left""]",[0.621800000012172],False,,0.0,0.0,5.0,5.0,5.0,1.0,,,,,,
,,,,,,,,,,,,,,,,,,,,,0.025,,,,,,,,,,Stimuli/psy_flexible_rotation_30_objects_occ0.7_0.9s/images/train/n02883344_-1/n02818832_0/img_woven_box_b03_the_sofa_and_chair_company_-_stanley_bed_2014_2003_gray.jpg,n02883344_-1,n02818832_0,flexible,0.831257,n02818832_0,Stimuli/psy_flexible_rotation_30_objects_occ0.7_0.9s/images/train/n02883344_-1/n02818832_0/img_woven_box_b03_the_sofa_and_chair_company_-_stanley_bed_2014_2003-3_gray.png,foreground,same as foreground,n02883344_-1,n03928116_0,Stimuli/canonical view 2/img_n02883344_-1_gray.jpg,Stimuli/canonical view 2/img_n03928116_0_gray.jpg,random,left,Experiments/experiment_43/424.jpg,Experiments/experiment_43/425.jpg,Experiments/experiment_43/426.jpg,Experiments/experiment_43/427.jpg,899,1,2023-09-17_11h40.32.452,Occlusion_Psychophysics,2022.1.4,MacIntel,59.99520038,,,right,"[""right""]",[0.6242999999972199],False,,0.0,0.0,6.0,6.0,6.0,1.0,,,,,,
,,,,,,,,,,,,,,,,,,,,,0.025,,,,,,,,,,Stimuli/psy_flexible_rotation_30_objects_occ0.7_0.9s/images/train/n04379243_-7/n04256520_4/img_quatre_dining_table_club_house_italia_nautilus_sofa_2009_gray.jpg,n04379243_-7,n04256520_4,flexible,0.710118,n04405907_9,Stimuli/psy_flexible_rotation_30_objects_occ0.7_0.9s/images/train/n02883344_-1/n04405907_9/img_woven_box_vray_004_2010-3_gray.png,random,flexible,n04379243_-7,n04256520_9,Stimuli/canonical view 2/img_n04379243_-7_gray.jpg,Stimuli/canonical view 2/img_n04256520_9_gray.jpg,random,left,Experiments/experiment_43/428.jpg,Experiments/experiment_43/429.jpg,Experiments/experiment_43/430.jpg,Experiments/experiment_43/431.jpg,899,1,2023-09-17_11h40.32.452,Occlusion_Psychophysics,2022.1.4,MacIntel,59.99520038,,,left,"[""left""]",[0.8079999999999927],False,,0.0,0.0,7.0,7.0,7.0,1.0,,,,,,
,,,,,,,,,,,,,,,,,,,,,0.025,,,,,,,,,,Stimuli/psy_flexible_rotation_30_objects_occ0.7_0.9s/images/train/n02818832_0/n02818832_9/img_b03_the_sofa_and_chair_company_-_stanley_bed_2014_bed01_blue_2014_gray.jpg,n02818832_0,n02818832_9,flexible,0.845482,n02883344_-1,Stimuli/psy_fixed_rotation_30_objects_occ0.7_0.9s/images/train/n02828884_4/n02883344_-1/img_b05_c-5_classic_series_bench-2012_woven_box_2004-3_gray.png,random,fixed,n02818832_0,n02818832_9,Stimuli/canonical view 2/img_n02818832_0_gray.jpg,Stimuli/canonical view 2/img_n02818832_9_gray.jpg,foreground,right,Experiments/experiment_43/432.jpg,Experiments/experiment_43/433.jpg,Experiments/experiment_43/434.jpg,Experiments/experiment_43/435.jpg,899,1,2023-09-17_11h40.32.452,Occlusion_Psychophysics,2022.1.4,MacIntel,59.99520038,,,left,"[""right""]",[0.6401000000091699],False,,0.0,0.0,8.0,8.0,8.0,1.0,,,,,,
,,,,,,,,,,,,,,,,,,,,,0.025,,,,,,,,,,Stimuli/psy_flexible_rotation_30_objects_occ0.7_0.9s/images/train/n04405907_5/n04379243_-7/img_samsung_40_uhd_smart_tv_2011_quatre_dining_table_2011_gray.jpg,n04405907_5,n04379243_-7,flexible,0.844889,n04379243_-7,Stimuli/psy_flexible_rotation_30_objects_occ0.7_0.9s/images/train/n04405907_5/n04379243_-7/img_samsung_40_uhd_smart_tv_2011_quatre_dining_table_2011-3_gray.png,foreground,same as foreground,n04405907_5,n02883344_15,Stimuli/canonical view 2/img_n04405907_5_gray.jpg,Stimuli/canonical view 2/img_n02883344_15_gray.jpg,random,right,Experiments/experiment_43/436.jpg,Experiments/experiment_43/437.jpg,Experiments/experiment_43/438.jpg,Experiments/experiment_43/439.jpg,899,1,2023-09-17_11h40.32.452,Occlusion_Psychophysics,2022.1.4,MacIntel,59.99520038,,,left,"[""left""]",[1.105700000003253],False,,0.0,0.0,9.0,9.0,9.0,1.0,,,,,,
,,,,,,,,,,,,,,,,,,,,,0.025,,,,,,,,,,Stimuli/psy_fixed_rotation_30_objects_occ0.7_0.9s/images/train/n04405907_8/n04256520_9/img_stylized_tv_napoleon_iii_sofa_2002_gray.jpg,n04405907_8,n04256520_9,fixed,0.827769,n03928116_4,Stimuli/psy_flexible_rotation_30_objects_occ0.7_0.9s/images/train/n04379243_0/n03928116_4/img_17th_c._monastery_dining_table_2010_dp_33_b_2013__vray_2001-3_gray.png,random,flexible,n04405907_8,n04256520_9,Stimuli/canonical view 2/img_n04405907_8_gray.jpg,Stimuli/canonical view 2/img_n04256520_9_gray.jpg,foreground,right,Experiments/experiment_43/440.jpg,Experiments/experiment_43/441.jpg,Experiments/experiment_43/442.jpg,Experiments/experiment_43/443.jpg,899,1,2023-09-17_11h40.32.452,Occlusion_Psychophysics,2022.1.4,MacIntel,59.99520038,,,left,"[""right""]",[0.5640000000003056],False,,0.0,0.0,10.0,10.0,10.0,1.0,,,,,,
,,,,,,,,,,,,,,,,,,,,,0.05,,,,,,,,,,Stimuli/psy_fixed_rotation_30_objects_occ0.7_0.9s/images/train/n02933112_4/n04256520_9/img_buffet_napoleon_iii_sofa_2012_gray.jpg,n02933112_4,n04256520_9,fixed,0.765864,n02933112_-2,Stimuli/psy_fixed_rotation_30_objects_occ0.7_0.9s/images/train/n02818832_9/n02933112_-2/img_bed01_blue_sink_base_white_wood_2012-3_gray.png,random,fixed,n02933112_4,n04405907_9,Stimuli/canonical view 2/img_n02933112_4_gray.jpg,Stimuli/canonical view 2/img_n04405907_9_gray.jpg,random,right,Experiments/experiment_43/444.jpg,Experiments/experiment_43/445.jpg,Experiments/experiment_43/446.jpg,Experiments/experiment_43/447.jpg,899,1,2023-09-17_11h40.32.452,Occlusion_Psychophysics,2022.1.4,MacIntel,59.99520038,,,right,"[""right""]",[1.1267000000029839],False,,0.0,0.0,11.0,11.0,11.0,1.0,,,,,,
,,,,,,,,,,,,,,,,,,,,,0.025,,,,,,,,,,Stimuli/psy_fixed_rotation_30_objects_occ0.7_0.9s/images/train/n04379243_0/n02883344_-1/img_17th_c._monastery_dining_table_2010_woven_box_2005_gray.jpg,n04379243_0,n02883344_-1,fixed,0.820767,n02883344_-1,Stimuli/psy_fixed_rotation_30_objects_occ0.7_0.9s/images/train/n04379243_0/n02883344_-1/img_17th_c._monastery_dining_table_2010_woven_box_2005-3_gray.png,foreground,same as foreground,n04379243_0,n02883344_-1,Stimuli/canonical view 2/img_n04379243_0_gray.jpg,Stimuli/canonical view 2/img_n02883344_-1_gray.jpg,foreground,right,Experiments/experiment_43/448.jpg,Experiments/experiment_43/449.jpg,Experiments/experiment_43/450.jpg,Experiments/experiment_43/451.jpg,899,1,2023-09-17_11h40.32.452,Occlusion_Psychophysics,2022.1.4,MacIntel,59.99520038,,,right,"[""right""]",[1.3059000000062042],False,,0.0,0.0,12.0,12.0,12.0,1.0,,,,,,
