in_color,Instructions_key.keys,Instructions_key.rt,Tutorial_instruction_key.keys,Tutorial_instruction_key.rt,Tutorial_fixation_ley.keys,Tutorial_fixation_ley.rt,Tutorial_single_img_key.keys,Tutorial_single_img_key.rt,Tutorial_intra_trial_fixation_key.keys,Tutorial_intra_trial_fixation_key.rt,Tutorial_stimulus_key.keys,Tutorial_stimulus_key.rt,Tutorial_response_key.keys,Tutorial_response_key.rt,Tutorial_attention_check_key.keys,Tutorial_attention_check_key.rt,advance_or_repeat.keys,advance_or_repeat.rt,Practice_instructions_key.keys,Practice_instructions_key.rt,intra_trial_duration,Practice_key_response.keys,Practice_key_response.rt,Practice_react_key.keys,Practice_react_key.rt,Practice_loop.thisRepN,Practice_loop.thisTrialN,Practice_loop.thisN,Practice_loop.thisIndex,Practice_loop.ran,multi_object_filepath,background_id,foreground_id,multi_object_rotation,occlusion_level,single_object_id,single_object_filepath,single_is_foreground_or_random,single_object_rotation,background_choice_id,alt_choice_id,background_option_filepath,alternative_option_filepath,alternative_is_foreground_or_random,location_of_correct_answer,multi_object_exp_filename,single_object_exp_filename,background_option_exp_filename,alternative_option_exp_filename,participant,session,date,expName,psychopyVersion,OS,frameRate,Practice_end_key.keys,Practice_end_key.rt,correct_answer,Input_selection.keys,Input_selection.rt,Was_attention_check,Attention_check.keys,Attention_check.corr,Each_session_loop.thisRepN,Each_session_loop.thisTrialN,Each_session_loop.thisN,Each_session_loop.thisIndex,Each_session_loop.ran,Attention_check.rt,Num_sessions.thisRepN,Num_sessions.thisTrialN,Num_sessions.thisN,Num_sessions.thisIndex,Num_sessions.ran
False,right,44.3565,down,3.881,right,4.3663,right,4.4029,right,2.0851,right,9.367,left,2.4137,right,1.2816,a,18.6554,down,5.279,0.025,right,1.5156,r,4.8217,0.0,0.0,0.0,0.0,1.0,Stimuli/psy_flexible_rotation_30_objects_occ0.7_0.9s/images/train/n02818832_3/n04405907_8/img_b05_ccm_contemporary_bed_max2013_stylized_tv_2006_gray.jpg,n02818832_3,n04405907_8,flexible,0.739435,n02933112_-2,Stimuli/psy_fixed_rotation_30_objects_occ0.7_0.9s/images/train/n02828884_3/n02933112_-2/img_b04_wood_metal_park_bench_sink_base_white_wood_2015-3_gray.png,random,fixed,n02818832_3,n02883344_-1,Stimuli/canonical view 2/img_n02818832_3_gray.jpg,Stimuli/canonical view 2/img_n02883344_-1_gray.jpg,random,right,Experiments/experiment_1/1000.jpg,Experiments/experiment_1/1001.jpg,Experiments/experiment_1/1002.jpg,Experiments/experiment_1/1003.jpg,900,1,2023-04-03_18h26.49.606,Occlusion_Psychophysics,2022.1.4,Win32,60.06006006,,,,,,,,,,,,,,,,,,,
,,,,,,,,,,,,,,,,,,,,,0.05,right,1.2317,r,5.0575,0.0,1.0,1.0,1.0,1.0,Stimuli/psy_fixed_rotation_30_objects_occ0.7_0.9s/images/train/n02933112_4/n02828884_3/img_buffet_b04_wood_metal_park_bench_2013_gray.jpg,n02933112_4,n02828884_3,fixed,0.725734,n02828884_3,Stimuli/psy_fixed_rotation_30_objects_occ0.7_0.9s/images/train/n02933112_4/n02828884_3/img_buffet_b04_wood_metal_park_bench_2013-3_gray.png,foreground,same as foreground,n02933112_4,n02828884_3,Stimuli/canonical view 2/img_n02933112_4_gray.jpg,Stimuli/canonical view 2/img_n02828884_3_gray.jpg,foreground,right,Experiments/experiment_1/1004.jpg,Experiments/experiment_1/1005.jpg,Experiments/experiment_1/1006.jpg,Experiments/experiment_1/1007.jpg,900,1,2023-04-03_18h26.49.606,Occlusion_Psychophysics,2022.1.4,Win32,60.06006006,,,,,,,,,,,,,,,,,,,
,,,,,,,,,,,,,,,,,,,,,0.025,left,1.6187,r,4.1762,0.0,2.0,2.0,2.0,1.0,Stimuli/psy_flexible_rotation_30_objects_occ0.7_0.9s/images/train/n04256520_9/n04405907_5/img_napoleon_iii_sofa_samsung_40_uhd_smart_tv_2011_2006_gray.jpg,n04256520_9,n04405907_5,flexible,0.834423,n04405907_5,Stimuli/psy_flexible_rotation_30_objects_occ0.7_0.9s/images/train/n04256520_9/n04405907_5/img_napoleon_iii_sofa_samsung_40_uhd_smart_tv_2011_2006-3_gray.png,foreground,same as foreground,n04256520_9,n04405907_5,Stimuli/canonical view 2/img_n04256520_9_gray.jpg,Stimuli/canonical view 2/img_n04405907_5_gray.jpg,foreground,right,Experiments/experiment_1/1008.jpg,Experiments/experiment_1/1009.jpg,Experiments/experiment_1/1010.jpg,Experiments/experiment_1/1011.jpg,900,1,2023-04-03_18h26.49.606,Occlusion_Psychophysics,2022.1.4,Win32,60.06006006,,,,,,,,,,,,,,,,,,,
,,,,,,,,,,,,,,,,,,,,,0.05,left,1.9921,r,2.3879,0.0,3.0,3.0,3.0,1.0,Stimuli/psy_fixed_rotation_30_objects_occ0.7_0.9s/images/train/n04405907_5/n02883344_0/img_samsung_40_uhd_smart_tv_2011_b03_box_2010_gray.jpg,n04405907_5,n02883344_0,fixed,0.720525,n04379243_-7,Stimuli/psy_fixed_rotation_30_objects_occ0.7_0.9s/images/train/n04405907_8/n04379243_-7/img_stylized_tv_quatre_dining_table_2002-3_gray.png,random,fixed,n04405907_5,n04405907_9,Stimuli/canonical view 2/img_n04405907_5_gray.jpg,Stimuli/canonical view 2/img_n04405907_9_gray.jpg,random,right,Experiments/experiment_1/1012.jpg,Experiments/experiment_1/1013.jpg,Experiments/experiment_1/1014.jpg,Experiments/experiment_1/1015.jpg,900,1,2023-04-03_18h26.49.606,Occlusion_Psychophysics,2022.1.4,Win32,60.06006006,,,,,,,,,,,,,,,,,,,
,,,,,,,,,,,,,,,,,,,,,0.05,left,1.8748,r,5.7829,0.0,4.0,4.0,4.0,1.0,Stimuli/psy_flexible_rotation_30_objects_occ0.7_0.9s/images/train/n02818832_9/n02933112_-18/img_bed01_blue_cgaxis_models_48_26_vray_composite_2013_gray.jpg,n02818832_9,n02933112_-18,flexible,0.752689,n02933112_-18,Stimuli/psy_flexible_rotation_30_objects_occ0.7_0.9s/images/train/n02818832_9/n02933112_-18/img_bed01_blue_cgaxis_models_48_26_vray_composite_2013-3_gray.png,foreground,same as foreground,n02818832_9,n02933112_-18,Stimuli/canonical view 2/img_n02818832_9_gray.jpg,Stimuli/canonical view 2/img_n02933112_-18_gray.jpg,foreground,left,Experiments/experiment_1/1016.jpg,Experiments/experiment_1/1017.jpg,Experiments/experiment_1/1018.jpg,Experiments/experiment_1/1019.jpg,900,1,2023-04-03_18h26.49.606,Occlusion_Psychophysics,2022.1.4,Win32,60.06006006,,,,,,,,,,,,,,,,,,,
,,,,,,,,,,,,,,,,,,,,,0.05,right,3.2159,r,4.1068,0.0,5.0,5.0,5.0,1.0,Stimuli/psy_flexible_rotation_30_objects_occ0.7_0.9s/images/train/n04405907_9/n03001627_8/img_vray_004_chair_billiani_doll_2001_gray.jpg,n04405907_9,n03001627_8,flexible,0.751636,n02933112_-18,Stimuli/psy_fixed_rotation_30_objects_occ0.7_0.9s/images/train/n04070727_3/n02933112_-18/img_b05_db_apps_tech_06_02_2_composite_cgaxis_models_48_26_vray_composite_2008-3_gray.png,random,fixed,n04405907_9,n03001627_8,Stimuli/canonical view 2/img_n04405907_9_gray.jpg,Stimuli/canonical view 2/img_n03001627_8_gray.jpg,foreground,right,Experiments/experiment_1/1020.jpg,Experiments/experiment_1/1021.jpg,Experiments/experiment_1/1022.jpg,Experiments/experiment_1/1023.jpg,900,1,2023-04-03_18h26.49.606,Occlusion_Psychophysics,2022.1.4,Win32,60.06006006,,,,,,,,,,,,,,,,,,,
,,,,,,,,,,,,,,,,,,,,,0.025,left,4.6319,r,1.2059,0.0,6.0,6.0,6.0,1.0,Stimuli/psy_flexible_rotation_30_objects_occ0.7_0.9s/images/train/n04256520_9/n03928116_4/img_napoleon_iii_sofa_dp_33_b_2013__vray_2008_gray.jpg,n04256520_9,n03928116_4,flexible,0.734595,n03928116_4,Stimuli/psy_flexible_rotation_30_objects_occ0.7_0.9s/images/train/n04256520_9/n03928116_4/img_napoleon_iii_sofa_dp_33_b_2013__vray_2008-3_gray.png,foreground,same as foreground,n04256520_9,n02883344_15,Stimuli/canonical view 2/img_n04256520_9_gray.jpg,Stimuli/canonical view 2/img_n02883344_15_gray.jpg,random,left,Experiments/experiment_1/1024.jpg,Experiments/experiment_1/1025.jpg,Experiments/experiment_1/1026.jpg,Experiments/experiment_1/1027.jpg,900,1,2023-04-03_18h26.49.606,Occlusion_Psychophysics,2022.1.4,Win32,60.06006006,,,,,,,,,,,,,,,,,,,
,,,,,,,,,,,,,,,,,,,,,0.025,left,1.4014,r,4.8556,0.0,7.0,7.0,7.0,1.0,Stimuli/psy_fixed_rotation_30_objects_occ0.7_0.9s/images/train/n04379243_8/n02933112_-18/img_glass_table_cgaxis_models_48_26_vray_composite_2007_gray.jpg,n04379243_8,n02933112_-18,fixed,0.819156,n04405907_5,Stimuli/psy_fixed_rotation_30_objects_occ0.7_0.9s/images/train/n02818832_9/n04405907_5/img_bed01_blue_samsung_40_uhd_smart_tv_2011_2007-3_gray.png,random,fixed,n04379243_8,n02933112_-18,Stimuli/canonical view 2/img_n04379243_8_gray.jpg,Stimuli/canonical view 2/img_n02933112_-18_gray.jpg,foreground,right,Experiments/experiment_1/1028.jpg,Experiments/experiment_1/1029.jpg,Experiments/experiment_1/1030.jpg,Experiments/experiment_1/1031.jpg,900,1,2023-04-03_18h26.49.606,Occlusion_Psychophysics,2022.1.4,Win32,60.06006006,,,,,,,,,,,,,,,,,,,
,,,,,,,,,,,,,,,,,,,,,0.05,right,2.5494,r,0.8286,0.0,8.0,8.0,8.0,1.0,Stimuli/psy_fixed_rotation_30_objects_occ0.7_0.9s/images/train/n04379243_0/n04405907_8/img_17th_c._monastery_dining_table_2010_stylized_tv_2010_gray.jpg,n04379243_0,n04405907_8,fixed,0.7883,n04405907_8,Stimuli/psy_fixed_rotation_30_objects_occ0.7_0.9s/images/train/n04379243_0/n04405907_8/img_17th_c._monastery_dining_table_2010_stylized_tv_2010-3_gray.png,foreground,same as foreground,n04379243_0,n02818832_3,Stimuli/canonical view 2/img_n04379243_0_gray.jpg,Stimuli/canonical view 2/img_n02818832_3_gray.jpg,random,right,Experiments/experiment_1/1032.jpg,Experiments/experiment_1/1033.jpg,Experiments/experiment_1/1034.jpg,Experiments/experiment_1/1035.jpg,900,1,2023-04-03_18h26.49.606,Occlusion_Psychophysics,2022.1.4,Win32,60.06006006,,,,,,,,,,,,,,,,,,,
,,,,,,,,,,,,,,,,,,,,,0.05,right,2.2185,r,2.4911,0.0,9.0,9.0,9.0,1.0,Stimuli/psy_flexible_rotation_30_objects_occ0.7_0.9s/images/train/n03928116_4/n04405907_5/img_dp_33_b_2013__vray_samsung_40_uhd_smart_tv_2011_2012_gray.jpg,n03928116_4,n04405907_5,flexible,0.718527,n02818832_3,Stimuli/psy_fixed_rotation_30_objects_occ0.7_0.9s/images/train/n03001627_8/n02818832_3/img_chair_billiani_doll_b05_ccm_contemporary_bed_max2013_2005-3_gray.png,random,fixed,n03928116_4,n04405907_5,Stimuli/canonical view 2/img_n03928116_4_gray.jpg,Stimuli/canonical view 2/img_n04405907_5_gray.jpg,foreground,left,Experiments/experiment_1/1036.jpg,Experiments/experiment_1/1037.jpg,Experiments/experiment_1/1038.jpg,Experiments/experiment_1/1039.jpg,900,1,2023-04-03_18h26.49.606,Occlusion_Psychophysics,2022.1.4,Win32,60.06006006,,,,,,,,,,,,,,,,,,,
,,,,,,,,,,,,,,,,,,,,,0.05,right,2.6404,r,5.1854,0.0,10.0,10.0,10.0,1.0,Stimuli/psy_fixed_rotation_30_objects_occ0.7_0.9s/images/train/n04256520_4/n02933112_-2/img_club_house_italia_nautilus_sofa_sink_base_white_wood_2002_gray.jpg,n04256520_4,n02933112_-2,fixed,0.70057,n02933112_-2,Stimuli/psy_fixed_rotation_30_objects_occ0.7_0.9s/images/train/n04256520_4/n02933112_-2/img_club_house_italia_nautilus_sofa_sink_base_white_wood_2002-3_gray.png,foreground,same as foreground,n04256520_4,n02933112_4,Stimuli/canonical view 2/img_n04256520_4_gray.jpg,Stimuli/canonical view 2/img_n02933112_4_gray.jpg,random,right,Experiments/experiment_1/1040.jpg,Experiments/experiment_1/1041.jpg,Experiments/experiment_1/1042.jpg,Experiments/experiment_1/1043.jpg,900,1,2023-04-03_18h26.49.606,Occlusion_Psychophysics,2022.1.4,Win32,60.06006006,,,,,,,,,,,,,,,,,,,
,,,,,,,,,,,,,,,,,,,,,0.025,right,1.4129,r,5.4739,0.0,11.0,11.0,11.0,1.0,Stimuli/psy_flexible_rotation_30_objects_occ0.7_0.9s/images/train/n04379243_8/n02883344_0/img_glass_table_b03_box_2006_gray.jpg,n04379243_8,n02883344_0,flexible,0.747218,n03928116_4,Stimuli/psy_flexible_rotation_30_objects_occ0.7_0.9s/images/train/n02883344_0/n03928116_4/img_b03_box_dp_33_b_2013__vray_2006-3_gray.png,random,flexible,n04379243_8,n02883344_0,Stimuli/canonical view 2/img_n04379243_8_gray.jpg,Stimuli/canonical view 2/img_n02883344_0_gray.jpg,foreground,left,Experiments/experiment_1/1044.jpg,Experiments/experiment_1/1045.jpg,Experiments/experiment_1/1046.jpg,Experiments/experiment_1/1047.jpg,900,1,2023-04-03_18h26.49.606,Occlusion_Psychophysics,2022.1.4,Win32,60.06006006,,,,,,,,,,,,,,,,,,,
,,,,,,,,,,,,,,,,,,,,,0.05,left,1.6666,a,3.1127,0.0,12.0,12.0,12.0,1.0,Stimuli/psy_flexible_rotation_30_objects_occ0.7_0.9s/images/train/n02828884_4/n04256520_5/img_b05_c-5_classic_series_bench-2012_meridiani_belmondo_bench_sofa_2015_gray.jpg,n02828884_4,n04256520_5,flexible,0.738863,n04256520_9,Stimuli/psy_flexible_rotation_30_objects_occ0.7_0.9s/images/train/n03001627_-2/n04256520_9/img_wood_chair_napoleon_iii_sofa_2004-3_gray.png,random,flexible,n02828884_4,n04256520_5,Stimuli/canonical view 2/img_n02828884_4_gray.jpg,Stimuli/canonical view 2/img_n04256520_5_gray.jpg,foreground,right,Experiments/experiment_1/1048.jpg,Experiments/experiment_1/1049.jpg,Experiments/experiment_1/1050.jpg,Experiments/experiment_1/1051.jpg,900,1,2023-04-03_18h26.49.606,Occlusion_Psychophysics,2022.1.4,Win32,60.06006006,,,,,,,,,,,,,,,,,,,
,,,,,,,,,,,,,,,,,,,,,0.05,,,,,,,,,,Stimuli/psy_fixed_rotation_30_objects_occ0.7_0.9s/images/train/n04405907_8/n03001627_9/img_stylized_tv_chair_eames_plastic_armchair_2007_gray.jpg,n04405907_8,n03001627_9,fixed,0.769499,n03001627_9,Stimuli/psy_fixed_rotation_30_objects_occ0.7_0.9s/images/train/n04405907_8/n03001627_9/img_stylized_tv_chair_eames_plastic_armchair_2007-3_gray.png,foreground,same as foreground,n04405907_8,n02933112_-2,Stimuli/canonical view 2/img_n04405907_8_gray.jpg,Stimuli/canonical view 2/img_n02933112_-2_gray.jpg,random,left,Experiments/experiment_1/0.jpg,Experiments/experiment_1/1.jpg,Experiments/experiment_1/2.jpg,Experiments/experiment_1/3.jpg,900,1,2023-04-03_18h26.49.606,Occlusion_Psychophysics,2022.1.4,Win32,60.06006006,right,2.6356,left,"[""right""]",[1.4618000000007214],False,,0.0,0.0,0.0,0.0,0.0,1.0,,,,,,
,,,,,,,,,,,,,,,,,,,,,0.05,,,,,,,,,,Stimuli/psy_fixed_rotation_30_objects_occ0.7_0.9s/images/train/n02883344_15/n04379243_-7/img_microwave_box_quatre_dining_table_2014_gray.jpg,n02883344_15,n04379243_-7,fixed,0.818447,n04379243_-7,Stimuli/psy_fixed_rotation_30_objects_occ0.7_0.9s/images/train/n02883344_15/n04379243_-7/img_microwave_box_quatre_dining_table_2014-3_gray.png,foreground,same as foreground,n02883344_15,n04379243_-7,Stimuli/canonical view 2/img_n02883344_15_gray.jpg,Stimuli/canonical view 2/img_n04379243_-7_gray.jpg,foreground,right,Experiments/experiment_1/4.jpg,Experiments/experiment_1/5.jpg,Experiments/experiment_1/6.jpg,Experiments/experiment_1/7.jpg,900,1,2023-04-03_18h26.49.606,Occlusion_Psychophysics,2022.1.4,Win32,60.06006006,,,left,"[""left""]",[1.9139999999999873],False,,0.0,0.0,1.0,1.0,1.0,1.0,,,,,,
,,,,,,,,,,,,,,,,,,,,,0.05,,,,,,,,,,Stimuli/psy_fixed_rotation_30_objects_occ0.7_0.9s/images/train/n02828884_9/n03928116_0/img_cr-96_bench_b02_piano_2002_gray.jpg,n02828884_9,n03928116_0,fixed,0.734632,n03928116_0,Stimuli/psy_fixed_rotation_30_objects_occ0.7_0.9s/images/train/n02828884_9/n03928116_0/img_cr-96_bench_b02_piano_2002-3_gray.png,foreground,same as foreground,n02828884_9,n04405907_8,Stimuli/canonical view 2/img_n02828884_9_gray.jpg,Stimuli/canonical view 2/img_n04405907_8_gray.jpg,random,right,Experiments/experiment_1/8.jpg,Experiments/experiment_1/9.jpg,Experiments/experiment_1/10.jpg,Experiments/experiment_1/11.jpg,900,1,2023-04-03_18h26.49.606,Occlusion_Psychophysics,2022.1.4,Win32,60.06006006,,,left,"[""right""]",[2.4914999999999736],False,,0.0,0.0,2.0,2.0,2.0,1.0,,,,,,
,,,,,,,,,,,,,,,,,,,,,0.05,,,,,,,,,,Stimuli/psy_flexible_rotation_30_objects_occ0.7_0.9s/images/train/n02933112_-2/n04405907_5/img_sink_base_white_wood_samsung_40_uhd_smart_tv_2011_2000_gray.jpg,n02933112_-2,n04405907_5,flexible,0.741343,n04379243_0,Stimuli/psy_flexible_rotation_30_objects_occ0.7_0.9s/images/train/n02818832_3/n04379243_0/img_b05_ccm_contemporary_bed_max2013_17th_c._monastery_dining_table_2010_2008-3_gray.png,random,flexible,n02933112_-2,n04405907_5,Stimuli/canonical view 2/img_n02933112_-2_gray.jpg,Stimuli/canonical view 2/img_n04405907_5_gray.jpg,foreground,left,Experiments/experiment_1/12.jpg,Experiments/experiment_1/13.jpg,Experiments/experiment_1/14.jpg,Experiments/experiment_1/15.jpg,900,1,2023-04-03_18h26.49.606,Occlusion_Psychophysics,2022.1.4,Win32,60.06006006,,,left,"[""right""]",[1.3143000000007987],False,,0.0,0.0,3.0,3.0,3.0,1.0,,,,,,
,,,,,,,,,,,,,,,,,,,,,0.05,,,,,,,,,,Stimuli/psy_flexible_rotation_30_objects_occ0.7_0.9s/images/train/n02933112_-18/n02933112_-2/img_cgaxis_models_48_26_vray_composite_sink_base_white_wood_2008_gray.jpg,n02933112_-18,n02933112_-2,flexible,0.843762,n02883344_0,Stimuli/psy_fixed_rotation_30_objects_occ0.7_0.9s/images/train/n03001627_9/n02883344_0/img_chair_eames_plastic_armchair_b03_box_2000-3_gray.png,random,fixed,n02933112_-18,n04379243_8,Stimuli/canonical view 2/img_n02933112_-18_gray.jpg,Stimuli/canonical view 2/img_n04379243_8_gray.jpg,random,right,Experiments/experiment_1/16.jpg,Experiments/experiment_1/17.jpg,Experiments/experiment_1/18.jpg,Experiments/experiment_1/19.jpg,900,1,2023-04-03_18h26.49.606,Occlusion_Psychophysics,2022.1.4,Win32,60.06006006,,,right,"[""right""]",[1.4028999999984535],False,,0.0,0.0,4.0,4.0,4.0,1.0,,,,,,
,,,,,,,,,,,,,,,,,,,,,0.05,,,,,,,,,,Stimuli/psy_fixed_rotation_30_objects_occ0.7_0.9s/images/train/n02933112_4/n02828884_3/img_buffet_b04_wood_metal_park_bench_2013_gray.jpg,n02933112_4,n02828884_3,fixed,0.725734,n02828884_3,Stimuli/psy_fixed_rotation_30_objects_occ0.7_0.9s/images/train/n02933112_4/n02828884_3/img_buffet_b04_wood_metal_park_bench_2013-3_gray.png,foreground,same as foreground,n02933112_4,n02828884_3,Stimuli/canonical view 2/img_n02933112_4_gray.jpg,Stimuli/canonical view 2/img_n02828884_3_gray.jpg,foreground,right,Experiments/experiment_1/20.jpg,Experiments/experiment_1/21.jpg,Experiments/experiment_1/22.jpg,Experiments/experiment_1/23.jpg,900,1,2023-04-03_18h26.49.606,Occlusion_Psychophysics,2022.1.4,Win32,60.06006006,,,left,"[""right""]",[1.3453999999985626],False,,0.0,0.0,5.0,5.0,5.0,1.0,,,,,,
,,,,,,,,,,,,,,,,,,,,,0.05,,,,,,,,,,Stimuli/psy_flexible_rotation_30_objects_occ0.7_0.9s/images/train/n03001627_8/n04405907_5/img_chair_billiani_doll_samsung_40_uhd_smart_tv_2011_2001_gray.jpg,n03001627_8,n04405907_5,flexible,0.702889,n04405907_5,Stimuli/psy_flexible_rotation_30_objects_occ0.7_0.9s/images/train/n03001627_8/n04405907_5/img_chair_billiani_doll_samsung_40_uhd_smart_tv_2011_2001-3_gray.png,foreground,same as foreground,n03001627_8,n04379243_8,Stimuli/canonical view 2/img_n03001627_8_gray.jpg,Stimuli/canonical view 2/img_n04379243_8_gray.jpg,random,right,Experiments/experiment_1/24.jpg,Experiments/experiment_1/25.jpg,Experiments/experiment_1/26.jpg,Experiments/experiment_1/27.jpg,900,1,2023-04-03_18h26.49.606,Occlusion_Psychophysics,2022.1.4,Win32,60.06006006,,,right,"[""right""]",[1.1748999999985017],False,,0.0,0.0,6.0,6.0,6.0,1.0,,,,,,
,,,,,,,,,,,,,,,,,,,,,0.05,,,,,,,,,,Stimuli/psy_fixed_rotation_30_objects_occ0.7_0.9s/images/train/n02933112_4/n02828884_3/img_buffet_b04_wood_metal_park_bench_2012_gray.jpg,n02933112_4,n02828884_3,fixed,0.809634,n02828884_3,Stimuli/psy_fixed_rotation_30_objects_occ0.7_0.9s/images/train/n02933112_4/n02828884_3/img_buffet_b04_wood_metal_park_bench_2012-3_gray.png,foreground,same as foreground,n02933112_4,n02828884_3,Stimuli/canonical view 2/img_n02933112_4_gray.jpg,Stimuli/canonical view 2/img_n02828884_3_gray.jpg,foreground,left,Experiments/experiment_1/28.jpg,Experiments/experiment_1/29.jpg,Experiments/experiment_1/30.jpg,Experiments/experiment_1/31.jpg,900,1,2023-04-03_18h26.49.606,Occlusion_Psychophysics,2022.1.4,Win32,60.06006006,,,left,"[""left""]",[1.9383999999985235],False,,0.0,0.0,7.0,7.0,7.0,1.0,,,,,,
,,,,,,,,,,,,,,,,,,,,,0.025,,,,,,,,,,Stimuli/psy_fixed_rotation_30_objects_occ0.7_0.9s/images/train/n04256520_4/n04405907_9/img_club_house_italia_nautilus_sofa_vray_004_2012_gray.jpg,n04256520_4,n04405907_9,fixed,0.708056,n04405907_9,Stimuli/psy_fixed_rotation_30_objects_occ0.7_0.9s/images/train/n04256520_4/n04405907_9/img_club_house_italia_nautilus_sofa_vray_004_2012-3_gray.png,foreground,same as foreground,n04256520_4,n04405907_9,Stimuli/canonical view 2/img_n04256520_4_gray.jpg,Stimuli/canonical view 2/img_n04405907_9_gray.jpg,foreground,right,Experiments/experiment_1/32.jpg,Experiments/experiment_1/33.jpg,Experiments/experiment_1/34.jpg,Experiments/experiment_1/35.jpg,900,1,2023-04-03_18h26.49.606,Occlusion_Psychophysics,2022.1.4,Win32,60.06006006,,,right,"[""right""]",[1.502399999998488],False,,0.0,0.0,8.0,8.0,8.0,1.0,,,,,,
,,,,,,,,,,,,,,,,,,,,,0.025,,,,,,,,,,Stimuli/psy_flexible_rotation_30_objects_occ0.7_0.9s/images/train/n02818832_3/n02883344_0/img_b05_ccm_contemporary_bed_max2013_b03_box_2002_gray.jpg,n02818832_3,n02883344_0,flexible,0.737137,n02883344_0,Stimuli/psy_flexible_rotation_30_objects_occ0.7_0.9s/images/train/n02818832_3/n02883344_0/img_b05_ccm_contemporary_bed_max2013_b03_box_2002-3_gray.png,foreground,same as foreground,n02818832_3,n04379243_-7,Stimuli/canonical view 2/img_n02818832_3_gray.jpg,Stimuli/canonical view 2/img_n04379243_-7_gray.jpg,random,left,Experiments/experiment_1/36.jpg,Experiments/experiment_1/37.jpg,Experiments/experiment_1/38.jpg,Experiments/experiment_1/39.jpg,900,1,2023-04-03_18h26.49.606,Occlusion_Psychophysics,2022.1.4,Win32,60.06006006,,,left,"[""left""]",[2.6941999999992277],False,,0.0,0.0,9.0,9.0,9.0,1.0,,,,,,
,,,,,,,,,,,,,,,,,,,,,0.05,,,,,,,,,,Stimuli/psy_fixed_rotation_30_objects_occ0.7_0.9s/images/train/n04405907_9/n03928116_4/img_vray_004_dp_33_b_2013__vray_2000_gray.jpg,n04405907_9,n03928116_4,fixed,0.701733,n03001627_8,Stimuli/psy_fixed_rotation_30_objects_occ0.7_0.9s/images/train/n03928116_0/n03001627_8/img_b02_piano_chair_billiani_doll_2008-3_gray.png,random,fixed,n04405907_9,n02828884_3,Stimuli/canonical view 2/img_n04405907_9_gray.jpg,Stimuli/canonical view 2/img_n02828884_3_gray.jpg,random,right,Experiments/experiment_1/40.jpg,Experiments/experiment_1/41.jpg,Experiments/experiment_1/42.jpg,Experiments/experiment_1/43.jpg,900,1,2023-04-03_18h26.49.606,Occlusion_Psychophysics,2022.1.4,Win32,60.06006006,,,right,"[""left""]",[2.213800000000788],False,,0.0,0.0,10.0,10.0,10.0,1.0,,,,,,
,,,,,,,,,,,,,,,,,,,,,0.025,,,,,,,,,,Stimuli/psy_fixed_rotation_30_objects_occ0.7_0.9s/images/train/n03001627_9/n03928116_10/img_chair_eames_plastic_armchair_ydp_103_r_2012__vray_2010_gray.jpg,n03001627_9,n03928116_10,fixed,0.774082,n02883344_0,Stimuli/psy_flexible_rotation_30_objects_occ0.7_0.9s/images/train/n02933112_4/n02883344_0/img_buffet_b03_box_2015-3_gray.png,random,flexible,n03001627_9,n03928116_0,Stimuli/canonical view 2/img_n03001627_9_gray.jpg,Stimuli/canonical view 2/img_n03928116_0_gray.jpg,random,left,Experiments/experiment_1/44.jpg,Experiments/experiment_1/45.jpg,Experiments/experiment_1/46.jpg,Experiments/experiment_1/47.jpg,900,1,2023-04-03_18h26.49.606,Occlusion_Psychophysics,2022.1.4,Win32,60.06006006,,,left,"[""left""]",[1.3711999999992486],False,,0.0,0.0,11.0,11.0,11.0,1.0,,,,,,
,,,,,,,,,,,,,,,,,,,,,0.025,,,,,,,,,,Stimuli/psy_fixed_rotation_30_objects_occ0.7_0.9s/images/train/n02933112_4/n04405907_8/img_buffet_stylized_tv_2014_gray.jpg,n02933112_4,n04405907_8,fixed,0.705389,n04405907_8,Stimuli/psy_fixed_rotation_30_objects_occ0.7_0.9s/images/train/n02933112_4/n04405907_8/img_buffet_stylized_tv_2014-3_gray.png,foreground,same as foreground,n02933112_4,n04405907_8,Stimuli/canonical view 2/img_n02933112_4_gray.jpg,Stimuli/canonical view 2/img_n04405907_8_gray.jpg,foreground,left,Experiments/experiment_1/48.jpg,Experiments/experiment_1/49.jpg,Experiments/experiment_1/50.jpg,Experiments/experiment_1/51.jpg,900,1,2023-04-03_18h26.49.606,Occlusion_Psychophysics,2022.1.4,Win32,60.06006006,,,right,"[""right""]",[1.1376999999991995],False,,0.0,0.0,12.0,12.0,12.0,1.0,,,,,,
,,,,,,,,,,,,,,,,,,,,,0.05,,,,,,,,,,Stimuli/psy_flexible_rotation_30_objects_occ0.7_0.9s/images/train/n03001627_8/n02933112_-2/img_chair_billiani_doll_sink_base_white_wood_2015_gray.jpg,n03001627_8,n02933112_-2,flexible,0.791697,n02933112_-2,Stimuli/psy_flexible_rotation_30_objects_occ0.7_0.9s/images/train/n03001627_8/n02933112_-2/img_chair_billiani_doll_sink_base_white_wood_2015-3_gray.png,foreground,same as foreground,n03001627_8,n02818832_0,Stimuli/canonical view 2/img_n03001627_8_gray.jpg,Stimuli/canonical view 2/img_n02818832_0_gray.jpg,random,right,Experiments/experiment_1/52.jpg,Experiments/experiment_1/53.jpg,Experiments/experiment_1/54.jpg,Experiments/experiment_1/55.jpg,900,1,2023-04-03_18h26.49.606,Occlusion_Psychophysics,2022.1.4,Win32,60.06006006,,,right,"[""right""]",[1.607300000000805],False,,0.0,0.0,13.0,13.0,13.0,1.0,,,,,,
,,,,,,,,,,,,,,,,,,,,,0.025,,,,,,,,,,Stimuli/psy_flexible_rotation_30_objects_occ0.7_0.9s/images/train/n03928116_10/n02933112_4/img_ydp_103_r_2012__vray_buffet_2005_gray.jpg,n03928116_10,n02933112_4,flexible,0.817419,n02933112_4,Stimuli/psy_flexible_rotation_30_objects_occ0.7_0.9s/images/train/n03928116_10/n02933112_4/img_ydp_103_r_2012__vray_buffet_2005-3_gray.png,foreground,same as foreground,n03928116_10,n02933112_4,Stimuli/canonical view 2/img_n03928116_10_gray.jpg,Stimuli/canonical view 2/img_n02933112_4_gray.jpg,foreground,right,Experiments/experiment_1/56.jpg,Experiments/experiment_1/57.jpg,Experiments/experiment_1/58.jpg,Experiments/experiment_1/59.jpg,900,1,2023-04-03_18h26.49.606,Occlusion_Psychophysics,2022.1.4,Win32,60.06006006,,,left,,,False,,0.0,0.0,14.0,14.0,14.0,1.0,,,,,,
,,,,,,,,,,,,,,,,,,,,,0.025,,,,,,,,,,Stimuli/psy_fixed_rotation_30_objects_occ0.7_0.9s/images/train/n04256520_5/n02883344_0/img_meridiani_belmondo_bench_sofa_b03_box_2002_gray.jpg,n04256520_5,n02883344_0,fixed,0.813396,n02883344_0,Stimuli/psy_fixed_rotation_30_objects_occ0.7_0.9s/images/train/n04256520_5/n02883344_0/img_meridiani_belmondo_bench_sofa_b03_box_2002-3_gray.png,foreground,same as foreground,n04256520_5,n02883344_0,Stimuli/canonical view 2/img_n04256520_5_gray.jpg,Stimuli/canonical view 2/img_n02883344_0_gray.jpg,foreground,right,Experiments/experiment_1/60.jpg,Experiments/experiment_1/61.jpg,Experiments/experiment_1/62.jpg,Experiments/experiment_1/63.jpg,900,1,2023-04-03_18h26.49.606,Occlusion_Psychophysics,2022.1.4,Win32,60.06006006,,,right,"[""left""]",[0.9846000000014783],False,,0.0,0.0,15.0,15.0,15.0,1.0,,,,,,
,,,,,,,,,,,,,,,,,,,,,0.05,,,,,,,,,,Stimuli/psy_fixed_rotation_30_objects_occ0.7_0.9s/images/train/n02883344_0/n04379243_0/img_b03_box_17th_c._monastery_dining_table_2010_2007_gray.jpg,n02883344_0,n04379243_0,fixed,0.767877,n04379243_0,Stimuli/psy_fixed_rotation_30_objects_occ0.7_0.9s/images/train/n02883344_0/n04379243_0/img_b03_box_17th_c._monastery_dining_table_2010_2007-3_gray.png,foreground,same as foreground,n02883344_0,n04379243_0,Stimuli/canonical view 2/img_n02883344_0_gray.jpg,Stimuli/canonical view 2/img_n04379243_0_gray.jpg,foreground,left,Experiments/experiment_1/64.jpg,Experiments/experiment_1/65.jpg,Experiments/experiment_1/66.jpg,Experiments/experiment_1/67.jpg,900,1,2023-04-03_18h26.49.606,Occlusion_Psychophysics,2022.1.4,Win32,60.06006006,,,left,"[""right""]",[0.9334999999999809],False,,0.0,0.0,16.0,16.0,16.0,1.0,,,,,,
,,,,,,,,,,,,,,,,,,,,,0.025,,,,,,,,,,Stimuli/psy_flexible_rotation_30_objects_occ0.7_0.9s/images/train/n02828884_4/n04379243_0/img_b05_c-5_classic_series_bench-2012_17th_c._monastery_dining_table_2010_2002_gray.jpg,n02828884_4,n04379243_0,flexible,0.70215,n04379243_0,Stimuli/psy_flexible_rotation_30_objects_occ0.7_0.9s/images/train/n02828884_4/n04379243_0/img_b05_c-5_classic_series_bench-2012_17th_c._monastery_dining_table_2010_2002-3_gray.png,foreground,same as foreground,n02828884_4,n04379243_0,Stimuli/canonical view 2/img_n02828884_4_gray.jpg,Stimuli/canonical view 2/img_n04379243_0_gray.jpg,foreground,right,Experiments/experiment_1/68.jpg,Experiments/experiment_1/69.jpg,Experiments/experiment_1/70.jpg,Experiments/experiment_1/71.jpg,900,1,2023-04-03_18h26.49.606,Occlusion_Psychophysics,2022.1.4,Win32,60.06006006,,,right,"[""left""]",[1.5650000000000546],True,right,1.0,0.0,17.0,17.0,17.0,1.0,0.9916,,,,,
,,,,,,,,,,,,,,,,,,,,,0.05,,,,,,,,,,Stimuli/psy_flexible_rotation_30_objects_occ0.7_0.9s/images/train/n02818832_3/n03928116_0/img_b05_ccm_contemporary_bed_max2013_b02_piano_2011_gray.jpg,n02818832_3,n03928116_0,flexible,0.709015,n04256520_9,Stimuli/psy_fixed_rotation_30_objects_occ0.7_0.9s/images/train/n02818832_0/n04256520_9/img_b03_the_sofa_and_chair_company_-_stanley_bed_2014_napoleon_iii_sofa_2003-3_gray.png,random,fixed,n02818832_3,n04405907_5,Stimuli/canonical view 2/img_n02818832_3_gray.jpg,Stimuli/canonical view 2/img_n04405907_5_gray.jpg,random,right,Experiments/experiment_1/72.jpg,Experiments/experiment_1/73.jpg,Experiments/experiment_1/74.jpg,Experiments/experiment_1/75.jpg,900,1,2023-04-03_18h26.49.606,Occlusion_Psychophysics,2022.1.4,Win32,60.06006006,,,right,"[""right""]",[1.6618999999985817],False,,0.0,0.0,18.0,18.0,18.0,1.0,,,,,,
,,,,,,,,,,,,,,,,,,,,,0.05,,,,,,,,,,Stimuli/psy_flexible_rotation_30_objects_occ0.7_0.9s/images/train/n04405907_8/n03001627_8/img_stylized_tv_chair_billiani_doll_2014_gray.jpg,n04405907_8,n03001627_8,flexible,0.774,n03001627_8,Stimuli/psy_flexible_rotation_30_objects_occ0.7_0.9s/images/train/n04405907_8/n03001627_8/img_stylized_tv_chair_billiani_doll_2014-3_gray.png,foreground,same as foreground,n04405907_8,n03001627_8,Stimuli/canonical view 2/img_n04405907_8_gray.jpg,Stimuli/canonical view 2/img_n03001627_8_gray.jpg,foreground,right,Experiments/experiment_1/76.jpg,Experiments/experiment_1/77.jpg,Experiments/experiment_1/78.jpg,Experiments/experiment_1/79.jpg,900,1,2023-04-03_18h26.49.606,Occlusion_Psychophysics,2022.1.4,Win32,60.06006006,,,left,"[""left""]",[0.9624999999999773],False,,0.0,0.0,19.0,19.0,19.0,1.0,,,,,,
,,,,,,,,,,,,,,,,,,,,,0.025,,,,,,,,,,Stimuli/psy_flexible_rotation_30_objects_occ0.7_0.9s/images/train/n02883344_15/n04379243_-7/img_microwave_box_quatre_dining_table_2007_gray.jpg,n02883344_15,n04379243_-7,flexible,0.776182,n04379243_-7,Stimuli/psy_flexible_rotation_30_objects_occ0.7_0.9s/images/train/n02883344_15/n04379243_-7/img_microwave_box_quatre_dining_table_2007-3_gray.png,foreground,same as foreground,n02883344_15,n04256520_4,Stimuli/canonical view 2/img_n02883344_15_gray.jpg,Stimuli/canonical view 2/img_n04256520_4_gray.jpg,random,right,Experiments/experiment_1/80.jpg,Experiments/experiment_1/81.jpg,Experiments/experiment_1/82.jpg,Experiments/experiment_1/83.jpg,900,1,2023-04-03_18h26.49.606,Occlusion_Psychophysics,2022.1.4,Win32,60.06006006,,,right,"[""right""]",[1.134999999999991],False,,0.0,0.0,20.0,20.0,20.0,1.0,,,,,,
,,,,,,,,,,,,,,,,,,,,,0.05,,,,,,,,,,Stimuli/psy_flexible_rotation_30_objects_occ0.7_0.9s/images/train/n04379243_-7/n04256520_4/img_quatre_dining_table_club_house_italia_nautilus_sofa_2013_gray.jpg,n04379243_-7,n04256520_4,flexible,0.796046,n04256520_4,Stimuli/psy_flexible_rotation_30_objects_occ0.7_0.9s/images/train/n04379243_-7/n04256520_4/img_quatre_dining_table_club_house_italia_nautilus_sofa_2013-3_gray.png,foreground,same as foreground,n04379243_-7,n04256520_4,Stimuli/canonical view 2/img_n04379243_-7_gray.jpg,Stimuli/canonical view 2/img_n04256520_4_gray.jpg,foreground,right,Experiments/experiment_1/84.jpg,Experiments/experiment_1/85.jpg,Experiments/experiment_1/86.jpg,Experiments/experiment_1/87.jpg,900,1,2023-04-03_18h26.49.606,Occlusion_Psychophysics,2022.1.4,Win32,60.06006006,,,left,"[""left""]",[1.6959000000022115],False,,0.0,0.0,21.0,21.0,21.0,1.0,,,,,,
,,,,,,,,,,,,,,,,,,,,,0.025,,,,,,,,,,Stimuli/psy_flexible_rotation_30_objects_occ0.7_0.9s/images/train/n04379243_-7/n04256520_4/img_quatre_dining_table_club_house_italia_nautilus_sofa_2011_gray.jpg,n04379243_-7,n04256520_4,flexible,0.811847,n04256520_4,Stimuli/psy_flexible_rotation_30_objects_occ0.7_0.9s/images/train/n04379243_-7/n04256520_4/img_quatre_dining_table_club_house_italia_nautilus_sofa_2011-3_gray.png,foreground,same as foreground,n04379243_-7,n02818832_0,Stimuli/canonical view 2/img_n04379243_-7_gray.jpg,Stimuli/canonical view 2/img_n02818832_0_gray.jpg,random,right,Experiments/experiment_1/88.jpg,Experiments/experiment_1/89.jpg,Experiments/experiment_1/90.jpg,Experiments/experiment_1/91.jpg,900,1,2023-04-03_18h26.49.606,Occlusion_Psychophysics,2022.1.4,Win32,60.06006006,,,left,"[""left""]",[1.0591999999993504],False,,0.0,0.0,22.0,22.0,22.0,1.0,,,,,,
,,,,,,,,,,,,,,,,,,,,,0.025,,,,,,,,,,Stimuli/psy_flexible_rotation_30_objects_occ0.7_0.9s/images/train/n03928116_0/n02933112_-2/img_b02_piano_sink_base_white_wood_2009_gray.jpg,n03928116_0,n02933112_-2,flexible,0.722569,n02933112_-2,Stimuli/psy_flexible_rotation_30_objects_occ0.7_0.9s/images/train/n03928116_0/n02933112_-2/img_b02_piano_sink_base_white_wood_2009-3_gray.png,foreground,same as foreground,n03928116_0,n02933112_-2,Stimuli/canonical view 2/img_n03928116_0_gray.jpg,Stimuli/canonical view 2/img_n02933112_-2_gray.jpg,foreground,right,Experiments/experiment_1/92.jpg,Experiments/experiment_1/93.jpg,Experiments/experiment_1/94.jpg,Experiments/experiment_1/95.jpg,900,1,2023-04-03_18h26.49.606,Occlusion_Psychophysics,2022.1.4,Win32,60.06006006,,,left,"[""left""]",[1.7402999999970916],False,,0.0,0.0,23.0,23.0,23.0,1.0,,,,,,
,,,,,,,,,,,,,,,,,,,,,0.025,,,,,,,,,,Stimuli/psy_flexible_rotation_30_objects_occ0.7_0.9s/images/train/n04379243_-7/n03928116_0/img_quatre_dining_table_b02_piano_2000_gray.jpg,n04379243_-7,n03928116_0,flexible,0.71118,n04256520_4,Stimuli/psy_flexible_rotation_30_objects_occ0.7_0.9s/images/train/n02818832_9/n04256520_4/img_bed01_blue_club_house_italia_nautilus_sofa_2015-3_gray.png,random,flexible,n04379243_-7,n03928116_0,Stimuli/canonical view 2/img_n04379243_-7_gray.jpg,Stimuli/canonical view 2/img_n03928116_0_gray.jpg,foreground,right,Experiments/experiment_1/96.jpg,Experiments/experiment_1/97.jpg,Experiments/experiment_1/98.jpg,Experiments/experiment_1/99.jpg,900,1,2023-04-03_18h26.49.606,Occlusion_Psychophysics,2022.1.4,Win32,60.06006006,,,left,"[""left""]",[1.2074000000022806],False,,0.0,0.0,24.0,24.0,24.0,1.0,,,,,,
,,,,,,,,,,,,,,,,,,,,,0.05,,,,,,,,,,Stimuli/psy_flexible_rotation_30_objects_occ0.7_0.9s/images/train/n02883344_0/n02828884_9/img_b03_box_cr-96_bench_2010_gray.jpg,n02883344_0,n02828884_9,flexible,0.708462,n02818832_9,Stimuli/psy_fixed_rotation_30_objects_occ0.7_0.9s/images/train/n02933112_-18/n02818832_9/img_cgaxis_models_48_26_vray_composite_bed01_blue_2005-3_gray.png,random,fixed,n02883344_0,n02828884_9,Stimuli/canonical view 2/img_n02883344_0_gray.jpg,Stimuli/canonical view 2/img_n02828884_9_gray.jpg,foreground,left,Experiments/experiment_1/100.jpg,Experiments/experiment_1/101.jpg,Experiments/experiment_1/102.jpg,Experiments/experiment_1/103.jpg,900,1,2023-04-03_18h26.49.606,Occlusion_Psychophysics,2022.1.4,Win32,60.06006006,,,left,"[""left""]",[1.2525000000000546],False,,0.0,0.0,25.0,25.0,25.0,1.0,,,,,,
,,,,,,,,,,,,,,,,,,,,,0.05,,,,,,,,,,Stimuli/psy_fixed_rotation_30_objects_occ0.7_0.9s/images/train/n04405907_9/n03001627_8/img_vray_004_chair_billiani_doll_2009_gray.jpg,n04405907_9,n03001627_8,fixed,0.730911,n02818832_9,Stimuli/psy_flexible_rotation_30_objects_occ0.7_0.9s/images/train/n03928116_10/n02818832_9/img_ydp_103_r_2012__vray_bed01_blue_2004-3_gray.png,random,flexible,n04405907_9,n02818832_0,Stimuli/canonical view 2/img_n04405907_9_gray.jpg,Stimuli/canonical view 2/img_n02818832_0_gray.jpg,random,right,Experiments/experiment_1/104.jpg,Experiments/experiment_1/105.jpg,Experiments/experiment_1/106.jpg,Experiments/experiment_1/107.jpg,900,1,2023-04-03_18h26.49.606,Occlusion_Psychophysics,2022.1.4,Win32,60.06006006,,,left,"[""right""]",[1.1248000000007323],False,,0.0,0.0,26.0,26.0,26.0,1.0,,,,,,
,,,,,,,,,,,,,,,,,,,,,0.025,,,,,,,,,,Stimuli/psy_fixed_rotation_30_objects_occ0.7_0.9s/images/train/n02818832_0/n02933112_-2/img_b03_the_sofa_and_chair_company_-_stanley_bed_2014_sink_base_white_wood_2007_gray.jpg,n02818832_0,n02933112_-2,fixed,0.72877,n04256520_5,Stimuli/psy_flexible_rotation_30_objects_occ0.7_0.9s/images/train/n02883344_0/n04256520_5/img_b03_box_meridiani_belmondo_bench_sofa_2002-3_gray.png,random,flexible,n02818832_0,n04256520_5,Stimuli/canonical view 2/img_n02818832_0_gray.jpg,Stimuli/canonical view 2/img_n04256520_5_gray.jpg,random,left,Experiments/experiment_1/108.jpg,Experiments/experiment_1/109.jpg,Experiments/experiment_1/110.jpg,Experiments/experiment_1/111.jpg,900,1,2023-04-03_18h26.49.606,Occlusion_Psychophysics,2022.1.4,Win32,60.06006006,,,left,"[""left""]",[1.2761999999992213],False,,0.0,0.0,27.0,27.0,27.0,1.0,,,,,,
,,,,,,,,,,,,,,,,,,,,,0.025,,,,,,,,,,Stimuli/psy_flexible_rotation_30_objects_occ0.7_0.9s/images/train/n02818832_0/n04405907_9/img_b03_the_sofa_and_chair_company_-_stanley_bed_2014_vray_004_2002_gray.jpg,n02818832_0,n04405907_9,flexible,0.759273,n04405907_9,Stimuli/psy_flexible_rotation_30_objects_occ0.7_0.9s/images/train/n02818832_0/n04405907_9/img_b03_the_sofa_and_chair_company_-_stanley_bed_2014_vray_004_2002-3_gray.png,foreground,same as foreground,n02818832_0,n04405907_9,Stimuli/canonical view 2/img_n02818832_0_gray.jpg,Stimuli/canonical view 2/img_n04405907_9_gray.jpg,foreground,left,Experiments/experiment_1/112.jpg,Experiments/experiment_1/113.jpg,Experiments/experiment_1/114.jpg,Experiments/experiment_1/115.jpg,900,1,2023-04-03_18h26.49.606,Occlusion_Psychophysics,2022.1.4,Win32,60.06006006,,,right,"[""right""]",[0.91050000000007],False,,0.0,0.0,28.0,28.0,28.0,1.0,,,,,,
,,,,,,,,,,,,,,,,,,,,,0.05,,,,,,,,,,Stimuli/psy_flexible_rotation_30_objects_occ0.7_0.9s/images/train/n02818832_3/n02883344_0/img_b05_ccm_contemporary_bed_max2013_b03_box_2006_gray.jpg,n02818832_3,n02883344_0,flexible,0.719592,n02883344_0,Stimuli/psy_flexible_rotation_30_objects_occ0.7_0.9s/images/train/n02818832_3/n02883344_0/img_b05_ccm_contemporary_bed_max2013_b03_box_2006-3_gray.png,foreground,same as foreground,n02818832_3,n02933112_-2,Stimuli/canonical view 2/img_n02818832_3_gray.jpg,Stimuli/canonical view 2/img_n02933112_-2_gray.jpg,random,right,Experiments/experiment_1/116.jpg,Experiments/experiment_1/117.jpg,Experiments/experiment_1/118.jpg,Experiments/experiment_1/119.jpg,900,1,2023-04-03_18h26.49.606,Occlusion_Psychophysics,2022.1.4,Win32,60.06006006,,,left,"[""right""]",[1.094000000000051],False,,0.0,0.0,29.0,29.0,29.0,1.0,,,,,,
,,,,,,,,,,,,,,,,,,,,,0.05,,,,,,,,,,Stimuli/psy_flexible_rotation_30_objects_occ0.7_0.9s/images/train/n03928116_4/n02933112_-2/img_dp_33_b_2013__vray_sink_base_white_wood_2008_gray.jpg,n03928116_4,n02933112_-2,flexible,0.782317,n02818832_3,Stimuli/psy_fixed_rotation_30_objects_occ0.7_0.9s/images/train/n02828884_4/n02818832_3/img_b05_c-5_classic_series_bench-2012_b05_ccm_contemporary_bed_max2013_2012-3_gray.png,random,fixed,n03928116_4,n02933112_-2,Stimuli/canonical view 2/img_n03928116_4_gray.jpg,Stimuli/canonical view 2/img_n02933112_-2_gray.jpg,foreground,left,Experiments/experiment_1/120.jpg,Experiments/experiment_1/121.jpg,Experiments/experiment_1/122.jpg,Experiments/experiment_1/123.jpg,900,1,2023-04-03_18h26.49.606,Occlusion_Psychophysics,2022.1.4,Win32,60.06006006,,,left,"[""left""]",[0.8291999999993322],False,,0.0,0.0,30.0,30.0,30.0,1.0,,,,,,
,,,,,,,,,,,,,,,,,,,,,0.025,,,,,,,,,,Stimuli/psy_fixed_rotation_30_objects_occ0.7_0.9s/images/train/n02933112_-18/n03001627_8/img_cgaxis_models_48_26_vray_composite_chair_billiani_doll_2002_gray.jpg,n02933112_-18,n03001627_8,fixed,0.723873,n03001627_8,Stimuli/psy_fixed_rotation_30_objects_occ0.7_0.9s/images/train/n02933112_-18/n03001627_8/img_cgaxis_models_48_26_vray_composite_chair_billiani_doll_2002-3_gray.png,foreground,same as foreground,n02933112_-18,n04256520_9,Stimuli/canonical view 2/img_n02933112_-18_gray.jpg,Stimuli/canonical view 2/img_n04256520_9_gray.jpg,random,left,Experiments/experiment_1/124.jpg,Experiments/experiment_1/125.jpg,Experiments/experiment_1/126.jpg,Experiments/experiment_1/127.jpg,900,1,2023-04-03_18h26.49.606,Occlusion_Psychophysics,2022.1.4,Win32,60.06006006,,,left,"[""left""]",[0.9381999999992559],False,,0.0,0.0,31.0,31.0,31.0,1.0,,,,,,
,,,,,,,,,,,,,,,,,,,,,0.025,,,,,,,,,,Stimuli/psy_fixed_rotation_30_objects_occ0.7_0.9s/images/train/n02883344_-1/n04405907_9/img_woven_box_vray_004_2009_gray.jpg,n02883344_-1,n04405907_9,fixed,0.87604,n02883344_-1,Stimuli/psy_flexible_rotation_30_objects_occ0.7_0.9s/images/train/n02933112_-2/n02883344_-1/img_sink_base_white_wood_woven_box_2003-3_gray.png,random,flexible,n02883344_-1,n04405907_9,Stimuli/canonical view 2/img_n02883344_-1_gray.jpg,Stimuli/canonical view 2/img_n04405907_9_gray.jpg,foreground,left,Experiments/experiment_1/128.jpg,Experiments/experiment_1/129.jpg,Experiments/experiment_1/130.jpg,Experiments/experiment_1/131.jpg,900,1,2023-04-03_18h26.49.606,Occlusion_Psychophysics,2022.1.4,Win32,60.06006006,,,right,"[""right""]",[1.4201999999992267],False,,0.0,0.0,32.0,32.0,32.0,1.0,,,,,,
,,,,,,,,,,,,,,,,,,,,,0.05,,,,,,,,,,Stimuli/psy_fixed_rotation_30_objects_occ0.7_0.9s/images/train/n03001627_9/n02933112_4/img_chair_eames_plastic_armchair_buffet_2010_gray.jpg,n03001627_9,n02933112_4,fixed,0.780855,n02933112_4,Stimuli/psy_fixed_rotation_30_objects_occ0.7_0.9s/images/train/n03001627_9/n02933112_4/img_chair_eames_plastic_armchair_buffet_2010-3_gray.png,foreground,same as foreground,n03001627_9,n02818832_9,Stimuli/canonical view 2/img_n03001627_9_gray.jpg,Stimuli/canonical view 2/img_n02818832_9_gray.jpg,random,left,Experiments/experiment_1/132.jpg,Experiments/experiment_1/133.jpg,Experiments/experiment_1/134.jpg,Experiments/experiment_1/135.jpg,900,1,2023-04-03_18h26.49.606,Occlusion_Psychophysics,2022.1.4,Win32,60.06006006,,,right,"[""right""]",[1.2408999999985326],False,,0.0,0.0,33.0,33.0,33.0,1.0,,,,,,
,,,,,,,,,,,,,,,,,,,,,0.05,,,,,,,,,,Stimuli/psy_flexible_rotation_30_objects_occ0.7_0.9s/images/train/n02883344_15/n04379243_-7/img_microwave_box_quatre_dining_table_2010_gray.jpg,n02883344_15,n04379243_-7,flexible,0.753517,n04379243_-7,Stimuli/psy_flexible_rotation_30_objects_occ0.7_0.9s/images/train/n02883344_15/n04379243_-7/img_microwave_box_quatre_dining_table_2010-3_gray.png,foreground,same as foreground,n02883344_15,n04405907_8,Stimuli/canonical view 2/img_n02883344_15_gray.jpg,Stimuli/canonical view 2/img_n04405907_8_gray.jpg,random,right,Experiments/experiment_1/136.jpg,Experiments/experiment_1/137.jpg,Experiments/experiment_1/138.jpg,Experiments/experiment_1/139.jpg,900,1,2023-04-03_18h26.49.606,Occlusion_Psychophysics,2022.1.4,Win32,60.06006006,,,right,"[""left""]",[1.0903000000007523],False,,0.0,0.0,34.0,34.0,34.0,1.0,,,,,,
,,,,,,,,,,,,,,,,,,,,,0.025,,,,,,,,,,Stimuli/psy_fixed_rotation_30_objects_occ0.7_0.9s/images/train/n03001627_9/n02883344_0/img_chair_eames_plastic_armchair_b03_box_2012_gray.jpg,n03001627_9,n02883344_0,fixed,0.738181,n02883344_0,Stimuli/psy_fixed_rotation_30_objects_occ0.7_0.9s/images/train/n03001627_9/n02883344_0/img_chair_eames_plastic_armchair_b03_box_2012-3_gray.png,foreground,same as foreground,n03001627_9,n04256520_9,Stimuli/canonical view 2/img_n03001627_9_gray.jpg,Stimuli/canonical view 2/img_n04256520_9_gray.jpg,random,left,Experiments/experiment_1/140.jpg,Experiments/experiment_1/141.jpg,Experiments/experiment_1/142.jpg,Experiments/experiment_1/143.jpg,900,1,2023-04-03_18h26.49.606,Occlusion_Psychophysics,2022.1.4,Win32,60.06006006,,,right,"[""right""]",[0.8731000000015001],True,left,1.0,0.0,35.0,35.0,35.0,1.0,0.862,,,,,
,,,,,,,,,,,,,,,,,,,,,0.05,,,,,,,,,,Stimuli/psy_fixed_rotation_30_objects_occ0.7_0.9s/images/train/n04379243_0/n04405907_8/img_17th_c._monastery_dining_table_2010_stylized_tv_2014_gray.jpg,n04379243_0,n04405907_8,fixed,0.725295,n02883344_15,Stimuli/psy_fixed_rotation_30_objects_occ0.7_0.9s/images/train/n02818832_9/n02883344_15/img_bed01_blue_microwave_box_2006-3_gray.png,random,fixed,n04379243_0,n04405907_8,Stimuli/canonical view 2/img_n04379243_0_gray.jpg,Stimuli/canonical view 2/img_n04405907_8_gray.jpg,foreground,left,Experiments/experiment_1/144.jpg,Experiments/experiment_1/145.jpg,Experiments/experiment_1/146.jpg,Experiments/experiment_1/147.jpg,900,1,2023-04-03_18h26.49.606,Occlusion_Psychophysics,2022.1.4,Win32,60.06006006,,,right,"[""right""]",[0.7722000000030675],False,,0.0,0.0,36.0,36.0,36.0,1.0,,,,,,
,,,,,,,,,,,,,,,,,,,,,0.025,,,,,,,,,,Stimuli/psy_flexible_rotation_30_objects_occ0.7_0.9s/images/train/n02883344_-1/n02883344_0/img_woven_box_b03_box_2006_gray.jpg,n02883344_-1,n02883344_0,flexible,0.734576,n02883344_0,Stimuli/psy_flexible_rotation_30_objects_occ0.7_0.9s/images/train/n02883344_-1/n02883344_0/img_woven_box_b03_box_2006-3_gray.png,foreground,same as foreground,n02883344_-1,n02828884_9,Stimuli/canonical view 2/img_n02883344_-1_gray.jpg,Stimuli/canonical view 2/img_n02828884_9_gray.jpg,random,left,Experiments/experiment_1/148.jpg,Experiments/experiment_1/149.jpg,Experiments/experiment_1/150.jpg,Experiments/experiment_1/151.jpg,900,1,2023-04-03_18h26.49.606,Occlusion_Psychophysics,2022.1.4,Win32,60.06006006,,,right,"[""right""]",[1.3790999999976066],False,,0.0,0.0,37.0,37.0,37.0,1.0,,,,,,
,,,,,,,,,,,,,,,,,,,,,0.05,,,,,,,,,,Stimuli/psy_flexible_rotation_30_objects_occ0.7_0.9s/images/train/n02883344_0/n02933112_-18/img_b03_box_cgaxis_models_48_26_vray_composite_2005_gray.jpg,n02883344_0,n02933112_-18,flexible,0.793155,n02933112_-18,Stimuli/psy_flexible_rotation_30_objects_occ0.7_0.9s/images/train/n02883344_0/n02933112_-18/img_b03_box_cgaxis_models_48_26_vray_composite_2005-3_gray.png,foreground,same as foreground,n02883344_0,n02933112_-18,Stimuli/canonical view 2/img_n02883344_0_gray.jpg,Stimuli/canonical view 2/img_n02933112_-18_gray.jpg,foreground,left,Experiments/experiment_1/152.jpg,Experiments/experiment_1/153.jpg,Experiments/experiment_1/154.jpg,Experiments/experiment_1/155.jpg,900,1,2023-04-03_18h26.49.606,Occlusion_Psychophysics,2022.1.4,Win32,60.06006006,,,right,"[""left""]",[0.8523000000009233],False,,0.0,0.0,38.0,38.0,38.0,1.0,,,,,,
,,,,,,,,,,,,,,,,,,,,,0.05,,,,,,,,,,Stimuli/psy_fixed_rotation_30_objects_occ0.7_0.9s/images/train/n04256520_5/n02883344_0/img_meridiani_belmondo_bench_sofa_b03_box_2015_gray.jpg,n04256520_5,n02883344_0,fixed,0.781254,n02883344_0,Stimuli/psy_fixed_rotation_30_objects_occ0.7_0.9s/images/train/n04256520_5/n02883344_0/img_meridiani_belmondo_bench_sofa_b03_box_2015-3_gray.png,foreground,same as foreground,n04256520_5,n03001627_-2,Stimuli/canonical view 2/img_n04256520_5_gray.jpg,Stimuli/canonical view 2/img_n03001627_-2_gray.jpg,random,right,Experiments/experiment_1/156.jpg,Experiments/experiment_1/157.jpg,Experiments/experiment_1/158.jpg,Experiments/experiment_1/159.jpg,900,1,2023-04-03_18h26.49.606,Occlusion_Psychophysics,2022.1.4,Win32,60.06006006,,,right,"[""right""]",[1.4129000000023098],False,,0.0,0.0,39.0,39.0,39.0,1.0,,,,,,
,,,,,,,,,,,,,,,,,,,,,0.025,,,,,,,,,,Stimuli/psy_fixed_rotation_30_objects_occ0.7_0.9s/images/train/n02828884_3/n02933112_-18/img_b04_wood_metal_park_bench_cgaxis_models_48_26_vray_composite_2007_gray.jpg,n02828884_3,n02933112_-18,fixed,0.816478,n02933112_-18,Stimuli/psy_fixed_rotation_30_objects_occ0.7_0.9s/images/train/n02828884_3/n02933112_-18/img_b04_wood_metal_park_bench_cgaxis_models_48_26_vray_composite_2007-3_gray.png,foreground,same as foreground,n02828884_3,n02933112_-18,Stimuli/canonical view 2/img_n02828884_3_gray.jpg,Stimuli/canonical view 2/img_n02933112_-18_gray.jpg,foreground,right,Experiments/experiment_1/160.jpg,Experiments/experiment_1/161.jpg,Experiments/experiment_1/162.jpg,Experiments/experiment_1/163.jpg,900,1,2023-04-03_18h26.49.606,Occlusion_Psychophysics,2022.1.4,Win32,60.06006006,,,left,"[""left""]",[1.336300000000847],False,,0.0,0.0,40.0,40.0,40.0,1.0,,,,,,
,,,,,,,,,,,,,,,,,,,,,0.025,,,,,,,,,,Stimuli/psy_flexible_rotation_30_objects_occ0.7_0.9s/images/train/n02818832_0/n02933112_-18/img_b03_the_sofa_and_chair_company_-_stanley_bed_2014_cgaxis_models_48_26_vray_composite_2009_gray.jpg,n02818832_0,n02933112_-18,flexible,0.731812,n02933112_-18,Stimuli/psy_flexible_rotation_30_objects_occ0.7_0.9s/images/train/n02818832_0/n02933112_-18/img_b03_the_sofa_and_chair_company_-_stanley_bed_2014_cgaxis_models_48_26_vray_composite_2009-3_gray.png,foreground,same as foreground,n02818832_0,n03001627_8,Stimuli/canonical view 2/img_n02818832_0_gray.jpg,Stimuli/canonical view 2/img_n03001627_8_gray.jpg,random,right,Experiments/experiment_1/164.jpg,Experiments/experiment_1/165.jpg,Experiments/experiment_1/166.jpg,Experiments/experiment_1/167.jpg,900,1,2023-04-03_18h26.49.606,Occlusion_Psychophysics,2022.1.4,Win32,60.06006006,,,left,"[""right""]",[0.859000000000151],False,,0.0,0.0,41.0,41.0,41.0,1.0,,,,,,
,,,,,,,,,,,,,,,,,,,,,0.025,,,,,,,,,,Stimuli/psy_flexible_rotation_30_objects_occ0.7_0.9s/images/train/n03001627_8/n02883344_15/img_chair_billiani_doll_microwave_box_2014_gray.jpg,n03001627_8,n02883344_15,flexible,0.758896,n02883344_15,Stimuli/psy_flexible_rotation_30_objects_occ0.7_0.9s/images/train/n03001627_8/n02883344_15/img_chair_billiani_doll_microwave_box_2014-3_gray.png,foreground,same as foreground,n03001627_8,n02883344_15,Stimuli/canonical view 2/img_n03001627_8_gray.jpg,Stimuli/canonical view 2/img_n02883344_15_gray.jpg,foreground,left,Experiments/experiment_1/168.jpg,Experiments/experiment_1/169.jpg,Experiments/experiment_1/170.jpg,Experiments/experiment_1/171.jpg,900,1,2023-04-03_18h26.49.606,Occlusion_Psychophysics,2022.1.4,Win32,60.06006006,,,right,"[""right""]",[0.8370999999976902],False,,0.0,0.0,42.0,42.0,42.0,1.0,,,,,,
,,,,,,,,,,,,,,,,,,,,,0.05,,,,,,,,,,Stimuli/psy_fixed_rotation_30_objects_occ0.7_0.9s/images/train/n02828884_3/n04256520_9/img_b04_wood_metal_park_bench_napoleon_iii_sofa_2002_gray.jpg,n02828884_3,n04256520_9,fixed,0.71096,n04405907_9,Stimuli/psy_flexible_rotation_30_objects_occ0.7_0.9s/images/train/n02818832_0/n04405907_9/img_b03_the_sofa_and_chair_company_-_stanley_bed_2014_vray_004_2014-3_gray.png,random,flexible,n02828884_3,n03928116_0,Stimuli/canonical view 2/img_n02828884_3_gray.jpg,Stimuli/canonical view 2/img_n03928116_0_gray.jpg,random,left,Experiments/experiment_1/172.jpg,Experiments/experiment_1/173.jpg,Experiments/experiment_1/174.jpg,Experiments/experiment_1/175.jpg,900,1,2023-04-03_18h26.49.606,Occlusion_Psychophysics,2022.1.4,Win32,60.06006006,,,left,"[""left""]",[1.0113999999985026],False,,0.0,0.0,43.0,43.0,43.0,1.0,,,,,,
,,,,,,,,,,,,,,,,,,,,,0.025,,,,,,,,,,Stimuli/psy_fixed_rotation_30_objects_occ0.7_0.9s/images/train/n04405907_9/n04405907_5/img_vray_004_samsung_40_uhd_smart_tv_2011_2004_gray.jpg,n04405907_9,n04405907_5,fixed,0.752792,n04405907_5,Stimuli/psy_fixed_rotation_30_objects_occ0.7_0.9s/images/train/n04405907_9/n04405907_5/img_vray_004_samsung_40_uhd_smart_tv_2011_2004-3_gray.png,foreground,same as foreground,n04405907_9,n03928116_4,Stimuli/canonical view 2/img_n04405907_9_gray.jpg,Stimuli/canonical view 2/img_n03928116_4_gray.jpg,random,left,Experiments/experiment_1/176.jpg,Experiments/experiment_1/177.jpg,Experiments/experiment_1/178.jpg,Experiments/experiment_1/179.jpg,900,1,2023-04-03_18h26.49.606,Occlusion_Psychophysics,2022.1.4,Win32,60.06006006,,,left,"[""left""]",[1.0638999999985117],False,,0.0,0.0,44.0,44.0,44.0,1.0,,,,,,
,,,,,,,,,,,,,,,,,,,,,0.025,,,,,,,,,,Stimuli/psy_flexible_rotation_30_objects_occ0.7_0.9s/images/train/n03001627_9/n04256520_4/img_chair_eames_plastic_armchair_club_house_italia_nautilus_sofa_2000_gray.jpg,n03001627_9,n04256520_4,flexible,0.726688,n04256520_4,Stimuli/psy_flexible_rotation_30_objects_occ0.7_0.9s/images/train/n03001627_9/n04256520_4/img_chair_eames_plastic_armchair_club_house_italia_nautilus_sofa_2000-3_gray.png,foreground,same as foreground,n03001627_9,n04379243_0,Stimuli/canonical view 2/img_n03001627_9_gray.jpg,Stimuli/canonical view 2/img_n04379243_0_gray.jpg,random,right,Experiments/experiment_1/180.jpg,Experiments/experiment_1/181.jpg,Experiments/experiment_1/182.jpg,Experiments/experiment_1/183.jpg,900,1,2023-04-03_18h26.49.606,Occlusion_Psychophysics,2022.1.4,Win32,60.06006006,,,right,"[""right""]",[0.8070000000000164],False,,0.0,0.0,45.0,45.0,45.0,1.0,,,,,,
,,,,,,,,,,,,,,,,,,,,,0.025,,,,,,,,,,Stimuli/psy_flexible_rotation_30_objects_occ0.7_0.9s/images/train/n02818832_9/n04256520_5/img_bed01_blue_meridiani_belmondo_bench_sofa_2005_gray.jpg,n02818832_9,n04256520_5,flexible,0.779045,n04256520_5,Stimuli/psy_flexible_rotation_30_objects_occ0.7_0.9s/images/train/n02818832_9/n04256520_5/img_bed01_blue_meridiani_belmondo_bench_sofa_2005-3_gray.png,foreground,same as foreground,n02818832_9,n04256520_5,Stimuli/canonical view 2/img_n02818832_9_gray.jpg,Stimuli/canonical view 2/img_n04256520_5_gray.jpg,foreground,right,Experiments/experiment_1/184.jpg,Experiments/experiment_1/185.jpg,Experiments/experiment_1/186.jpg,Experiments/experiment_1/187.jpg,900,1,2023-04-03_18h26.49.606,Occlusion_Psychophysics,2022.1.4,Win32,60.06006006,,,right,"[""left""]",[0.8730000000000473],False,,0.0,0.0,46.0,46.0,46.0,1.0,,,,,,
,,,,,,,,,,,,,,,,,,,,,0.05,,,,,,,,,,Stimuli/psy_flexible_rotation_30_objects_occ0.7_0.9s/images/train/n02828884_9/n03928116_0/img_cr-96_bench_b02_piano_2006_gray.jpg,n02828884_9,n03928116_0,flexible,0.776399,n03928116_10,Stimuli/psy_flexible_rotation_30_objects_occ0.7_0.9s/images/train/n03928116_4/n03928116_10/img_dp_33_b_2013__vray_ydp_103_r_2012__vray_2009-3_gray.png,random,flexible,n02828884_9,n03928116_0,Stimuli/canonical view 2/img_n02828884_9_gray.jpg,Stimuli/canonical view 2/img_n03928116_0_gray.jpg,foreground,left,Experiments/experiment_1/188.jpg,Experiments/experiment_1/189.jpg,Experiments/experiment_1/190.jpg,Experiments/experiment_1/191.jpg,900,1,2023-04-03_18h26.49.606,Occlusion_Psychophysics,2022.1.4,Win32,60.06006006,,,right,"[""right""]",[1.2596999999991567],False,,0.0,0.0,47.0,47.0,47.0,1.0,,,,,,
,,,,,,,,,,,,,,,,,,,,,0.05,,,,,,,,,,Stimuli/psy_fixed_rotation_30_objects_occ0.7_0.9s/images/train/n04256520_5/n02818832_0/img_meridiani_belmondo_bench_sofa_b03_the_sofa_and_chair_company_-_stanley_bed_2014_2015_gray.jpg,n04256520_5,n02818832_0,fixed,0.720111,n02883344_-1,Stimuli/psy_fixed_rotation_30_objects_occ0.7_0.9s/images/train/n02883344_15/n02883344_-1/img_microwave_box_woven_box_2014-3_gray.png,random,fixed,n04256520_5,n02818832_0,Stimuli/canonical view 2/img_n04256520_5_gray.jpg,Stimuli/canonical view 2/img_n02818832_0_gray.jpg,foreground,right,Experiments/experiment_1/192.jpg,Experiments/experiment_1/193.jpg,Experiments/experiment_1/194.jpg,Experiments/experiment_1/195.jpg,900,1,2023-04-03_18h26.49.606,Occlusion_Psychophysics,2022.1.4,Win32,60.06006006,,,right,"[""right""]",[1.0927999999969416],False,,0.0,0.0,48.0,48.0,48.0,1.0,,,,,,
,,,,,,,,,,,,,,,,,,,,,0.05,,,,,,,,,,Stimuli/psy_flexible_rotation_30_objects_occ0.7_0.9s/images/train/n04379243_8/n02818832_3/img_glass_table_b05_ccm_contemporary_bed_max2013_2013_gray.jpg,n04379243_8,n02818832_3,flexible,0.736293,n02828884_3,Stimuli/psy_fixed_rotation_30_objects_occ0.7_0.9s/images/train/n02883344_-1/n02828884_3/img_woven_box_b04_wood_metal_park_bench_2005-3_gray.png,random,fixed,n04379243_8,n02818832_3,Stimuli/canonical view 2/img_n04379243_8_gray.jpg,Stimuli/canonical view 2/img_n02818832_3_gray.jpg,foreground,right,Experiments/experiment_1/196.jpg,Experiments/experiment_1/197.jpg,Experiments/experiment_1/198.jpg,Experiments/experiment_1/199.jpg,900,1,2023-04-03_18h26.49.606,Occlusion_Psychophysics,2022.1.4,Win32,60.06006006,,,left,"[""left""]",[1.0066999999992277],False,,0.0,0.0,49.0,49.0,49.0,1.0,,,,,,
,,,,,,,,,,,,,,,,,,,,,0.05,,,,,,,,,,Stimuli/psy_flexible_rotation_30_objects_occ0.7_0.9s/images/train/n04256520_5/n04379243_-7/img_meridiani_belmondo_bench_sofa_quatre_dining_table_2014_gray.jpg,n04256520_5,n04379243_-7,flexible,0.753199,n04379243_-7,Stimuli/psy_flexible_rotation_30_objects_occ0.7_0.9s/images/train/n04256520_5/n04379243_-7/img_meridiani_belmondo_bench_sofa_quatre_dining_table_2014-3_gray.png,foreground,same as foreground,n04256520_5,n04379243_-7,Stimuli/canonical view 2/img_n04256520_5_gray.jpg,Stimuli/canonical view 2/img_n04379243_-7_gray.jpg,foreground,right,Experiments/experiment_1/200.jpg,Experiments/experiment_1/201.jpg,Experiments/experiment_1/202.jpg,Experiments/experiment_1/203.jpg,900,1,2023-04-03_18h26.49.606,Occlusion_Psychophysics,2022.1.4,Win32,60.06006006,,,right,"[""left""]",[1.17899999999986],False,,0.0,0.0,50.0,50.0,50.0,1.0,,,,,,
,,,,,,,,,,,,,,,,,,,,,0.025,,,,,,,,,,Stimuli/psy_flexible_rotation_30_objects_occ0.7_0.9s/images/train/n04256520_9/n02883344_15/img_napoleon_iii_sofa_microwave_box_2000_gray.jpg,n04256520_9,n02883344_15,flexible,0.764401,n04256520_4,Stimuli/psy_fixed_rotation_30_objects_occ0.7_0.9s/images/train/n02818832_3/n04256520_4/img_b05_ccm_contemporary_bed_max2013_club_house_italia_nautilus_sofa_2008-3_gray.png,random,fixed,n04256520_9,n02883344_15,Stimuli/canonical view 2/img_n04256520_9_gray.jpg,Stimuli/canonical view 2/img_n02883344_15_gray.jpg,foreground,right,Experiments/experiment_1/204.jpg,Experiments/experiment_1/205.jpg,Experiments/experiment_1/206.jpg,Experiments/experiment_1/207.jpg,900,1,2023-04-03_18h26.49.606,Occlusion_Psychophysics,2022.1.4,Win32,60.06006006,,,right,"[""right""]",[0.9746999999993022],False,,0.0,0.0,51.0,51.0,51.0,1.0,,,,,,
,,,,,,,,,,,,,,,,,,,,,0.025,,,,,,,,,,Stimuli/psy_flexible_rotation_30_objects_occ0.7_0.9s/images/train/n04379243_8/n02883344_-1/img_glass_table_woven_box_2013_gray.jpg,n04379243_8,n02883344_-1,flexible,0.786637,n02818832_3,Stimuli/psy_flexible_rotation_30_objects_occ0.7_0.9s/images/train/n04405907_9/n02818832_3/img_vray_004_b05_ccm_contemporary_bed_max2013_2005-3_gray.png,random,flexible,n04379243_8,n03001627_9,Stimuli/canonical view 2/img_n04379243_8_gray.jpg,Stimuli/canonical view 2/img_n03001627_9_gray.jpg,random,right,Experiments/experiment_1/208.jpg,Experiments/experiment_1/209.jpg,Experiments/experiment_1/210.jpg,Experiments/experiment_1/211.jpg,900,1,2023-04-03_18h26.49.606,Occlusion_Psychophysics,2022.1.4,Win32,60.06006006,,,right,"[""right""]",[1.2421999999992295],False,,0.0,0.0,52.0,52.0,52.0,1.0,,,,,,
,,,,,,,,,,,,,,,,,,,,,0.025,,,,,,,,,,Stimuli/psy_fixed_rotation_30_objects_occ0.7_0.9s/images/train/n02933112_-2/n02883344_0/img_sink_base_white_wood_b03_box_2012_gray.jpg,n02933112_-2,n02883344_0,fixed,0.749121,n04379243_0,Stimuli/psy_flexible_rotation_30_objects_occ0.7_0.9s/images/train/n02818832_0/n04379243_0/img_b03_the_sofa_and_chair_company_-_stanley_bed_2014_17th_c._monastery_dining_table_2010_2011-3_gray.png,random,flexible,n02933112_-2,n02883344_0,Stimuli/canonical view 2/img_n02933112_-2_gray.jpg,Stimuli/canonical view 2/img_n02883344_0_gray.jpg,foreground,left,Experiments/experiment_1/212.jpg,Experiments/experiment_1/213.jpg,Experiments/experiment_1/214.jpg,Experiments/experiment_1/215.jpg,900,1,2023-04-03_18h26.49.606,Occlusion_Psychophysics,2022.1.4,Win32,60.06006006,,,right,"[""left""]",[0.9859000000024025],False,,0.0,0.0,53.0,53.0,53.0,1.0,,,,,,
,,,,,,,,,,,,,,,,,,,,,0.05,,,,,,,,,,Stimuli/psy_flexible_rotation_30_objects_occ0.7_0.9s/images/train/n04256520_4/n04405907_8/img_club_house_italia_nautilus_sofa_stylized_tv_2007_gray.jpg,n04256520_4,n04405907_8,flexible,0.76007,n03001627_-2,Stimuli/psy_flexible_rotation_30_objects_occ0.7_0.9s/images/train/n03001627_-2/n03001627_-2/img_wood_chair_wood_chair_2006-3_gray.png,random,flexible,n04256520_4,n04405907_8,Stimuli/canonical view 2/img_n04256520_4_gray.jpg,Stimuli/canonical view 2/img_n04405907_8_gray.jpg,foreground,right,Experiments/experiment_1/216.jpg,Experiments/experiment_1/217.jpg,Experiments/experiment_1/218.jpg,Experiments/experiment_1/219.jpg,900,1,2023-04-03_18h26.49.606,Occlusion_Psychophysics,2022.1.4,Win32,60.06006006,,,right,"[""left""]",[0.9450999999976375],False,,0.0,0.0,54.0,54.0,54.0,1.0,,,,,,
,,,,,,,,,,,,,,,,,,,,,0.05,,,,,,,,,,Stimuli/psy_flexible_rotation_30_objects_occ0.7_0.9s/images/train/n03928116_0/n02828884_3/img_b02_piano_b04_wood_metal_park_bench_2009_gray.jpg,n03928116_0,n02828884_3,flexible,0.717075,n03001627_8,Stimuli/psy_flexible_rotation_30_objects_occ0.7_0.9s/images/train/n02828884_9/n03001627_8/img_cr-96_bench_chair_billiani_doll_2010-3_gray.png,random,flexible,n03928116_0,n02818832_3,Stimuli/canonical view 2/img_n03928116_0_gray.jpg,Stimuli/canonical view 2/img_n02818832_3_gray.jpg,random,left,Experiments/experiment_1/220.jpg,Experiments/experiment_1/221.jpg,Experiments/experiment_1/222.jpg,Experiments/experiment_1/223.jpg,900,1,2023-04-03_18h26.49.606,Occlusion_Psychophysics,2022.1.4,Win32,60.06006006,,,right,"[""right""]",[0.7060999999978321],False,,0.0,0.0,55.0,55.0,55.0,1.0,,,,,,
,,,,,,,,,,,,,,,,,,,,,0.05,,,,,,,,,,Stimuli/psy_flexible_rotation_30_objects_occ0.7_0.9s/images/train/n03928116_10/n04256520_5/img_ydp_103_r_2012__vray_meridiani_belmondo_bench_sofa_2004_gray.jpg,n03928116_10,n04256520_5,flexible,0.766144,n04256520_5,Stimuli/psy_flexible_rotation_30_objects_occ0.7_0.9s/images/train/n03928116_10/n04256520_5/img_ydp_103_r_2012__vray_meridiani_belmondo_bench_sofa_2004-3_gray.png,foreground,same as foreground,n03928116_10,n04256520_5,Stimuli/canonical view 2/img_n03928116_10_gray.jpg,Stimuli/canonical view 2/img_n04256520_5_gray.jpg,foreground,right,Experiments/experiment_1/224.jpg,Experiments/experiment_1/225.jpg,Experiments/experiment_1/226.jpg,Experiments/experiment_1/227.jpg,900,1,2023-04-03_18h26.49.606,Occlusion_Psychophysics,2022.1.4,Win32,60.06006006,,,right,"[""left""]",[0.9611999999992804],False,,0.0,0.0,56.0,56.0,56.0,1.0,,,,,,
,,,,,,,,,,,,,,,,,,,,,0.05,,,,,,,,,,Stimuli/psy_fixed_rotation_30_objects_occ0.7_0.9s/images/train/n04379243_0/n02828884_3/img_17th_c._monastery_dining_table_2010_b04_wood_metal_park_bench_2002_gray.jpg,n04379243_0,n02828884_3,fixed,0.872063,n02883344_0,Stimuli/psy_fixed_rotation_30_objects_occ0.7_0.9s/images/train/n02933112_-2/n02883344_0/img_sink_base_white_wood_b03_box_2008-3_gray.png,random,fixed,n04379243_0,n02828884_3,Stimuli/canonical view 2/img_n04379243_0_gray.jpg,Stimuli/canonical view 2/img_n02828884_3_gray.jpg,foreground,right,Experiments/experiment_1/228.jpg,Experiments/experiment_1/229.jpg,Experiments/experiment_1/230.jpg,Experiments/experiment_1/231.jpg,900,1,2023-04-03_18h26.49.606,Occlusion_Psychophysics,2022.1.4,Win32,60.06006006,,,right,"[""right""]",[1.1280000000001564],False,,0.0,0.0,57.0,57.0,57.0,1.0,,,,,,
,,,,,,,,,,,,,,,,,,,,,0.025,,,,,,,,,,Stimuli/psy_fixed_rotation_30_objects_occ0.7_0.9s/images/train/n04256520_4/n04379243_0/img_club_house_italia_nautilus_sofa_17th_c._monastery_dining_table_2010_2013_gray.jpg,n04256520_4,n04379243_0,fixed,0.735762,n04405907_9,Stimuli/psy_flexible_rotation_30_objects_occ0.7_0.9s/images/train/n03928116_10/n04405907_9/img_ydp_103_r_2012__vray_vray_004_2003-3_gray.png,random,flexible,n04256520_4,n04379243_0,Stimuli/canonical view 2/img_n04256520_4_gray.jpg,Stimuli/canonical view 2/img_n04379243_0_gray.jpg,foreground,left,Experiments/experiment_1/232.jpg,Experiments/experiment_1/233.jpg,Experiments/experiment_1/234.jpg,Experiments/experiment_1/235.jpg,900,1,2023-04-03_18h26.49.606,Occlusion_Psychophysics,2022.1.4,Win32,60.06006006,,,left,"[""left""]",[1.240399999998317],False,,0.0,0.0,58.0,58.0,58.0,1.0,,,,,,
,,,,,,,,,,,,,,,,,,,,,0.05,,,,,,,,,,Stimuli/psy_flexible_rotation_30_objects_occ0.7_0.9s/images/train/n02883344_15/n04256520_4/img_microwave_box_club_house_italia_nautilus_sofa_2004_gray.jpg,n02883344_15,n04256520_4,flexible,0.818806,n03928116_0,Stimuli/psy_fixed_rotation_30_objects_occ0.7_0.9s/images/train/n03928116_10/n03928116_0/img_ydp_103_r_2012__vray_b02_piano_2011-3_gray.png,random,fixed,n02883344_15,n04256520_4,Stimuli/canonical view 2/img_n02883344_15_gray.jpg,Stimuli/canonical view 2/img_n04256520_4_gray.jpg,foreground,left,Experiments/experiment_1/236.jpg,Experiments/experiment_1/237.jpg,Experiments/experiment_1/238.jpg,Experiments/experiment_1/239.jpg,900,1,2023-04-03_18h26.49.606,Occlusion_Psychophysics,2022.1.4,Win32,60.06006006,,,left,"[""left""]",[1.1711999999993168],False,,0.0,0.0,59.0,59.0,59.0,1.0,,,,,,
,,,,,,,,,,,,,,,,,,,,,0.025,,,,,,,,,,Stimuli/psy_fixed_rotation_30_objects_occ0.7_0.9s/images/train/n02883344_-1/n02883344_15/img_woven_box_microwave_box_2007_gray.jpg,n02883344_-1,n02883344_15,fixed,0.895166,n02883344_15,Stimuli/psy_fixed_rotation_30_objects_occ0.7_0.9s/images/train/n02883344_-1/n02883344_15/img_woven_box_microwave_box_2007-3_gray.png,foreground,same as foreground,n02883344_-1,n02818832_3,Stimuli/canonical view 2/img_n02883344_-1_gray.jpg,Stimuli/canonical view 2/img_n02818832_3_gray.jpg,random,right,Experiments/experiment_1/240.jpg,Experiments/experiment_1/241.jpg,Experiments/experiment_1/242.jpg,Experiments/experiment_1/243.jpg,900,1,2023-04-03_18h26.49.606,Occlusion_Psychophysics,2022.1.4,Win32,60.06006006,,,left,"[""left""]",[1.3500999999978376],False,,0.0,0.0,60.0,60.0,60.0,1.0,,,,,,
,,,,,,,,,,,,,,,,,,,,,0.05,,,,,,,,,,Stimuli/psy_fixed_rotation_30_objects_occ0.7_0.9s/images/train/n04405907_5/n02883344_0/img_samsung_40_uhd_smart_tv_2011_b03_box_2003_gray.jpg,n04405907_5,n02883344_0,fixed,0.792721,n04405907_9,Stimuli/psy_flexible_rotation_30_objects_occ0.7_0.9s/images/train/n02818832_0/n04405907_9/img_b03_the_sofa_and_chair_company_-_stanley_bed_2014_vray_004_2011-3_gray.png,random,flexible,n04405907_5,n04405907_9,Stimuli/canonical view 2/img_n04405907_5_gray.jpg,Stimuli/canonical view 2/img_n04405907_9_gray.jpg,random,right,Experiments/experiment_1/244.jpg,Experiments/experiment_1/245.jpg,Experiments/experiment_1/246.jpg,Experiments/experiment_1/247.jpg,900,1,2023-04-03_18h26.49.606,Occlusion_Psychophysics,2022.1.4,Win32,60.06006006,,,left,"[""left""]",[1.5565000000001419],False,,0.0,0.0,61.0,61.0,61.0,1.0,,,,,,
,,,,,,,,,,,,,,,,,,,,,0.05,,,,,,,,,,Stimuli/psy_flexible_rotation_30_objects_occ0.7_0.9s/images/train/n02933112_4/n02883344_15/img_buffet_microwave_box_2000_gray.jpg,n02933112_4,n02883344_15,flexible,0.70174,n04405907_5,Stimuli/psy_flexible_rotation_30_objects_occ0.7_0.9s/images/train/n03001627_8/n04405907_5/img_chair_billiani_doll_samsung_40_uhd_smart_tv_2011_2000-3_gray.png,random,flexible,n02933112_4,n02883344_15,Stimuli/canonical view 2/img_n02933112_4_gray.jpg,Stimuli/canonical view 2/img_n02883344_15_gray.jpg,foreground,left,Experiments/experiment_1/248.jpg,Experiments/experiment_1/249.jpg,Experiments/experiment_1/250.jpg,Experiments/experiment_1/251.jpg,900,1,2023-04-03_18h26.49.606,Occlusion_Psychophysics,2022.1.4,Win32,60.06006006,,,right,"[""right""]",[1.3383000000007996],False,,0.0,0.0,62.0,62.0,62.0,1.0,,,,,,
,,,,,,,,,,,,,,,,,,,,,0.025,,,,,,,,,,Stimuli/psy_flexible_rotation_30_objects_occ0.7_0.9s/images/train/n02933112_-2/n03928116_0/img_sink_base_white_wood_b02_piano_2004_gray.jpg,n02933112_-2,n03928116_0,flexible,0.768091,n03928116_0,Stimuli/psy_flexible_rotation_30_objects_occ0.7_0.9s/images/train/n02933112_-2/n03928116_0/img_sink_base_white_wood_b02_piano_2004-3_gray.png,foreground,same as foreground,n02933112_-2,n04256520_4,Stimuli/canonical view 2/img_n02933112_-2_gray.jpg,Stimuli/canonical view 2/img_n04256520_4_gray.jpg,random,right,Experiments/experiment_1/252.jpg,Experiments/experiment_1/253.jpg,Experiments/experiment_1/254.jpg,Experiments/experiment_1/255.jpg,900,1,2023-04-03_18h26.49.606,Occlusion_Psychophysics,2022.1.4,Win32,60.06006006,,,left,"[""left""]",[1.3297000000029584],False,,0.0,0.0,63.0,63.0,63.0,1.0,,,,,,
,,,,,,,,,,,,,,,,,,,,,0.025,,,,,,,,,,Stimuli/psy_flexible_rotation_30_objects_occ0.7_0.9s/images/train/n02883344_15/n04405907_8/img_microwave_box_stylized_tv_2010_gray.jpg,n02883344_15,n04405907_8,flexible,0.781101,n04405907_8,Stimuli/psy_flexible_rotation_30_objects_occ0.7_0.9s/images/train/n02883344_15/n04405907_8/img_microwave_box_stylized_tv_2010-3_gray.png,foreground,same as foreground,n02883344_15,n04405907_8,Stimuli/canonical view 2/img_n02883344_15_gray.jpg,Stimuli/canonical view 2/img_n04405907_8_gray.jpg,foreground,left,Experiments/experiment_1/256.jpg,Experiments/experiment_1/257.jpg,Experiments/experiment_1/258.jpg,Experiments/experiment_1/259.jpg,900,1,2023-04-03_18h26.49.606,Occlusion_Psychophysics,2022.1.4,Win32,60.06006006,,,right,"[""left""]",[1.25289999999859],False,,0.0,0.0,64.0,64.0,64.0,1.0,,,,,,
,,,,,,,,,,,,,,,,,,,,,0.05,,,,,,,,,,Stimuli/psy_flexible_rotation_30_objects_occ0.7_0.9s/images/train/n02818832_9/n02828884_4/img_bed01_blue_b05_c-5_classic_series_bench-2012_2015_gray.jpg,n02818832_9,n02828884_4,flexible,0.735847,n04256520_4,Stimuli/psy_flexible_rotation_30_objects_occ0.7_0.9s/images/train/n04256520_9/n04256520_4/img_napoleon_iii_sofa_club_house_italia_nautilus_sofa_2004-3_gray.png,random,flexible,n02818832_9,n04256520_9,Stimuli/canonical view 2/img_n02818832_9_gray.jpg,Stimuli/canonical view 2/img_n04256520_9_gray.jpg,random,right,Experiments/experiment_1/260.jpg,Experiments/experiment_1/261.jpg,Experiments/experiment_1/262.jpg,Experiments/experiment_1/263.jpg,900,1,2023-04-03_18h26.49.606,Occlusion_Psychophysics,2022.1.4,Win32,60.06006006,,,right,"[""right""]",[1.0728999999985263],False,,0.0,0.0,65.0,65.0,65.0,1.0,,,,,,
,,,,,,,,,,,,,,,,,,,,,0.025,,,,,,,,,,Stimuli/psy_flexible_rotation_30_objects_occ0.7_0.9s/images/train/n04256520_4/n03928116_10/img_club_house_italia_nautilus_sofa_ydp_103_r_2012__vray_2000_gray.jpg,n04256520_4,n03928116_10,flexible,0.87756,n02933112_-2,Stimuli/psy_flexible_rotation_30_objects_occ0.7_0.9s/images/train/n02818832_9/n02933112_-2/img_bed01_blue_sink_base_white_wood_2011-3_gray.png,random,flexible,n04256520_4,n03928116_10,Stimuli/canonical view 2/img_n04256520_4_gray.jpg,Stimuli/canonical view 2/img_n03928116_10_gray.jpg,foreground,left,Experiments/experiment_1/264.jpg,Experiments/experiment_1/265.jpg,Experiments/experiment_1/266.jpg,Experiments/experiment_1/267.jpg,900,1,2023-04-03_18h26.49.606,Occlusion_Psychophysics,2022.1.4,Win32,60.06006006,,,left,"[""left""]",[1.376699999999346],True,left,1.0,0.0,66.0,66.0,66.0,1.0,0.8983,,,,,
,,,,,,,,,,,,,,,,,,,,,0.025,,,,,,,,,,Stimuli/psy_flexible_rotation_30_objects_occ0.7_0.9s/images/train/n04379243_-7/n04405907_8/img_quatre_dining_table_stylized_tv_2005_gray.jpg,n04379243_-7,n04405907_8,flexible,0.77988,n04405907_8,Stimuli/psy_flexible_rotation_30_objects_occ0.7_0.9s/images/train/n04379243_-7/n04405907_8/img_quatre_dining_table_stylized_tv_2005-3_gray.png,foreground,same as foreground,n04379243_-7,n04405907_8,Stimuli/canonical view 2/img_n04379243_-7_gray.jpg,Stimuli/canonical view 2/img_n04405907_8_gray.jpg,foreground,left,Experiments/experiment_1/268.jpg,Experiments/experiment_1/269.jpg,Experiments/experiment_1/270.jpg,Experiments/experiment_1/271.jpg,900,1,2023-04-03_18h26.49.606,Occlusion_Psychophysics,2022.1.4,Win32,60.06006006,,,left,"[""left""]",[0.8710000000000946],False,,0.0,0.0,67.0,67.0,67.0,1.0,,,,,,
,,,,,,,,,,,,,,,,,,,,,0.025,,,,,,,,,,Stimuli/psy_flexible_rotation_30_objects_occ0.7_0.9s/images/train/n03001627_9/n04405907_8/img_chair_eames_plastic_armchair_stylized_tv_2001_gray.jpg,n03001627_9,n04405907_8,flexible,0.888978,n04405907_8,Stimuli/psy_flexible_rotation_30_objects_occ0.7_0.9s/images/train/n03001627_9/n04405907_8/img_chair_eames_plastic_armchair_stylized_tv_2001-3_gray.png,foreground,same as foreground,n03001627_9,n04405907_8,Stimuli/canonical view 2/img_n03001627_9_gray.jpg,Stimuli/canonical view 2/img_n04405907_8_gray.jpg,foreground,left,Experiments/experiment_1/272.jpg,Experiments/experiment_1/273.jpg,Experiments/experiment_1/274.jpg,Experiments/experiment_1/275.jpg,900,1,2023-04-03_18h26.49.606,Occlusion_Psychophysics,2022.1.4,Win32,60.06006006,,,right,"[""right""]",[0.8420000000000982],False,,0.0,0.0,68.0,68.0,68.0,1.0,,,,,,
,,,,,,,,,,,,,,,,,,,,,0.025,,,,,,,,,,Stimuli/psy_flexible_rotation_30_objects_occ0.7_0.9s/images/train/n04256520_5/n02883344_15/img_meridiani_belmondo_bench_sofa_microwave_box_2005_gray.jpg,n04256520_5,n02883344_15,flexible,0.728165,n02883344_0,Stimuli/psy_fixed_rotation_30_objects_occ0.7_0.9s/images/train/n02818832_9/n02883344_0/img_bed01_blue_b03_box_2007-3_gray.png,random,fixed,n04256520_5,n04405907_5,Stimuli/canonical view 2/img_n04256520_5_gray.jpg,Stimuli/canonical view 2/img_n04405907_5_gray.jpg,random,right,Experiments/experiment_1/276.jpg,Experiments/experiment_1/277.jpg,Experiments/experiment_1/278.jpg,Experiments/experiment_1/279.jpg,900,1,2023-04-03_18h26.49.606,Occlusion_Psychophysics,2022.1.4,Win32,60.06006006,,,left,"[""left""]",[0.9268999999985681],False,,0.0,0.0,69.0,69.0,69.0,1.0,,,,,,
,,,,,,,,,,,,,,,,,,,,,0.05,,,,,,,,,,Stimuli/psy_fixed_rotation_30_objects_occ0.7_0.9s/images/train/n04405907_9/n02883344_15/img_vray_004_microwave_box_2013_gray.jpg,n04405907_9,n02883344_15,fixed,0.848713,n02818832_3,Stimuli/psy_fixed_rotation_30_objects_occ0.7_0.9s/images/train/n04070727_3/n02818832_3/img_b05_db_apps_tech_06_02_2_composite_b05_ccm_contemporary_bed_max2013_2005-3_gray.png,random,fixed,n04405907_9,n04405907_5,Stimuli/canonical view 2/img_n04405907_9_gray.jpg,Stimuli/canonical view 2/img_n04405907_5_gray.jpg,random,right,Experiments/experiment_1/280.jpg,Experiments/experiment_1/281.jpg,Experiments/experiment_1/282.jpg,Experiments/experiment_1/283.jpg,900,1,2023-04-03_18h26.49.606,Occlusion_Psychophysics,2022.1.4,Win32,60.06006006,,,left,"[""left""]",[0.90300000000002],False,,0.0,0.0,70.0,70.0,70.0,1.0,,,,,,
,,,,,,,,,,,,,,,,,,,,,0.025,,,,,,,,,,Stimuli/psy_flexible_rotation_30_objects_occ0.7_0.9s/images/train/n04256520_5/n02933112_4/img_meridiani_belmondo_bench_sofa_buffet_2015_gray.jpg,n04256520_5,n02933112_4,flexible,0.859039,n02933112_-2,Stimuli/psy_flexible_rotation_30_objects_occ0.7_0.9s/images/train/n02818832_0/n02933112_-2/img_b03_the_sofa_and_chair_company_-_stanley_bed_2014_sink_base_white_wood_2007-3_gray.png,random,flexible,n04256520_5,n02933112_4,Stimuli/canonical view 2/img_n04256520_5_gray.jpg,Stimuli/canonical view 2/img_n02933112_4_gray.jpg,foreground,right,Experiments/experiment_1/284.jpg,Experiments/experiment_1/285.jpg,Experiments/experiment_1/286.jpg,Experiments/experiment_1/287.jpg,900,1,2023-04-03_18h26.49.606,Occlusion_Psychophysics,2022.1.4,Win32,60.06006006,,,right,"[""left""]",[1.20610000000147],False,,0.0,0.0,71.0,71.0,71.0,1.0,,,,,,
,,,,,,,,,,,,,,,,,,,,,0.05,,,,,,,,,,Stimuli/psy_fixed_rotation_30_objects_occ0.7_0.9s/images/train/n02818832_9/n02818832_3/img_bed01_blue_b05_ccm_contemporary_bed_max2013_2009_gray.jpg,n02818832_9,n02818832_3,fixed,0.721884,n02818832_3,Stimuli/psy_fixed_rotation_30_objects_occ0.7_0.9s/images/train/n02818832_9/n02818832_3/img_bed01_blue_b05_ccm_contemporary_bed_max2013_2009-3_gray.png,foreground,same as foreground,n02818832_9,n02818832_3,Stimuli/canonical view 2/img_n02818832_9_gray.jpg,Stimuli/canonical view 2/img_n02818832_3_gray.jpg,foreground,right,Experiments/experiment_1/288.jpg,Experiments/experiment_1/289.jpg,Experiments/experiment_1/290.jpg,Experiments/experiment_1/291.jpg,900,1,2023-04-03_18h26.49.606,Occlusion_Psychophysics,2022.1.4,Win32,60.06006006,,,right,"[""right""]",[0.9925000000000637],False,,0.0,0.0,72.0,72.0,72.0,1.0,,,,,,
,,,,,,,,,,,,,,,,,,,,,0.025,,,,,,,,,,Stimuli/psy_flexible_rotation_30_objects_occ0.7_0.9s/images/train/n03001627_9/n03928116_10/img_chair_eames_plastic_armchair_ydp_103_r_2012__vray_2010_gray.jpg,n03001627_9,n03928116_10,flexible,0.745205,n03928116_10,Stimuli/psy_flexible_rotation_30_objects_occ0.7_0.9s/images/train/n03001627_9/n03928116_10/img_chair_eames_plastic_armchair_ydp_103_r_2012__vray_2010-3_gray.png,foreground,same as foreground,n03001627_9,n02828884_3,Stimuli/canonical view 2/img_n03001627_9_gray.jpg,Stimuli/canonical view 2/img_n02828884_3_gray.jpg,random,left,Experiments/experiment_1/292.jpg,Experiments/experiment_1/293.jpg,Experiments/experiment_1/294.jpg,Experiments/experiment_1/295.jpg,900,1,2023-04-03_18h26.49.606,Occlusion_Psychophysics,2022.1.4,Win32,60.06006006,,,left,"[""left""]",[1.1140000000000327],False,,0.0,0.0,73.0,73.0,73.0,1.0,,,,,,
,,,,,,,,,,,,,,,,,,,,,0.025,,,,,,,,,,Stimuli/psy_flexible_rotation_30_objects_occ0.7_0.9s/images/train/n04405907_8/n02883344_-1/img_stylized_tv_woven_box_2003_gray.jpg,n04405907_8,n02883344_-1,flexible,0.762589,n03928116_0,Stimuli/psy_fixed_rotation_30_objects_occ0.7_0.9s/images/train/n04405907_8/n03928116_0/img_stylized_tv_b02_piano_2013-3_gray.png,random,fixed,n04405907_8,n04379243_8,Stimuli/canonical view 2/img_n04405907_8_gray.jpg,Stimuli/canonical view 2/img_n04379243_8_gray.jpg,random,right,Experiments/experiment_1/296.jpg,Experiments/experiment_1/297.jpg,Experiments/experiment_1/298.jpg,Experiments/experiment_1/299.jpg,900,1,2023-04-03_18h26.49.606,Occlusion_Psychophysics,2022.1.4,Win32,60.06006006,,,right,"[""right""]",[1.036300000000665],False,,0.0,0.0,74.0,74.0,74.0,1.0,,,,,,
,,,,,,,,,,,,,,,,,,,,,0.025,,,,,,,,,,Stimuli/psy_fixed_rotation_30_objects_occ0.7_0.9s/images/train/n02933112_-18/n02933112_-2/img_cgaxis_models_48_26_vray_composite_sink_base_white_wood_2007_gray.jpg,n02933112_-18,n02933112_-2,fixed,0.713193,n04379243_0,Stimuli/psy_flexible_rotation_30_objects_occ0.7_0.9s/images/train/n02828884_4/n04379243_0/img_b05_c-5_classic_series_bench-2012_17th_c._monastery_dining_table_2010_2006-3_gray.png,random,flexible,n02933112_-18,n02933112_-2,Stimuli/canonical view 2/img_n02933112_-18_gray.jpg,Stimuli/canonical view 2/img_n02933112_-2_gray.jpg,foreground,right,Experiments/experiment_1/300.jpg,Experiments/experiment_1/301.jpg,Experiments/experiment_1/302.jpg,Experiments/experiment_1/303.jpg,900,1,2023-04-03_18h26.49.606,Occlusion_Psychophysics,2022.1.4,Win32,60.06006006,,,right,"[""right""]",[1.0296999999991385],False,,0.0,0.0,75.0,75.0,75.0,1.0,,,,,,
,,,,,,,,,,,,,,,,,,,,,0.025,,,,,,,,,,Stimuli/psy_flexible_rotation_30_objects_occ0.7_0.9s/images/train/n04379243_0/n03928116_4/img_17th_c._monastery_dining_table_2010_dp_33_b_2013__vray_2011_gray.jpg,n04379243_0,n03928116_4,flexible,0.771573,n03928116_4,Stimuli/psy_flexible_rotation_30_objects_occ0.7_0.9s/images/train/n04379243_0/n03928116_4/img_17th_c._monastery_dining_table_2010_dp_33_b_2013__vray_2011-3_gray.png,foreground,same as foreground,n04379243_0,n03928116_4,Stimuli/canonical view 2/img_n04379243_0_gray.jpg,Stimuli/canonical view 2/img_n03928116_4_gray.jpg,foreground,left,Experiments/experiment_1/304.jpg,Experiments/experiment_1/305.jpg,Experiments/experiment_1/306.jpg,Experiments/experiment_1/307.jpg,900,1,2023-04-03_18h26.49.606,Occlusion_Psychophysics,2022.1.4,Win32,60.06006006,,,left,"[""left""]",[0.8552000000029238],False,,0.0,0.0,76.0,76.0,76.0,1.0,,,,,,
,,,,,,,,,,,,,,,,,,,,,0.025,,,,,,,,,,Stimuli/psy_fixed_rotation_30_objects_occ0.7_0.9s/images/train/n02818832_3/n03928116_0/img_b05_ccm_contemporary_bed_max2013_b02_piano_2015_gray.jpg,n02818832_3,n03928116_0,fixed,0.786404,n02883344_0,Stimuli/psy_flexible_rotation_30_objects_occ0.7_0.9s/images/train/n03001627_9/n02883344_0/img_chair_eames_plastic_armchair_b03_box_2010-3_gray.png,random,flexible,n02818832_3,n02933112_-18,Stimuli/canonical view 2/img_n02818832_3_gray.jpg,Stimuli/canonical view 2/img_n02933112_-18_gray.jpg,random,right,Experiments/experiment_1/308.jpg,Experiments/experiment_1/309.jpg,Experiments/experiment_1/310.jpg,Experiments/experiment_1/311.jpg,900,1,2023-04-03_18h26.49.606,Occlusion_Psychophysics,2022.1.4,Win32,60.06006006,,,right,"[""right""]",[1.0057999999969525],False,,0.0,0.0,77.0,77.0,77.0,1.0,,,,,,
,,,,,,,,,,,,,,,,,,,,,0.05,,,,,,,,,,Stimuli/psy_flexible_rotation_30_objects_occ0.7_0.9s/images/train/n03928116_0/n02828884_3/img_b02_piano_b04_wood_metal_park_bench_2013_gray.jpg,n03928116_0,n02828884_3,flexible,0.752581,n02828884_3,Stimuli/psy_flexible_rotation_30_objects_occ0.7_0.9s/images/train/n03928116_0/n02828884_3/img_b02_piano_b04_wood_metal_park_bench_2013-3_gray.png,foreground,same as foreground,n03928116_0,n02933112_-2,Stimuli/canonical view 2/img_n03928116_0_gray.jpg,Stimuli/canonical view 2/img_n02933112_-2_gray.jpg,random,left,Experiments/experiment_1/312.jpg,Experiments/experiment_1/313.jpg,Experiments/experiment_1/314.jpg,Experiments/experiment_1/315.jpg,900,1,2023-04-03_18h26.49.606,Occlusion_Psychophysics,2022.1.4,Win32,60.06006006,,,right,"[""right""]",[1.010600000001432],False,,0.0,0.0,78.0,78.0,78.0,1.0,,,,,,
,,,,,,,,,,,,,,,,,,,,,0.05,,,,,,,,,,Stimuli/psy_flexible_rotation_30_objects_occ0.7_0.9s/images/train/n02828884_3/n04379243_-7/img_b04_wood_metal_park_bench_quatre_dining_table_2004_gray.jpg,n02828884_3,n04379243_-7,flexible,0.7828,n04379243_-7,Stimuli/psy_flexible_rotation_30_objects_occ0.7_0.9s/images/train/n02828884_3/n04379243_-7/img_b04_wood_metal_park_bench_quatre_dining_table_2004-3_gray.png,foreground,same as foreground,n02828884_3,n04379243_-7,Stimuli/canonical view 2/img_n02828884_3_gray.jpg,Stimuli/canonical view 2/img_n04379243_-7_gray.jpg,foreground,right,Experiments/experiment_1/316.jpg,Experiments/experiment_1/317.jpg,Experiments/experiment_1/318.jpg,Experiments/experiment_1/319.jpg,900,1,2023-04-03_18h26.49.606,Occlusion_Psychophysics,2022.1.4,Win32,60.06006006,,,right,"[""right""]",[1.0353000000006887],False,,0.0,0.0,79.0,79.0,79.0,1.0,,,,,,
,,,,,,,,,,,,,,,,,,,,,0.05,,,,,,,,,,Stimuli/psy_flexible_rotation_30_objects_occ0.7_0.9s/images/train/n02933112_-2/n04256520_4/img_sink_base_white_wood_club_house_italia_nautilus_sofa_2002_gray.jpg,n02933112_-2,n04256520_4,flexible,0.791265,n02828884_3,Stimuli/psy_fixed_rotation_30_objects_occ0.7_0.9s/images/train/n02933112_4/n02828884_3/img_buffet_b04_wood_metal_park_bench_2000-3_gray.png,random,fixed,n02933112_-2,n04256520_5,Stimuli/canonical view 2/img_n02933112_-2_gray.jpg,Stimuli/canonical view 2/img_n04256520_5_gray.jpg,random,right,Experiments/experiment_1/320.jpg,Experiments/experiment_1/321.jpg,Experiments/experiment_1/322.jpg,Experiments/experiment_1/323.jpg,900,1,2023-04-03_18h26.49.606,Occlusion_Psychophysics,2022.1.4,Win32,60.06006006,,,left,"[""left""]",[0.7963000000006559],False,,0.0,0.0,80.0,80.0,80.0,1.0,,,,,,
,,,,,,,,,,,,,,,,,,,,,0.025,,,,,,,,,,Stimuli/psy_flexible_rotation_30_objects_occ0.7_0.9s/images/train/n03928116_4/n04405907_5/img_dp_33_b_2013__vray_samsung_40_uhd_smart_tv_2011_2007_gray.jpg,n03928116_4,n04405907_5,flexible,0.752683,n04405907_5,Stimuli/psy_flexible_rotation_30_objects_occ0.7_0.9s/images/train/n03928116_4/n04405907_5/img_dp_33_b_2013__vray_samsung_40_uhd_smart_tv_2011_2007-3_gray.png,foreground,same as foreground,n03928116_4,n04405907_5,Stimuli/canonical view 2/img_n03928116_4_gray.jpg,Stimuli/canonical view 2/img_n04405907_5_gray.jpg,foreground,left,Experiments/experiment_1/324.jpg,Experiments/experiment_1/325.jpg,Experiments/experiment_1/326.jpg,Experiments/experiment_1/327.jpg,900,1,2023-04-03_18h26.49.606,Occlusion_Psychophysics,2022.1.4,Win32,60.06006006,,,left,"[""left""]",[1.3008999999985917],False,,0.0,0.0,81.0,81.0,81.0,1.0,,,,,,
,,,,,,,,,,,,,,,,,,,,,0.025,,,,,,,,,,Stimuli/psy_fixed_rotation_30_objects_occ0.7_0.9s/images/train/n02933112_-2/n02883344_15/img_sink_base_white_wood_microwave_box_2005_gray.jpg,n02933112_-2,n02883344_15,fixed,0.756142,n02883344_15,Stimuli/psy_fixed_rotation_30_objects_occ0.7_0.9s/images/train/n02933112_-2/n02883344_15/img_sink_base_white_wood_microwave_box_2005-3_gray.png,foreground,same as foreground,n02933112_-2,n02828884_4,Stimuli/canonical view 2/img_n02933112_-2_gray.jpg,Stimuli/canonical view 2/img_n02828884_4_gray.jpg,random,right,Experiments/experiment_1/328.jpg,Experiments/experiment_1/329.jpg,Experiments/experiment_1/330.jpg,Experiments/experiment_1/331.jpg,900,1,2023-04-03_18h26.49.606,Occlusion_Psychophysics,2022.1.4,Win32,60.06006006,,,right,"[""right""]",[0.7549999999998818],False,,0.0,0.0,82.0,82.0,82.0,1.0,,,,,,
,,,,,,,,,,,,,,,,,,,,,0.05,,,,,,,,,,Stimuli/psy_fixed_rotation_30_objects_occ0.7_0.9s/images/train/n02818832_0/n02933112_4/img_b03_the_sofa_and_chair_company_-_stanley_bed_2014_buffet_2005_gray.jpg,n02818832_0,n02933112_4,fixed,0.839807,n03928116_4,Stimuli/psy_fixed_rotation_30_objects_occ0.7_0.9s/images/train/n02883344_-1/n03928116_4/img_woven_box_dp_33_b_2013__vray_2004-3_gray.png,random,fixed,n02818832_0,n02933112_4,Stimuli/canonical view 2/img_n02818832_0_gray.jpg,Stimuli/canonical view 2/img_n02933112_4_gray.jpg,foreground,right,Experiments/experiment_1/332.jpg,Experiments/experiment_1/333.jpg,Experiments/experiment_1/334.jpg,Experiments/experiment_1/335.jpg,900,1,2023-04-03_18h26.49.606,Occlusion_Psychophysics,2022.1.4,Win32,60.06006006,,,left,"[""left""]",[1.1024999999999636],False,,0.0,0.0,83.0,83.0,83.0,1.0,,,,,,
,,,,,,,,,,,,,,,,,,,,,0.025,,,,,,,,,,Stimuli/psy_fixed_rotation_30_objects_occ0.7_0.9s/images/train/n02828884_4/n02828884_3/img_b05_c-5_classic_series_bench-2012_b04_wood_metal_park_bench_2011_gray.jpg,n02828884_4,n02828884_3,fixed,0.856522,n02828884_3,Stimuli/psy_fixed_rotation_30_objects_occ0.7_0.9s/images/train/n02828884_4/n02828884_3/img_b05_c-5_classic_series_bench-2012_b04_wood_metal_park_bench_2011-3_gray.png,foreground,same as foreground,n02828884_4,n02883344_0,Stimuli/canonical view 2/img_n02828884_4_gray.jpg,Stimuli/canonical view 2/img_n02883344_0_gray.jpg,random,left,Experiments/experiment_1/336.jpg,Experiments/experiment_1/337.jpg,Experiments/experiment_1/338.jpg,Experiments/experiment_1/339.jpg,900,1,2023-04-03_18h26.49.606,Occlusion_Psychophysics,2022.1.4,Win32,60.06006006,,,right,"[""right""]",[1.1498999999985244],False,,0.0,0.0,84.0,84.0,84.0,1.0,,,,,,
,,,,,,,,,,,,,,,,,,,,,0.05,,,,,,,,,,Stimuli/psy_flexible_rotation_30_objects_occ0.7_0.9s/images/train/n04379243_8/n03928116_10/img_glass_table_ydp_103_r_2012__vray_2000_gray.jpg,n04379243_8,n03928116_10,flexible,0.760765,n03928116_10,Stimuli/psy_flexible_rotation_30_objects_occ0.7_0.9s/images/train/n04379243_8/n03928116_10/img_glass_table_ydp_103_r_2012__vray_2000-3_gray.png,foreground,same as foreground,n04379243_8,n03928116_10,Stimuli/canonical view 2/img_n04379243_8_gray.jpg,Stimuli/canonical view 2/img_n03928116_10_gray.jpg,foreground,left,Experiments/experiment_1/340.jpg,Experiments/experiment_1/341.jpg,Experiments/experiment_1/342.jpg,Experiments/experiment_1/343.jpg,900,1,2023-04-03_18h26.49.606,Occlusion_Psychophysics,2022.1.4,Win32,60.06006006,,,right,"[""right""]",[0.6730000000000018],False,,0.0,0.0,85.0,85.0,85.0,1.0,,,,,,
,,,,,,,,,,,,,,,,,,,,,0.05,,,,,,,,,,Stimuli/psy_fixed_rotation_30_objects_occ0.7_0.9s/images/train/n02883344_-1/n02883344_15/img_woven_box_microwave_box_2006_gray.jpg,n02883344_-1,n02883344_15,fixed,0.886832,n02883344_15,Stimuli/psy_fixed_rotation_30_objects_occ0.7_0.9s/images/train/n02883344_-1/n02883344_15/img_woven_box_microwave_box_2006-3_gray.png,foreground,same as foreground,n02883344_-1,n02883344_15,Stimuli/canonical view 2/img_n02883344_-1_gray.jpg,Stimuli/canonical view 2/img_n02883344_15_gray.jpg,foreground,right,Experiments/experiment_1/344.jpg,Experiments/experiment_1/345.jpg,Experiments/experiment_1/346.jpg,Experiments/experiment_1/347.jpg,900,1,2023-04-03_18h26.49.606,Occlusion_Psychophysics,2022.1.4,Win32,60.06006006,,,left,"[""left""]",[1.0066999999992277],False,,0.0,0.0,86.0,86.0,86.0,1.0,,,,,,
,,,,,,,,,,,,,,,,,,,,,0.05,,,,,,,,,,Stimuli/psy_flexible_rotation_30_objects_occ0.7_0.9s/images/train/n04405907_8/n02883344_0/img_stylized_tv_b03_box_2002_gray.jpg,n04405907_8,n02883344_0,flexible,0.837185,n04379243_8,Stimuli/psy_fixed_rotation_30_objects_occ0.7_0.9s/images/train/n02818832_0/n04379243_8/img_b03_the_sofa_and_chair_company_-_stanley_bed_2014_glass_table_2000-3_gray.png,random,fixed,n04405907_8,n02933112_4,Stimuli/canonical view 2/img_n04405907_8_gray.jpg,Stimuli/canonical view 2/img_n02933112_4_gray.jpg,random,left,Experiments/experiment_1/348.jpg,Experiments/experiment_1/349.jpg,Experiments/experiment_1/350.jpg,Experiments/experiment_1/351.jpg,900,1,2023-04-03_18h26.49.606,Occlusion_Psychophysics,2022.1.4,Win32,60.06006006,,,left,"[""right""]",[0.9838999999983571],False,,0.0,0.0,87.0,87.0,87.0,1.0,,,,,,
,,,,,,,,,,,,,,,,,,,,,0.025,,,,,,,,,,Stimuli/psy_flexible_rotation_30_objects_occ0.7_0.9s/images/train/n04405907_9/n02933112_4/img_vray_004_buffet_2007_gray.jpg,n04405907_9,n02933112_4,flexible,0.708549,n04405907_5,Stimuli/psy_flexible_rotation_30_objects_occ0.7_0.9s/images/train/n02883344_-1/n04405907_5/img_woven_box_samsung_40_uhd_smart_tv_2011_2006-3_gray.png,random,flexible,n04405907_9,n04256520_9,Stimuli/canonical view 2/img_n04405907_9_gray.jpg,Stimuli/canonical view 2/img_n04256520_9_gray.jpg,random,left,Experiments/experiment_1/352.jpg,Experiments/experiment_1/353.jpg,Experiments/experiment_1/354.jpg,Experiments/experiment_1/355.jpg,900,1,2023-04-03_18h26.49.606,Occlusion_Psychophysics,2022.1.4,Win32,60.06006006,,,left,"[""right""]",[1.1861999999991895],False,,0.0,0.0,88.0,88.0,88.0,1.0,,,,,,
,,,,,,,,,,,,,,,,,,,,,0.05,,,,,,,,,,Stimuli/psy_flexible_rotation_30_objects_occ0.7_0.9s/images/train/n04256520_9/n04405907_8/img_napoleon_iii_sofa_stylized_tv_2006_gray.jpg,n04256520_9,n04405907_8,flexible,0.726545,n02818832_9,Stimuli/psy_flexible_rotation_30_objects_occ0.7_0.9s/images/train/n04405907_5/n02818832_9/img_samsung_40_uhd_smart_tv_2011_bed01_blue_2002-3_gray.png,random,flexible,n04256520_9,n04405907_8,Stimuli/canonical view 2/img_n04256520_9_gray.jpg,Stimuli/canonical view 2/img_n04405907_8_gray.jpg,foreground,right,Experiments/experiment_1/356.jpg,Experiments/experiment_1/357.jpg,Experiments/experiment_1/358.jpg,Experiments/experiment_1/359.jpg,900,1,2023-04-03_18h26.49.606,Occlusion_Psychophysics,2022.1.4,Win32,60.06006006,,,right,"[""left""]",[1.4643999999984771],False,,0.0,0.0,89.0,89.0,89.0,1.0,,,,,,
,,,,,,,,,,,,,,,,,,,,,0.025,,,,,,,,,,Stimuli/psy_fixed_rotation_30_objects_occ0.7_0.9s/images/train/n04379243_-7/n03928116_10/img_quatre_dining_table_ydp_103_r_2012__vray_2005_gray.jpg,n04379243_-7,n03928116_10,fixed,0.784378,n03928116_10,Stimuli/psy_fixed_rotation_30_objects_occ0.7_0.9s/images/train/n04379243_-7/n03928116_10/img_quatre_dining_table_ydp_103_r_2012__vray_2005-3_gray.png,foreground,same as foreground,n04379243_-7,n03928116_10,Stimuli/canonical view 2/img_n04379243_-7_gray.jpg,Stimuli/canonical view 2/img_n03928116_10_gray.jpg,foreground,left,Experiments/experiment_1/360.jpg,Experiments/experiment_1/361.jpg,Experiments/experiment_1/362.jpg,Experiments/experiment_1/363.jpg,900,1,2023-04-03_18h26.49.606,Occlusion_Psychophysics,2022.1.4,Win32,60.06006006,,,left,"[""left""]",[1.198900000002368],False,,0.0,0.0,90.0,90.0,90.0,1.0,,,,,,
,,,,,,,,,,,,,,,,,,,,,0.025,,,,,,,,,,Stimuli/psy_flexible_rotation_30_objects_occ0.7_0.9s/images/train/n04379243_-7/n02933112_4/img_quatre_dining_table_buffet_2008_gray.jpg,n04379243_-7,n02933112_4,flexible,0.817349,n02933112_4,Stimuli/psy_flexible_rotation_30_objects_occ0.7_0.9s/images/train/n04379243_-7/n02933112_4/img_quatre_dining_table_buffet_2008-3_gray.png,foreground,same as foreground,n04379243_-7,n02933112_4,Stimuli/canonical view 2/img_n04379243_-7_gray.jpg,Stimuli/canonical view 2/img_n02933112_4_gray.jpg,foreground,left,Experiments/experiment_1/364.jpg,Experiments/experiment_1/365.jpg,Experiments/experiment_1/366.jpg,Experiments/experiment_1/367.jpg,900,1,2023-04-03_18h26.49.606,Occlusion_Psychophysics,2022.1.4,Win32,60.06006006,,,left,"[""left""]",[1.2633000000007542],False,,0.0,0.0,91.0,91.0,91.0,1.0,,,,,,
,,,,,,,,,,,,,,,,,,,,,0.05,,,,,,,,,,Stimuli/psy_flexible_rotation_30_objects_occ0.7_0.9s/images/train/n02818832_9/n02828884_4/img_bed01_blue_b05_c-5_classic_series_bench-2012_2004_gray.jpg,n02818832_9,n02828884_4,flexible,0.700553,n02818832_3,Stimuli/psy_fixed_rotation_30_objects_occ0.7_0.9s/images/train/n02933112_-2/n02818832_3/img_sink_base_white_wood_b05_ccm_contemporary_bed_max2013_2010-3_gray.png,random,fixed,n02818832_9,n02828884_4,Stimuli/canonical view 2/img_n02818832_9_gray.jpg,Stimuli/canonical view 2/img_n02828884_4_gray.jpg,foreground,right,Experiments/experiment_1/368.jpg,Experiments/experiment_1/369.jpg,Experiments/experiment_1/370.jpg,Experiments/experiment_1/371.jpg,900,1,2023-04-03_18h26.49.606,Occlusion_Psychophysics,2022.1.4,Win32,60.06006006,,,right,"[""right""]",[0.9811000000015611],False,,0.0,0.0,92.0,92.0,92.0,1.0,,,,,,
,,,,,,,,,,,,,,,,,,,,,0.05,,,,,,,,,,Stimuli/psy_fixed_rotation_30_objects_occ0.7_0.9s/images/train/n04379243_0/n02828884_3/img_17th_c._monastery_dining_table_2010_b04_wood_metal_park_bench_2001_gray.jpg,n04379243_0,n02828884_3,fixed,0.838941,n02818832_9,Stimuli/psy_fixed_rotation_30_objects_occ0.7_0.9s/images/train/n04405907_8/n02818832_9/img_stylized_tv_bed01_blue_2000-3_gray.png,random,fixed,n04379243_0,n04379243_-7,Stimuli/canonical view 2/img_n04379243_0_gray.jpg,Stimuli/canonical view 2/img_n04379243_-7_gray.jpg,random,left,Experiments/experiment_1/372.jpg,Experiments/experiment_1/373.jpg,Experiments/experiment_1/374.jpg,Experiments/experiment_1/375.jpg,900,1,2023-04-03_18h26.49.606,Occlusion_Psychophysics,2022.1.4,Win32,60.06006006,,,right,"[""right""]",[1.026800000000776],False,,0.0,0.0,93.0,93.0,93.0,1.0,,,,,,
,,,,,,,,,,,,,,,,,,,,,0.025,,,,,,,,,,Stimuli/psy_flexible_rotation_30_objects_occ0.7_0.9s/images/train/n02933112_4/n04405907_8/img_buffet_stylized_tv_2005_gray.jpg,n02933112_4,n04405907_8,flexible,0.732166,n04405907_8,Stimuli/psy_flexible_rotation_30_objects_occ0.7_0.9s/images/train/n02933112_4/n04405907_8/img_buffet_stylized_tv_2005-3_gray.png,foreground,same as foreground,n02933112_4,n04405907_8,Stimuli/canonical view 2/img_n02933112_4_gray.jpg,Stimuli/canonical view 2/img_n04405907_8_gray.jpg,foreground,left,Experiments/experiment_1/376.jpg,Experiments/experiment_1/377.jpg,Experiments/experiment_1/378.jpg,Experiments/experiment_1/379.jpg,900,1,2023-04-03_18h26.49.606,Occlusion_Psychophysics,2022.1.4,Win32,60.06006006,,,left,"[""left""]",[0.7966999999991913],False,,0.0,0.0,94.0,94.0,94.0,1.0,,,,,,
,,,,,,,,,,,,,,,,,,,,,0.025,,,,,,,,,,Stimuli/psy_fixed_rotation_30_objects_occ0.7_0.9s/images/train/n03001627_-2/n02933112_-18/img_wood_chair_cgaxis_models_48_26_vray_composite_2009_gray.jpg,n03001627_-2,n02933112_-18,fixed,0.827514,n02933112_-18,Stimuli/psy_fixed_rotation_30_objects_occ0.7_0.9s/images/train/n03001627_-2/n02933112_-18/img_wood_chair_cgaxis_models_48_26_vray_composite_2009-3_gray.png,foreground,same as foreground,n03001627_-2,n02933112_-18,Stimuli/canonical view 2/img_n03001627_-2_gray.jpg,Stimuli/canonical view 2/img_n02933112_-18_gray.jpg,foreground,left,Experiments/experiment_1/380.jpg,Experiments/experiment_1/381.jpg,Experiments/experiment_1/382.jpg,Experiments/experiment_1/383.jpg,900,1,2023-04-03_18h26.49.606,Occlusion_Psychophysics,2022.1.4,Win32,60.06006006,,,left,"[""left""]",[1.0715000000000146],False,,0.0,0.0,95.0,95.0,95.0,1.0,,,,,,
,,,,,,,,,,,,,,,,,,,,,0.025,,,,,,,,,,Stimuli/psy_flexible_rotation_30_objects_occ0.7_0.9s/images/train/n04405907_9/n02933112_-18/img_vray_004_cgaxis_models_48_26_vray_composite_2010_gray.jpg,n04405907_9,n02933112_-18,flexible,0.753792,n04405907_8,Stimuli/psy_flexible_rotation_30_objects_occ0.7_0.9s/images/train/n02933112_-18/n04405907_8/img_cgaxis_models_48_26_vray_composite_stylized_tv_2001-3_gray.png,random,flexible,n04405907_9,n02933112_-18,Stimuli/canonical view 2/img_n04405907_9_gray.jpg,Stimuli/canonical view 2/img_n02933112_-18_gray.jpg,foreground,left,Experiments/experiment_1/384.jpg,Experiments/experiment_1/385.jpg,Experiments/experiment_1/386.jpg,Experiments/experiment_1/387.jpg,900,1,2023-04-03_18h26.49.606,Occlusion_Psychophysics,2022.1.4,Win32,60.06006006,,,left,"[""right""]",[1.3585000000000491],False,,0.0,0.0,96.0,96.0,96.0,1.0,,,,,,
,,,,,,,,,,,,,,,,,,,,,0.025,,,,,,,,,,Stimuli/psy_fixed_rotation_30_objects_occ0.7_0.9s/images/train/n02828884_9/n04256520_5/img_cr-96_bench_meridiani_belmondo_bench_sofa_2006_gray.jpg,n02828884_9,n04256520_5,fixed,0.743235,n04256520_5,Stimuli/psy_fixed_rotation_30_objects_occ0.7_0.9s/images/train/n02828884_9/n04256520_5/img_cr-96_bench_meridiani_belmondo_bench_sofa_2006-3_gray.png,foreground,same as foreground,n02828884_9,n04256520_5,Stimuli/canonical view 2/img_n02828884_9_gray.jpg,Stimuli/canonical view 2/img_n04256520_5_gray.jpg,foreground,right,Experiments/experiment_1/388.jpg,Experiments/experiment_1/389.jpg,Experiments/experiment_1/390.jpg,Experiments/experiment_1/391.jpg,900,1,2023-04-03_18h26.49.606,Occlusion_Psychophysics,2022.1.4,Win32,60.06006006,,,left,"[""left""]",[0.884499999999889],False,,0.0,0.0,97.0,97.0,97.0,1.0,,,,,,
,,,,,,,,,,,,,,,,,,,,,0.025,,,,,,,,,,Stimuli/psy_flexible_rotation_30_objects_occ0.7_0.9s/images/train/n02828884_3/n03928116_10/img_b04_wood_metal_park_bench_ydp_103_r_2012__vray_2005_gray.jpg,n02828884_3,n03928116_10,flexible,0.739154,n02828884_3,Stimuli/psy_flexible_rotation_30_objects_occ0.7_0.9s/images/train/n04256520_9/n02828884_3/img_napoleon_iii_sofa_b04_wood_metal_park_bench_2012-3_gray.png,random,flexible,n02828884_3,n03001627_9,Stimuli/canonical view 2/img_n02828884_3_gray.jpg,Stimuli/canonical view 2/img_n03001627_9_gray.jpg,random,left,Experiments/experiment_1/392.jpg,Experiments/experiment_1/393.jpg,Experiments/experiment_1/394.jpg,Experiments/experiment_1/395.jpg,900,1,2023-04-03_18h26.49.606,Occlusion_Psychophysics,2022.1.4,Win32,60.06006006,,,left,"[""left""]",[0.7789999999999964],False,,0.0,0.0,98.0,98.0,98.0,1.0,,,,,,
,,,,,,,,,,,,,,,,,,,,,0.05,,,,,,,,,,Stimuli/psy_flexible_rotation_30_objects_occ0.7_0.9s/images/train/n04256520_5/n02818832_9/img_meridiani_belmondo_bench_sofa_bed01_blue_2009_gray.jpg,n04256520_5,n02818832_9,flexible,0.865923,n02933112_4,Stimuli/psy_fixed_rotation_30_objects_occ0.7_0.9s/images/train/n04256520_9/n02933112_4/img_napoleon_iii_sofa_buffet_2009-3_gray.png,random,fixed,n04256520_5,n04256520_9,Stimuli/canonical view 2/img_n04256520_5_gray.jpg,Stimuli/canonical view 2/img_n04256520_9_gray.jpg,random,right,Experiments/experiment_1/396.jpg,Experiments/experiment_1/397.jpg,Experiments/experiment_1/398.jpg,Experiments/experiment_1/399.jpg,900,1,2023-04-03_18h26.49.606,Occlusion_Psychophysics,2022.1.4,Win32,60.06006006,,,left,"[""left""]",[0.7952999999968142],False,,0.0,0.0,99.0,99.0,99.0,1.0,,,,,,
,,,,,,,,,,,,,,,,,,,,,,,,,,,,,,,,,,,,,,,,,,,,,,,,,,900,1,2023-04-03_18h26.49.606,Occlusion_Psychophysics,2022.1.4,Win32,60.06006006,,,,,,,,,,,,,,,0.0,0.0,0.0,0.0,1.0
,,,,,,,,,,,,,,,,,,,,,0.05,,,,,,,,,,Stimuli/psy_flexible_rotation_30_objects_occ0.7_0.9s/images/train/n02818832_0/n04405907_8/img_b03_the_sofa_and_chair_company_-_stanley_bed_2014_stylized_tv_2003_gray.jpg,n02818832_0,n04405907_8,flexible,0.769278,n02828884_3,Stimuli/psy_fixed_rotation_30_objects_occ0.7_0.9s/images/train/n02883344_15/n02828884_3/img_microwave_box_b04_wood_metal_park_bench_2014-3_gray.png,random,fixed,n02818832_0,n04405907_8,Stimuli/canonical view 2/img_n02818832_0_gray.jpg,Stimuli/canonical view 2/img_n04405907_8_gray.jpg,foreground,right,Experiments/experiment_1/400.jpg,Experiments/experiment_1/401.jpg,Experiments/experiment_1/402.jpg,Experiments/experiment_1/403.jpg,900,1,2023-04-03_18h26.49.606,Occlusion_Psychophysics,2022.1.4,Win32,60.06006006,,,left,"[""right""]",[0.9026000000014847],False,,0.0,0.0,0.0,0.0,0.0,1.0,,,,,,
,,,,,,,,,,,,,,,,,,,,,0.025,,,,,,,,,,Stimuli/psy_flexible_rotation_30_objects_occ0.7_0.9s/images/train/n02933112_4/n02883344_0/img_buffet_b03_box_2001_gray.jpg,n02933112_4,n02883344_0,flexible,0.791731,n03001627_-2,Stimuli/psy_flexible_rotation_30_objects_occ0.7_0.9s/images/train/n02883344_15/n03001627_-2/img_microwave_box_wood_chair_2008-3_gray.png,random,flexible,n02933112_4,n02883344_0,Stimuli/canonical view 2/img_n02933112_4_gray.jpg,Stimuli/canonical view 2/img_n02883344_0_gray.jpg,foreground,left,Experiments/experiment_1/404.jpg,Experiments/experiment_1/405.jpg,Experiments/experiment_1/406.jpg,Experiments/experiment_1/407.jpg,900,1,2023-04-03_18h26.49.606,Occlusion_Psychophysics,2022.1.4,Win32,60.06006006,,,left,"[""left""]",[0.7419000000022606],False,,0.0,0.0,1.0,1.0,1.0,1.0,,,,,,
,,,,,,,,,,,,,,,,,,,,,0.025,,,,,,,,,,Stimuli/psy_flexible_rotation_30_objects_occ0.7_0.9s/images/train/n03928116_10/n02933112_-2/img_ydp_103_r_2012__vray_sink_base_white_wood_2015_gray.jpg,n03928116_10,n02933112_-2,flexible,0.712266,n02933112_-2,Stimuli/psy_flexible_rotation_30_objects_occ0.7_0.9s/images/train/n03928116_10/n02933112_-2/img_ydp_103_r_2012__vray_sink_base_white_wood_2015-3_gray.png,foreground,same as foreground,n03928116_10,n04379243_8,Stimuli/canonical view 2/img_n03928116_10_gray.jpg,Stimuli/canonical view 2/img_n04379243_8_gray.jpg,random,right,Experiments/experiment_1/408.jpg,Experiments/experiment_1/409.jpg,Experiments/experiment_1/410.jpg,Experiments/experiment_1/411.jpg,900,1,2023-04-03_18h26.49.606,Occlusion_Psychophysics,2022.1.4,Win32,60.06006006,,,left,"[""left""]",[0.9728999999983898],False,,0.0,0.0,2.0,2.0,2.0,1.0,,,,,,
