in_color,Instructions_key.keys,Instructions_key.rt,Tutorial_instruction_key.keys,Tutorial_instruction_key.rt,Tutorial_fixation_ley.keys,Tutorial_fixation_ley.rt,Tutorial_single_img_key.keys,Tutorial_single_img_key.rt,Tutorial_intra_trial_fixation_key.keys,Tutorial_intra_trial_fixation_key.rt,Tutorial_stimulus_key.keys,Tutorial_stimulus_key.rt,Tutorial_response_key.keys,Tutorial_response_key.rt,Tutorial_attention_check_key.keys,Tutorial_attention_check_key.rt,advance_or_repeat.keys,advance_or_repeat.rt,Practice_instructions_key.keys,Practice_instructions_key.rt,intra_trial_duration,Practice_key_response.keys,Practice_key_response.rt,Practice_react_key.keys,Practice_react_key.rt,Practice_loop.thisRepN,Practice_loop.thisTrialN,Practice_loop.thisN,Practice_loop.thisIndex,Practice_loop.ran,multi_object_filepath,background_id,foreground_id,multi_object_rotation,occlusion_level,single_object_id,single_object_filepath,single_is_foreground_or_random,single_object_rotation,background_choice_id,alt_choice_id,background_option_filepath,alternative_option_filepath,alternative_is_foreground_or_random,location_of_correct_answer,multi_object_exp_filename,single_object_exp_filename,background_option_exp_filename,alternative_option_exp_filename,participant,session,date,expName,psychopyVersion,OS,frameRate,Practice_end_key.keys,Practice_end_key.rt,correct_answer,Input_selection.keys,Input_selection.rt,Was_attention_check,Attention_check.keys,Attention_check.corr,Each_session_loop.thisRepN,Each_session_loop.thisTrialN,Each_session_loop.thisN,Each_session_loop.thisIndex,Each_session_loop.ran,Attention_check.rt,Num_sessions.thisRepN,Num_sessions.thisTrialN,Num_sessions.thisN,Num_sessions.thisIndex,Num_sessions.ran
False,space,33.1068,left,3.5519,left,2.8537,left,4.1514,left,2.4343,left,10.9729,right,8.7372,right,5.9809,a,6.7635,space,4.9599,0.05,right,1.0177,a,4.4576,0.0,0.0,0.0,0.0,1.0,Stimuli/psy_fixed_rotation_30_objects_occ0.7_0.9s/images/train/n04256520_9/n04379243_0/img_napoleon_iii_sofa_17th_c._monastery_dining_table_2010_2012_gray.jpg,n04256520_9,n04379243_0,fixed,0.743483,n04405907_8,Stimuli/psy_fixed_rotation_30_objects_occ0.7_0.9s/images/train/n03928116_0/n04405907_8/img_b02_piano_stylized_tv_2005-3_gray.png,random,fixed,n04256520_9,n04379243_0,Stimuli/canonical view 2/img_n04256520_9_gray.jpg,Stimuli/canonical view 2/img_n04379243_0_gray.jpg,foreground,right,Experiments/experiment_39/1000.jpg,Experiments/experiment_39/1001.jpg,Experiments/experiment_39/1002.jpg,Experiments/experiment_39/1003.jpg,913,1,2023-06-28_12h33.45.302,Occlusion_Psychophysics,2022.1.4,Win32,60.02040694,,,,,,,,,,,,,,,,,,,
,,,,,,,,,,,,,,,,,,,,,0.025,,,,,,,,,,Stimuli/psy_fixed_rotation_30_objects_occ0.7_0.9s/images/train/n02828884_4/n04405907_5/img_b05_c-5_classic_series_bench-2012_samsung_40_uhd_smart_tv_2011_2003_gray.jpg,n02828884_4,n04405907_5,fixed,0.70498,n04405907_5,Stimuli/psy_fixed_rotation_30_objects_occ0.7_0.9s/images/train/n02828884_4/n04405907_5/img_b05_c-5_classic_series_bench-2012_samsung_40_uhd_smart_tv_2011_2003-3_gray.png,foreground,same as foreground,n02828884_4,n04256520_4,Stimuli/canonical view 2/img_n02828884_4_gray.jpg,Stimuli/canonical view 2/img_n04256520_4_gray.jpg,random,left,Experiments/experiment_39/0.jpg,Experiments/experiment_39/1.jpg,Experiments/experiment_39/2.jpg,Experiments/experiment_39/3.jpg,913,1,2023-06-28_12h33.45.302,Occlusion_Psychophysics,2022.1.4,Win32,60.02040694,space,1.7341,left,"[""right""]",[1.0021000000238018],False,,0.0,0.0,0.0,0.0,0.0,1.0,,,,,,
,,,,,,,,,,,,,,,,,,,,,0.025,,,,,,,,,,Stimuli/psy_flexible_rotation_30_objects_occ0.7_0.9s/images/train/n04405907_8/n03928116_0/img_stylized_tv_b02_piano_2002_gray.jpg,n04405907_8,n03928116_0,flexible,0.848391,n02883344_-1,Stimuli/psy_fixed_rotation_30_objects_occ0.7_0.9s/images/train/n02933112_-18/n02883344_-1/img_cgaxis_models_48_26_vray_composite_woven_box_2012-3_gray.png,random,fixed,n04405907_8,n02933112_-18,Stimuli/canonical view 2/img_n04405907_8_gray.jpg,Stimuli/canonical view 2/img_n02933112_-18_gray.jpg,random,right,Experiments/experiment_39/4.jpg,Experiments/experiment_39/5.jpg,Experiments/experiment_39/6.jpg,Experiments/experiment_39/7.jpg,913,1,2023-06-28_12h33.45.302,Occlusion_Psychophysics,2022.1.4,Win32,60.02040694,,,right,"[""left""]",[1.10969999992858],False,,0.0,0.0,1.0,1.0,1.0,1.0,,,,,,
,,,,,,,,,,,,,,,,,,,,,0.05,,,,,,,,,,Stimuli/psy_fixed_rotation_30_objects_occ0.7_0.9s/images/train/n02883344_-1/n04256520_4/img_woven_box_club_house_italia_nautilus_sofa_2006_gray.jpg,n02883344_-1,n04256520_4,fixed,0.730006,n03001627_-2,Stimuli/psy_flexible_rotation_30_objects_occ0.7_0.9s/images/train/n03001627_-2/n03001627_-2/img_wood_chair_wood_chair_2005-3_gray.png,random,flexible,n02883344_-1,n04256520_4,Stimuli/canonical view 2/img_n02883344_-1_gray.jpg,Stimuli/canonical view 2/img_n04256520_4_gray.jpg,foreground,right,Experiments/experiment_39/8.jpg,Experiments/experiment_39/9.jpg,Experiments/experiment_39/10.jpg,Experiments/experiment_39/11.jpg,913,1,2023-06-28_12h33.45.302,Occlusion_Psychophysics,2022.1.4,Win32,60.02040694,,,left,"[""left""]",[0.7495000000000118],False,,0.0,0.0,2.0,2.0,2.0,1.0,,,,,,
,,,,,,,,,,,,,,,,,,,,,0.025,,,,,,,,,,Stimuli/psy_fixed_rotation_30_objects_occ0.7_0.9s/images/train/n02933112_4/n04379243_0/img_buffet_17th_c._monastery_dining_table_2010_2011_gray.jpg,n02933112_4,n04379243_0,fixed,0.782733,n04405907_5,Stimuli/psy_flexible_rotation_30_objects_occ0.7_0.9s/images/train/n02818832_0/n04405907_5/img_b03_the_sofa_and_chair_company_-_stanley_bed_2014_samsung_40_uhd_smart_tv_2011_2014-3_gray.png,random,flexible,n02933112_4,n02828884_9,Stimuli/canonical view 2/img_n02933112_4_gray.jpg,Stimuli/canonical view 2/img_n02828884_9_gray.jpg,random,right,Experiments/experiment_39/12.jpg,Experiments/experiment_39/13.jpg,Experiments/experiment_39/14.jpg,Experiments/experiment_39/15.jpg,913,1,2023-06-28_12h33.45.302,Occlusion_Psychophysics,2022.1.4,Win32,60.02040694,,,left,"[""left""]",[0.8351999999284772],False,,0.0,0.0,3.0,3.0,3.0,1.0,,,,,,
,,,,,,,,,,,,,,,,,,,,,0.025,,,,,,,,,,Stimuli/psy_fixed_rotation_30_objects_occ0.7_0.9s/images/train/n03001627_9/n02933112_-18/img_chair_eames_plastic_armchair_cgaxis_models_48_26_vray_composite_2008_gray.jpg,n03001627_9,n02933112_-18,fixed,0.746356,n02933112_-18,Stimuli/psy_fixed_rotation_30_objects_occ0.7_0.9s/images/train/n03001627_9/n02933112_-18/img_chair_eames_plastic_armchair_cgaxis_models_48_26_vray_composite_2008-3_gray.png,foreground,same as foreground,n03001627_9,n02933112_-18,Stimuli/canonical view 2/img_n03001627_9_gray.jpg,Stimuli/canonical view 2/img_n02933112_-18_gray.jpg,foreground,left,Experiments/experiment_39/16.jpg,Experiments/experiment_39/17.jpg,Experiments/experiment_39/18.jpg,Experiments/experiment_39/19.jpg,913,1,2023-06-28_12h33.45.302,Occlusion_Psychophysics,2022.1.4,Win32,60.02040694,,,right,"[""right""]",[0.6461000000238073],True,right,1.0,0.0,4.0,4.0,4.0,1.0,0.969,,,,,
,,,,,,,,,,,,,,,,,,,,,0.025,,,,,,,,,,Stimuli/psy_flexible_rotation_30_objects_occ0.7_0.9s/images/train/n02883344_15/n03928116_4/img_microwave_box_dp_33_b_2013__vray_2008_gray.jpg,n02883344_15,n03928116_4,flexible,0.714488,n03928116_4,Stimuli/psy_flexible_rotation_30_objects_occ0.7_0.9s/images/train/n02883344_15/n03928116_4/img_microwave_box_dp_33_b_2013__vray_2008-3_gray.png,foreground,same as foreground,n02883344_15,n02828884_9,Stimuli/canonical view 2/img_n02883344_15_gray.jpg,Stimuli/canonical view 2/img_n02828884_9_gray.jpg,random,left,Experiments/experiment_39/20.jpg,Experiments/experiment_39/21.jpg,Experiments/experiment_39/22.jpg,Experiments/experiment_39/23.jpg,913,1,2023-06-28_12h33.45.302,Occlusion_Psychophysics,2022.1.4,Win32,60.02040694,,,left,"[""left""]",[0.6803999999762027],False,,0.0,0.0,5.0,5.0,5.0,1.0,,,,,,
,,,,,,,,,,,,,,,,,,,,,0.025,,,,,,,,,,Stimuli/psy_fixed_rotation_30_objects_occ0.7_0.9s/images/train/n02818832_9/n04379243_0/img_bed01_blue_17th_c._monastery_dining_table_2010_2003_gray.jpg,n02818832_9,n04379243_0,fixed,0.738537,n04379243_0,Stimuli/psy_fixed_rotation_30_objects_occ0.7_0.9s/images/train/n02818832_9/n04379243_0/img_bed01_blue_17th_c._monastery_dining_table_2010_2003-3_gray.png,foreground,same as foreground,n02818832_9,n04405907_9,Stimuli/canonical view 2/img_n02818832_9_gray.jpg,Stimuli/canonical view 2/img_n04405907_9_gray.jpg,random,right,Experiments/experiment_39/24.jpg,Experiments/experiment_39/25.jpg,Experiments/experiment_39/26.jpg,Experiments/experiment_39/27.jpg,913,1,2023-06-28_12h33.45.302,Occlusion_Psychophysics,2022.1.4,Win32,60.02040694,,,left,"[""left""]",[0.803900000095382],False,,0.0,0.0,6.0,6.0,6.0,1.0,,,,,,
,,,,,,,,,,,,,,,,,,,,,0.05,,,,,,,,,,Stimuli/psy_flexible_rotation_30_objects_occ0.7_0.9s/images/train/n02828884_3/n03928116_0/img_b04_wood_metal_park_bench_b02_piano_2006_gray.jpg,n02828884_3,n03928116_0,flexible,0.742152,n02883344_0,Stimuli/psy_flexible_rotation_30_objects_occ0.7_0.9s/images/train/n02883344_-1/n02883344_0/img_woven_box_b03_box_2000-3_gray.png,random,flexible,n02828884_3,n03928116_0,Stimuli/canonical view 2/img_n02828884_3_gray.jpg,Stimuli/canonical view 2/img_n03928116_0_gray.jpg,foreground,left,Experiments/experiment_39/28.jpg,Experiments/experiment_39/29.jpg,Experiments/experiment_39/30.jpg,Experiments/experiment_39/31.jpg,913,1,2023-06-28_12h33.45.302,Occlusion_Psychophysics,2022.1.4,Win32,60.02040694,,,right,"[""right""]",[0.903399999976159],False,,0.0,0.0,7.0,7.0,7.0,1.0,,,,,,
,,,,,,,,,,,,,,,,,,,,,0.025,,,,,,,,,,Stimuli/psy_fixed_rotation_30_objects_occ0.7_0.9s/images/train/n02828884_3/n02933112_-2/img_b04_wood_metal_park_bench_sink_base_white_wood_2008_gray.jpg,n02828884_3,n02933112_-2,fixed,0.842472,n02818832_9,Stimuli/psy_fixed_rotation_30_objects_occ0.7_0.9s/images/train/n04256520_5/n02818832_9/img_meridiani_belmondo_bench_sofa_bed01_blue_2015-3_gray.png,random,fixed,n02828884_3,n02933112_-2,Stimuli/canonical view 2/img_n02828884_3_gray.jpg,Stimuli/canonical view 2/img_n02933112_-2_gray.jpg,foreground,left,Experiments/experiment_39/32.jpg,Experiments/experiment_39/33.jpg,Experiments/experiment_39/34.jpg,Experiments/experiment_39/35.jpg,913,1,2023-06-28_12h33.45.302,Occlusion_Psychophysics,2022.1.4,Win32,60.02040694,,,left,"[""left""]",[0.7655999999046799],False,,0.0,0.0,8.0,8.0,8.0,1.0,,,,,,
,,,,,,,,,,,,,,,,,,,,,0.025,,,,,,,,,,Stimuli/psy_fixed_rotation_30_objects_occ0.7_0.9s/images/train/n04256520_4/n02818832_9/img_club_house_italia_nautilus_sofa_bed01_blue_2013_gray.jpg,n04256520_4,n02818832_9,fixed,0.77326,n04379243_0,Stimuli/psy_flexible_rotation_30_objects_occ0.7_0.9s/images/train/n04405907_8/n04379243_0/img_stylized_tv_17th_c._monastery_dining_table_2010_2014-3_gray.png,random,flexible,n04256520_4,n02818832_3,Stimuli/canonical view 2/img_n04256520_4_gray.jpg,Stimuli/canonical view 2/img_n02818832_3_gray.jpg,random,left,Experiments/experiment_39/36.jpg,Experiments/experiment_39/37.jpg,Experiments/experiment_39/38.jpg,Experiments/experiment_39/39.jpg,913,1,2023-06-28_12h33.45.302,Occlusion_Psychophysics,2022.1.4,Win32,60.02040694,,,left,"[""left""]",[0.8282000000477865],False,,0.0,0.0,9.0,9.0,9.0,1.0,,,,,,
,,,,,,,,,,,,,,,,,,,,,0.025,,,,,,,,,,Stimuli/psy_flexible_rotation_30_objects_occ0.7_0.9s/images/train/n03001627_8/n04405907_5/img_chair_billiani_doll_samsung_40_uhd_smart_tv_2011_2000_gray.jpg,n03001627_8,n04405907_5,flexible,0.756891,n04405907_5,Stimuli/psy_flexible_rotation_30_objects_occ0.7_0.9s/images/train/n03001627_8/n04405907_5/img_chair_billiani_doll_samsung_40_uhd_smart_tv_2011_2000-3_gray.png,foreground,same as foreground,n03001627_8,n04405907_5,Stimuli/canonical view 2/img_n03001627_8_gray.jpg,Stimuli/canonical view 2/img_n04405907_5_gray.jpg,foreground,right,Experiments/experiment_39/40.jpg,Experiments/experiment_39/41.jpg,Experiments/experiment_39/42.jpg,Experiments/experiment_39/43.jpg,913,1,2023-06-28_12h33.45.302,Occlusion_Psychophysics,2022.1.4,Win32,60.02040694,,,right,"[""right""]",[0.8623999999761054],False,,0.0,0.0,10.0,10.0,10.0,1.0,,,,,,
,,,,,,,,,,,,,,,,,,,,,0.05,,,,,,,,,,Stimuli/psy_fixed_rotation_30_objects_occ0.7_0.9s/images/train/n03001627_9/n02883344_-1/img_chair_eames_plastic_armchair_woven_box_2007_gray.jpg,n03001627_9,n02883344_-1,fixed,0.766959,n04256520_9,Stimuli/psy_fixed_rotation_30_objects_occ0.7_0.9s/images/train/n02828884_3/n04256520_9/img_b04_wood_metal_park_bench_napoleon_iii_sofa_2010-3_gray.png,random,fixed,n03001627_9,n02883344_-1,Stimuli/canonical view 2/img_n03001627_9_gray.jpg,Stimuli/canonical view 2/img_n02883344_-1_gray.jpg,foreground,left,Experiments/experiment_39/44.jpg,Experiments/experiment_39/45.jpg,Experiments/experiment_39/46.jpg,Experiments/experiment_39/47.jpg,913,1,2023-06-28_12h33.45.302,Occlusion_Psychophysics,2022.1.4,Win32,60.02040694,,,right,"[""right""]",[0.9037999999522981],False,,0.0,0.0,11.0,11.0,11.0,1.0,,,,,,
,,,,,,,,,,,,,,,,,,,,,0.05,,,,,,,,,,Stimuli/psy_fixed_rotation_30_objects_occ0.7_0.9s/images/train/n02818832_9/n02883344_-1/img_bed01_blue_woven_box_2009_gray.jpg,n02818832_9,n02883344_-1,fixed,0.892355,n02883344_-1,Stimuli/psy_fixed_rotation_30_objects_occ0.7_0.9s/images/train/n02818832_9/n02883344_-1/img_bed01_blue_woven_box_2009-3_gray.png,foreground,same as foreground,n02818832_9,n02883344_-1,Stimuli/canonical view 2/img_n02818832_9_gray.jpg,Stimuli/canonical view 2/img_n02883344_-1_gray.jpg,foreground,right,Experiments/experiment_39/48.jpg,Experiments/experiment_39/49.jpg,Experiments/experiment_39/50.jpg,Experiments/experiment_39/51.jpg,913,1,2023-06-28_12h33.45.302,Occlusion_Psychophysics,2022.1.4,Win32,60.02040694,,,right,"[""right""]",[0.8712999999523845],False,,0.0,0.0,12.0,12.0,12.0,1.0,,,,,,
,,,,,,,,,,,,,,,,,,,,,0.025,,,,,,,,,,Stimuli/psy_flexible_rotation_30_objects_occ0.7_0.9s/images/train/n02933112_-18/n02933112_4/img_cgaxis_models_48_26_vray_composite_buffet_2005_gray.jpg,n02933112_-18,n02933112_4,flexible,0.715429,n04405907_9,Stimuli/psy_fixed_rotation_30_objects_occ0.7_0.9s/images/train/n03928116_0/n04405907_9/img_b02_piano_vray_004_2006-3_gray.png,random,fixed,n02933112_-18,n04405907_8,Stimuli/canonical view 2/img_n02933112_-18_gray.jpg,Stimuli/canonical view 2/img_n04405907_8_gray.jpg,random,left,Experiments/experiment_39/52.jpg,Experiments/experiment_39/53.jpg,Experiments/experiment_39/54.jpg,Experiments/experiment_39/55.jpg,913,1,2023-06-28_12h33.45.302,Occlusion_Psychophysics,2022.1.4,Win32,60.02040694,,,left,"[""left""]",[1.0482999999524054],False,,0.0,0.0,13.0,13.0,13.0,1.0,,,,,,
,,,,,,,,,,,,,,,,,,,,,0.05,,,,,,,,,,Stimuli/psy_fixed_rotation_30_objects_occ0.7_0.9s/images/train/n02883344_-1/n02883344_0/img_woven_box_b03_box_2005_gray.jpg,n02883344_-1,n02883344_0,fixed,0.770282,n04405907_8,Stimuli/psy_flexible_rotation_30_objects_occ0.7_0.9s/images/train/n02933112_-18/n04405907_8/img_cgaxis_models_48_26_vray_composite_stylized_tv_2010-3_gray.png,random,flexible,n02883344_-1,n02883344_0,Stimuli/canonical view 2/img_n02883344_-1_gray.jpg,Stimuli/canonical view 2/img_n02883344_0_gray.jpg,foreground,right,Experiments/experiment_39/56.jpg,Experiments/experiment_39/57.jpg,Experiments/experiment_39/58.jpg,Experiments/experiment_39/59.jpg,913,1,2023-06-28_12h33.45.302,Occlusion_Psychophysics,2022.1.4,Win32,60.02040694,,,left,"[""left""]",[0.7799000000953811],False,,0.0,0.0,14.0,14.0,14.0,1.0,,,,,,
,,,,,,,,,,,,,,,,,,,,,0.025,,,,,,,,,,Stimuli/psy_flexible_rotation_30_objects_occ0.7_0.9s/images/train/n02883344_15/n03928116_4/img_microwave_box_dp_33_b_2013__vray_2013_gray.jpg,n02883344_15,n03928116_4,flexible,0.774212,n03928116_4,Stimuli/psy_flexible_rotation_30_objects_occ0.7_0.9s/images/train/n02883344_15/n03928116_4/img_microwave_box_dp_33_b_2013__vray_2013-3_gray.png,foreground,same as foreground,n02883344_15,n02828884_9,Stimuli/canonical view 2/img_n02883344_15_gray.jpg,Stimuli/canonical view 2/img_n02828884_9_gray.jpg,random,left,Experiments/experiment_39/60.jpg,Experiments/experiment_39/61.jpg,Experiments/experiment_39/62.jpg,Experiments/experiment_39/63.jpg,913,1,2023-06-28_12h33.45.302,Occlusion_Psychophysics,2022.1.4,Win32,60.02040694,,,left,"[""left""]",[0.8482999999523599],False,,0.0,0.0,15.0,15.0,15.0,1.0,,,,,,
,,,,,,,,,,,,,,,,,,,,,0.05,,,,,,,,,,Stimuli/psy_fixed_rotation_30_objects_occ0.7_0.9s/images/train/n04256520_5/n04379243_8/img_meridiani_belmondo_bench_sofa_glass_table_2006_gray.jpg,n04256520_5,n04379243_8,fixed,0.744446,n04379243_8,Stimuli/psy_fixed_rotation_30_objects_occ0.7_0.9s/images/train/n04256520_5/n04379243_8/img_meridiani_belmondo_bench_sofa_glass_table_2006-3_gray.png,foreground,same as foreground,n04256520_5,n04379243_8,Stimuli/canonical view 2/img_n04256520_5_gray.jpg,Stimuli/canonical view 2/img_n04379243_8_gray.jpg,foreground,right,Experiments/experiment_39/64.jpg,Experiments/experiment_39/65.jpg,Experiments/experiment_39/66.jpg,Experiments/experiment_39/67.jpg,913,1,2023-06-28_12h33.45.302,Occlusion_Psychophysics,2022.1.4,Win32,60.02040694,,,left,"[""left""]",[0.8423999999762373],False,,0.0,0.0,16.0,16.0,16.0,1.0,,,,,,
,,,,,,,,,,,,,,,,,,,,,0.025,,,,,,,,,,Stimuli/psy_fixed_rotation_30_objects_occ0.7_0.9s/images/train/n03928116_4/n02818832_9/img_dp_33_b_2013__vray_bed01_blue_2015_gray.jpg,n03928116_4,n02818832_9,fixed,0.845035,n02818832_0,Stimuli/psy_flexible_rotation_30_objects_occ0.7_0.9s/images/train/n02828884_3/n02818832_0/img_b04_wood_metal_park_bench_b03_the_sofa_and_chair_company_-_stanley_bed_2014_2009-3_gray.png,random,flexible,n03928116_4,n04379243_0,Stimuli/canonical view 2/img_n03928116_4_gray.jpg,Stimuli/canonical view 2/img_n04379243_0_gray.jpg,random,left,Experiments/experiment_39/68.jpg,Experiments/experiment_39/69.jpg,Experiments/experiment_39/70.jpg,Experiments/experiment_39/71.jpg,913,1,2023-06-28_12h33.45.302,Occlusion_Psychophysics,2022.1.4,Win32,60.02040694,,,left,"[""right""]",[0.7808999999762136],False,,0.0,0.0,17.0,17.0,17.0,1.0,,,,,,
,,,,,,,,,,,,,,,,,,,,,0.05,,,,,,,,,,Stimuli/psy_flexible_rotation_30_objects_occ0.7_0.9s/images/train/n02828884_3/n03928116_0/img_b04_wood_metal_park_bench_b02_piano_2000_gray.jpg,n02828884_3,n03928116_0,flexible,0.831284,n03928116_0,Stimuli/psy_flexible_rotation_30_objects_occ0.7_0.9s/images/train/n02828884_3/n03928116_0/img_b04_wood_metal_park_bench_b02_piano_2000-3_gray.png,foreground,same as foreground,n02828884_3,n03928116_0,Stimuli/canonical view 2/img_n02828884_3_gray.jpg,Stimuli/canonical view 2/img_n03928116_0_gray.jpg,foreground,left,Experiments/experiment_39/72.jpg,Experiments/experiment_39/73.jpg,Experiments/experiment_39/74.jpg,Experiments/experiment_39/75.jpg,913,1,2023-06-28_12h33.45.302,Occlusion_Psychophysics,2022.1.4,Win32,60.02040694,,,left,"[""left""]",[0.6414999999999509],False,,0.0,0.0,18.0,18.0,18.0,1.0,,,,,,
,,,,,,,,,,,,,,,,,,,,,0.025,,,,,,,,,,Stimuli/psy_flexible_rotation_30_objects_occ0.7_0.9s/images/train/n04405907_8/n03928116_0/img_stylized_tv_b02_piano_2000_gray.jpg,n04405907_8,n03928116_0,flexible,0.792774,n04405907_5,Stimuli/psy_fixed_rotation_30_objects_occ0.7_0.9s/images/train/n02818832_9/n04405907_5/img_bed01_blue_samsung_40_uhd_smart_tv_2011_2004-3_gray.png,random,fixed,n04405907_8,n02933112_-2,Stimuli/canonical view 2/img_n04405907_8_gray.jpg,Stimuli/canonical view 2/img_n02933112_-2_gray.jpg,random,right,Experiments/experiment_39/76.jpg,Experiments/experiment_39/77.jpg,Experiments/experiment_39/78.jpg,Experiments/experiment_39/79.jpg,913,1,2023-06-28_12h33.45.302,Occlusion_Psychophysics,2022.1.4,Win32,60.02040694,,,left,"[""left""]",[0.6446999999284344],False,,0.0,0.0,19.0,19.0,19.0,1.0,,,,,,
,,,,,,,,,,,,,,,,,,,,,0.05,,,,,,,,,,Stimuli/psy_fixed_rotation_30_objects_occ0.7_0.9s/images/train/n02818832_9/n02933112_-18/img_bed01_blue_cgaxis_models_48_26_vray_composite_2003_gray.jpg,n02818832_9,n02933112_-18,fixed,0.721942,n02828884_4,Stimuli/psy_fixed_rotation_30_objects_occ0.7_0.9s/images/train/n03001627_9/n02828884_4/img_chair_eames_plastic_armchair_b05_c-5_classic_series_bench-2012_2000-3_gray.png,random,fixed,n02818832_9,n02933112_-18,Stimuli/canonical view 2/img_n02818832_9_gray.jpg,Stimuli/canonical view 2/img_n02933112_-18_gray.jpg,foreground,left,Experiments/experiment_39/80.jpg,Experiments/experiment_39/81.jpg,Experiments/experiment_39/82.jpg,Experiments/experiment_39/83.jpg,913,1,2023-06-28_12h33.45.302,Occlusion_Psychophysics,2022.1.4,Win32,60.02040694,,,right,"[""right""]",[0.8781000000237782],False,,0.0,0.0,20.0,20.0,20.0,1.0,,,,,,
,,,,,,,,,,,,,,,,,,,,,0.025,,,,,,,,,,Stimuli/psy_flexible_rotation_30_objects_occ0.7_0.9s/images/train/n02818832_0/n03928116_0/img_b03_the_sofa_and_chair_company_-_stanley_bed_2014_b02_piano_2008_gray.jpg,n02818832_0,n03928116_0,flexible,0.765781,n03928116_0,Stimuli/psy_flexible_rotation_30_objects_occ0.7_0.9s/images/train/n02818832_0/n03928116_0/img_b03_the_sofa_and_chair_company_-_stanley_bed_2014_b02_piano_2008-3_gray.png,foreground,same as foreground,n02818832_0,n03928116_0,Stimuli/canonical view 2/img_n02818832_0_gray.jpg,Stimuli/canonical view 2/img_n03928116_0_gray.jpg,foreground,right,Experiments/experiment_39/84.jpg,Experiments/experiment_39/85.jpg,Experiments/experiment_39/86.jpg,Experiments/experiment_39/87.jpg,913,1,2023-06-28_12h33.45.302,Occlusion_Psychophysics,2022.1.4,Win32,60.02040694,,,left,"[""left""]",[0.6477999999523263],False,,0.0,0.0,21.0,21.0,21.0,1.0,,,,,,
,,,,,,,,,,,,,,,,,,,,,0.05,,,,,,,,,,Stimuli/psy_fixed_rotation_30_objects_occ0.7_0.9s/images/train/n04256520_9/n03928116_10/img_napoleon_iii_sofa_ydp_103_r_2012__vray_2012_gray.jpg,n04256520_9,n03928116_10,fixed,0.728125,n03928116_10,Stimuli/psy_fixed_rotation_30_objects_occ0.7_0.9s/images/train/n04256520_9/n03928116_10/img_napoleon_iii_sofa_ydp_103_r_2012__vray_2012-3_gray.png,foreground,same as foreground,n04256520_9,n03928116_10,Stimuli/canonical view 2/img_n04256520_9_gray.jpg,Stimuli/canonical view 2/img_n03928116_10_gray.jpg,foreground,left,Experiments/experiment_39/88.jpg,Experiments/experiment_39/89.jpg,Experiments/experiment_39/90.jpg,Experiments/experiment_39/91.jpg,913,1,2023-06-28_12h33.45.302,Occlusion_Psychophysics,2022.1.4,Win32,60.02040694,,,left,"[""left""]",[0.5692999999523636],False,,0.0,0.0,22.0,22.0,22.0,1.0,,,,,,
,,,,,,,,,,,,,,,,,,,,,0.05,,,,,,,,,,Stimuli/psy_flexible_rotation_30_objects_occ0.7_0.9s/images/train/n02828884_4/n04405907_5/img_b05_c-5_classic_series_bench-2012_samsung_40_uhd_smart_tv_2011_2015_gray.jpg,n02828884_4,n04405907_5,flexible,0.751654,n03928116_10,Stimuli/psy_flexible_rotation_30_objects_occ0.7_0.9s/images/train/n03928116_4/n03928116_10/img_dp_33_b_2013__vray_ydp_103_r_2012__vray_2000-3_gray.png,random,flexible,n02828884_4,n04405907_5,Stimuli/canonical view 2/img_n02828884_4_gray.jpg,Stimuli/canonical view 2/img_n04405907_5_gray.jpg,foreground,left,Experiments/experiment_39/92.jpg,Experiments/experiment_39/93.jpg,Experiments/experiment_39/94.jpg,Experiments/experiment_39/95.jpg,913,1,2023-06-28_12h33.45.302,Occlusion_Psychophysics,2022.1.4,Win32,60.02040694,,,left,"[""left""]",[0.8467999999522817],False,,0.0,0.0,23.0,23.0,23.0,1.0,,,,,,
,,,,,,,,,,,,,,,,,,,,,0.025,,,,,,,,,,Stimuli/psy_flexible_rotation_30_objects_occ0.7_0.9s/images/train/n03001627_9/n03928116_10/img_chair_eames_plastic_armchair_ydp_103_r_2012__vray_2010_gray.jpg,n03001627_9,n03928116_10,flexible,0.745205,n03928116_10,Stimuli/psy_flexible_rotation_30_objects_occ0.7_0.9s/images/train/n03001627_9/n03928116_10/img_chair_eames_plastic_armchair_ydp_103_r_2012__vray_2010-3_gray.png,foreground,same as foreground,n03001627_9,n02828884_3,Stimuli/canonical view 2/img_n03001627_9_gray.jpg,Stimuli/canonical view 2/img_n02828884_3_gray.jpg,random,left,Experiments/experiment_39/96.jpg,Experiments/experiment_39/97.jpg,Experiments/experiment_39/98.jpg,Experiments/experiment_39/99.jpg,913,1,2023-06-28_12h33.45.302,Occlusion_Psychophysics,2022.1.4,Win32,60.02040694,,,left,"[""left""]",[0.7870999999046262],False,,0.0,0.0,24.0,24.0,24.0,1.0,,,,,,
,,,,,,,,,,,,,,,,,,,,,0.025,,,,,,,,,,Stimuli/psy_flexible_rotation_30_objects_occ0.7_0.9s/images/train/n02828884_3/n02933112_-18/img_b04_wood_metal_park_bench_cgaxis_models_48_26_vray_composite_2000_gray.jpg,n02828884_3,n02933112_-18,flexible,0.736628,n02933112_-18,Stimuli/psy_flexible_rotation_30_objects_occ0.7_0.9s/images/train/n02828884_3/n02933112_-18/img_b04_wood_metal_park_bench_cgaxis_models_48_26_vray_composite_2000-3_gray.png,foreground,same as foreground,n02828884_3,n02933112_-18,Stimuli/canonical view 2/img_n02828884_3_gray.jpg,Stimuli/canonical view 2/img_n02933112_-18_gray.jpg,foreground,left,Experiments/experiment_39/100.jpg,Experiments/experiment_39/101.jpg,Experiments/experiment_39/102.jpg,Experiments/experiment_39/103.jpg,913,1,2023-06-28_12h33.45.302,Occlusion_Psychophysics,2022.1.4,Win32,60.02040694,,,left,"[""left""]",[0.5981000000238055],False,,0.0,0.0,25.0,25.0,25.0,1.0,,,,,,
,,,,,,,,,,,,,,,,,,,,,0.05,,,,,,,,,,Stimuli/psy_fixed_rotation_30_objects_occ0.7_0.9s/images/train/n04405907_8/n02818832_3/img_stylized_tv_b05_ccm_contemporary_bed_max2013_2014_gray.jpg,n04405907_8,n02818832_3,fixed,0.76007,n03928116_4,Stimuli/psy_flexible_rotation_30_objects_occ0.7_0.9s/images/train/n03928116_10/n03928116_4/img_ydp_103_r_2012__vray_dp_33_b_2013__vray_2015-3_gray.png,random,flexible,n04405907_8,n02818832_3,Stimuli/canonical view 2/img_n04405907_8_gray.jpg,Stimuli/canonical view 2/img_n02818832_3_gray.jpg,foreground,left,Experiments/experiment_39/104.jpg,Experiments/experiment_39/105.jpg,Experiments/experiment_39/106.jpg,Experiments/experiment_39/107.jpg,913,1,2023-06-28_12h33.45.302,Occlusion_Psychophysics,2022.1.4,Win32,60.02040694,,,left,"[""right""]",[0.7461000000239437],False,,0.0,0.0,26.0,26.0,26.0,1.0,,,,,,
,,,,,,,,,,,,,,,,,,,,,0.05,,,,,,,,,,Stimuli/psy_fixed_rotation_30_objects_occ0.7_0.9s/images/train/n02828884_9/n03928116_0/img_cr-96_bench_b02_piano_2006_gray.jpg,n02828884_9,n03928116_0,fixed,0.738923,n03928116_0,Stimuli/psy_fixed_rotation_30_objects_occ0.7_0.9s/images/train/n02828884_9/n03928116_0/img_cr-96_bench_b02_piano_2006-3_gray.png,foreground,same as foreground,n02828884_9,n03928116_0,Stimuli/canonical view 2/img_n02828884_9_gray.jpg,Stimuli/canonical view 2/img_n03928116_0_gray.jpg,foreground,left,Experiments/experiment_39/108.jpg,Experiments/experiment_39/109.jpg,Experiments/experiment_39/110.jpg,Experiments/experiment_39/111.jpg,913,1,2023-06-28_12h33.45.302,Occlusion_Psychophysics,2022.1.4,Win32,60.02040694,,,left,"[""left""]",[0.6727999999523036],False,,0.0,0.0,27.0,27.0,27.0,1.0,,,,,,
,,,,,,,,,,,,,,,,,,,,,0.05,,,,,,,,,,Stimuli/psy_fixed_rotation_30_objects_occ0.7_0.9s/images/train/n03928116_4/n04405907_9/img_dp_33_b_2013__vray_vray_004_2013_gray.jpg,n03928116_4,n04405907_9,fixed,0.756235,n04405907_9,Stimuli/psy_fixed_rotation_30_objects_occ0.7_0.9s/images/train/n03928116_4/n04405907_9/img_dp_33_b_2013__vray_vray_004_2013-3_gray.png,foreground,same as foreground,n03928116_4,n04379243_8,Stimuli/canonical view 2/img_n03928116_4_gray.jpg,Stimuli/canonical view 2/img_n04379243_8_gray.jpg,random,left,Experiments/experiment_39/112.jpg,Experiments/experiment_39/113.jpg,Experiments/experiment_39/114.jpg,Experiments/experiment_39/115.jpg,913,1,2023-06-28_12h33.45.302,Occlusion_Psychophysics,2022.1.4,Win32,60.02040694,,,right,"[""right""]",[0.7620000000000573],False,,0.0,0.0,28.0,28.0,28.0,1.0,,,,,,
,,,,,,,,,,,,,,,,,,,,,0.05,,,,,,,,,,Stimuli/psy_flexible_rotation_30_objects_occ0.7_0.9s/images/train/n02818832_3/n02883344_0/img_b05_ccm_contemporary_bed_max2013_b03_box_2014_gray.jpg,n02818832_3,n02883344_0,flexible,0.708312,n02883344_0,Stimuli/psy_flexible_rotation_30_objects_occ0.7_0.9s/images/train/n02818832_3/n02883344_0/img_b05_ccm_contemporary_bed_max2013_b03_box_2014-3_gray.png,foreground,same as foreground,n02818832_3,n02883344_0,Stimuli/canonical view 2/img_n02818832_3_gray.jpg,Stimuli/canonical view 2/img_n02883344_0_gray.jpg,foreground,right,Experiments/experiment_39/116.jpg,Experiments/experiment_39/117.jpg,Experiments/experiment_39/118.jpg,Experiments/experiment_39/119.jpg,913,1,2023-06-28_12h33.45.302,Occlusion_Psychophysics,2022.1.4,Win32,60.02040694,,,left,"[""left""]",[0.656299999952239],False,,0.0,0.0,29.0,29.0,29.0,1.0,,,,,,
,,,,,,,,,,,,,,,,,,,,,0.05,,,,,,,,,,Stimuli/psy_flexible_rotation_30_objects_occ0.7_0.9s/images/train/n03001627_8/n03928116_0/img_chair_billiani_doll_b02_piano_2003_gray.jpg,n03001627_8,n03928116_0,flexible,0.716377,n03928116_0,Stimuli/psy_flexible_rotation_30_objects_occ0.7_0.9s/images/train/n03001627_8/n03928116_0/img_chair_billiani_doll_b02_piano_2003-3_gray.png,foreground,same as foreground,n03001627_8,n02933112_-18,Stimuli/canonical view 2/img_n03001627_8_gray.jpg,Stimuli/canonical view 2/img_n02933112_-18_gray.jpg,random,left,Experiments/experiment_39/120.jpg,Experiments/experiment_39/121.jpg,Experiments/experiment_39/122.jpg,Experiments/experiment_39/123.jpg,913,1,2023-06-28_12h33.45.302,Occlusion_Psychophysics,2022.1.4,Win32,60.02040694,,,right,"[""right""]",[0.9213999999760745],False,,0.0,0.0,30.0,30.0,30.0,1.0,,,,,,
,,,,,,,,,,,,,,,,,,,,,0.025,,,,,,,,,,Stimuli/psy_flexible_rotation_30_objects_occ0.7_0.9s/images/train/n04256520_9/n04379243_0/img_napoleon_iii_sofa_17th_c._monastery_dining_table_2010_2011_gray.jpg,n04256520_9,n04379243_0,flexible,0.790077,n04405907_9,Stimuli/psy_flexible_rotation_30_objects_occ0.7_0.9s/images/train/n04405907_5/n04405907_9/img_samsung_40_uhd_smart_tv_2011_vray_004_2004-3_gray.png,random,flexible,n04256520_9,n04379243_0,Stimuli/canonical view 2/img_n04256520_9_gray.jpg,Stimuli/canonical view 2/img_n04379243_0_gray.jpg,foreground,left,Experiments/experiment_39/124.jpg,Experiments/experiment_39/125.jpg,Experiments/experiment_39/126.jpg,Experiments/experiment_39/127.jpg,913,1,2023-06-28_12h33.45.302,Occlusion_Psychophysics,2022.1.4,Win32,60.02040694,,,left,"[""left""]",[0.6321000000237973],False,,0.0,0.0,31.0,31.0,31.0,1.0,,,,,,
,,,,,,,,,,,,,,,,,,,,,0.05,,,,,,,,,,Stimuli/psy_flexible_rotation_30_objects_occ0.7_0.9s/images/train/n04256520_4/n04405907_9/img_club_house_italia_nautilus_sofa_vray_004_2007_gray.jpg,n04256520_4,n04405907_9,flexible,0.708075,n04405907_9,Stimuli/psy_flexible_rotation_30_objects_occ0.7_0.9s/images/train/n04256520_4/n04405907_9/img_club_house_italia_nautilus_sofa_vray_004_2007-3_gray.png,foreground,same as foreground,n04256520_4,n04405907_9,Stimuli/canonical view 2/img_n04256520_4_gray.jpg,Stimuli/canonical view 2/img_n04405907_9_gray.jpg,foreground,right,Experiments/experiment_39/128.jpg,Experiments/experiment_39/129.jpg,Experiments/experiment_39/130.jpg,Experiments/experiment_39/131.jpg,913,1,2023-06-28_12h33.45.302,Occlusion_Psychophysics,2022.1.4,Win32,60.02040694,,,left,"[""left""]",[0.7794999999999845],False,,0.0,0.0,32.0,32.0,32.0,1.0,,,,,,
,,,,,,,,,,,,,,,,,,,,,0.05,,,,,,,,,,Stimuli/psy_fixed_rotation_30_objects_occ0.7_0.9s/images/train/n02828884_9/n03928116_0/img_cr-96_bench_b02_piano_2013_gray.jpg,n02828884_9,n03928116_0,fixed,0.705521,n02828884_3,Stimuli/psy_fixed_rotation_30_objects_occ0.7_0.9s/images/train/n03001627_9/n02828884_3/img_chair_eames_plastic_armchair_b04_wood_metal_park_bench_2001-3_gray.png,random,fixed,n02828884_9,n03928116_0,Stimuli/canonical view 2/img_n02828884_9_gray.jpg,Stimuli/canonical view 2/img_n03928116_0_gray.jpg,foreground,left,Experiments/experiment_39/132.jpg,Experiments/experiment_39/133.jpg,Experiments/experiment_39/134.jpg,Experiments/experiment_39/135.jpg,913,1,2023-06-28_12h33.45.302,Occlusion_Psychophysics,2022.1.4,Win32,60.02040694,,,left,"[""right""]",[0.8644000000954293],False,,0.0,0.0,33.0,33.0,33.0,1.0,,,,,,
,,,,,,,,,,,,,,,,,,,,,0.05,,,,,,,,,,Stimuli/psy_fixed_rotation_30_objects_occ0.7_0.9s/images/train/n04256520_4/n03928116_10/img_club_house_italia_nautilus_sofa_ydp_103_r_2012__vray_2000_gray.jpg,n04256520_4,n03928116_10,fixed,0.70298,n03928116_10,Stimuli/psy_fixed_rotation_30_objects_occ0.7_0.9s/images/train/n04256520_4/n03928116_10/img_club_house_italia_nautilus_sofa_ydp_103_r_2012__vray_2000-3_gray.png,foreground,same as foreground,n04256520_4,n03928116_10,Stimuli/canonical view 2/img_n04256520_4_gray.jpg,Stimuli/canonical view 2/img_n03928116_10_gray.jpg,foreground,left,Experiments/experiment_39/136.jpg,Experiments/experiment_39/137.jpg,Experiments/experiment_39/138.jpg,Experiments/experiment_39/139.jpg,913,1,2023-06-28_12h33.45.302,Occlusion_Psychophysics,2022.1.4,Win32,60.02040694,,,right,"[""left""]",[0.5066000000238091],False,,0.0,0.0,34.0,34.0,34.0,1.0,,,,,,
,,,,,,,,,,,,,,,,,,,,,0.025,,,,,,,,,,Stimuli/psy_fixed_rotation_30_objects_occ0.7_0.9s/images/train/n04405907_8/n04379243_0/img_stylized_tv_17th_c._monastery_dining_table_2010_2013_gray.jpg,n04405907_8,n04379243_0,fixed,0.701466,n04379243_0,Stimuli/psy_fixed_rotation_30_objects_occ0.7_0.9s/images/train/n04405907_8/n04379243_0/img_stylized_tv_17th_c._monastery_dining_table_2010_2013-3_gray.png,foreground,same as foreground,n04405907_8,n04256520_4,Stimuli/canonical view 2/img_n04405907_8_gray.jpg,Stimuli/canonical view 2/img_n04256520_4_gray.jpg,random,right,Experiments/experiment_39/140.jpg,Experiments/experiment_39/141.jpg,Experiments/experiment_39/142.jpg,Experiments/experiment_39/143.jpg,913,1,2023-06-28_12h33.45.302,Occlusion_Psychophysics,2022.1.4,Win32,60.02040694,,,left,"[""left""]",[0.619700000047601],False,,0.0,0.0,35.0,35.0,35.0,1.0,,,,,,
,,,,,,,,,,,,,,,,,,,,,0.05,,,,,,,,,,Stimuli/psy_fixed_rotation_30_objects_occ0.7_0.9s/images/train/n04256520_9/n04405907_9/img_napoleon_iii_sofa_vray_004_2005_gray.jpg,n04256520_9,n04405907_9,fixed,0.732074,n04405907_9,Stimuli/psy_fixed_rotation_30_objects_occ0.7_0.9s/images/train/n04256520_9/n04405907_9/img_napoleon_iii_sofa_vray_004_2005-3_gray.png,foreground,same as foreground,n04256520_9,n04379243_-7,Stimuli/canonical view 2/img_n04256520_9_gray.jpg,Stimuli/canonical view 2/img_n04379243_-7_gray.jpg,random,right,Experiments/experiment_39/144.jpg,Experiments/experiment_39/145.jpg,Experiments/experiment_39/146.jpg,Experiments/experiment_39/147.jpg,913,1,2023-06-28_12h33.45.302,Occlusion_Psychophysics,2022.1.4,Win32,60.02040694,,,right,"[""right""]",[0.6683999999761454],False,,0.0,0.0,36.0,36.0,36.0,1.0,,,,,,
,,,,,,,,,,,,,,,,,,,,,0.025,,,,,,,,,,Stimuli/psy_fixed_rotation_30_objects_occ0.7_0.9s/images/train/n04256520_9/n04405907_5/img_napoleon_iii_sofa_samsung_40_uhd_smart_tv_2011_2015_gray.jpg,n04256520_9,n04405907_5,fixed,0.758129,n02883344_0,Stimuli/psy_flexible_rotation_30_objects_occ0.7_0.9s/images/train/n03001627_9/n02883344_0/img_chair_eames_plastic_armchair_b03_box_2013-3_gray.png,random,flexible,n04256520_9,n04379243_0,Stimuli/canonical view 2/img_n04256520_9_gray.jpg,Stimuli/canonical view 2/img_n04379243_0_gray.jpg,random,right,Experiments/experiment_39/148.jpg,Experiments/experiment_39/149.jpg,Experiments/experiment_39/150.jpg,Experiments/experiment_39/151.jpg,913,1,2023-06-28_12h33.45.302,Occlusion_Psychophysics,2022.1.4,Win32,60.02040694,,,right,"[""right""]",[0.677799999952299],False,,0.0,0.0,37.0,37.0,37.0,1.0,,,,,,
,,,,,,,,,,,,,,,,,,,,,0.05,,,,,,,,,,Stimuli/psy_fixed_rotation_30_objects_occ0.7_0.9s/images/train/n02828884_9/n04256520_4/img_cr-96_bench_club_house_italia_nautilus_sofa_2014_gray.jpg,n02828884_9,n04256520_4,fixed,0.746053,n04379243_-7,Stimuli/psy_flexible_rotation_30_objects_occ0.7_0.9s/images/train/n02828884_3/n04379243_-7/img_b04_wood_metal_park_bench_quatre_dining_table_2010-3_gray.png,random,flexible,n02828884_9,n04256520_4,Stimuli/canonical view 2/img_n02828884_9_gray.jpg,Stimuli/canonical view 2/img_n04256520_4_gray.jpg,foreground,right,Experiments/experiment_39/152.jpg,Experiments/experiment_39/153.jpg,Experiments/experiment_39/154.jpg,Experiments/experiment_39/155.jpg,913,1,2023-06-28_12h33.45.302,Occlusion_Psychophysics,2022.1.4,Win32,60.02040694,,,right,"[""left""]",[0.8392999999523454],False,,0.0,0.0,38.0,38.0,38.0,1.0,,,,,,
,,,,,,,,,,,,,,,,,,,,,0.05,,,,,,,,,,Stimuli/psy_flexible_rotation_30_objects_occ0.7_0.9s/images/train/n02818832_0/n04379243_-7/img_b03_the_sofa_and_chair_company_-_stanley_bed_2014_quatre_dining_table_2010_gray.jpg,n02818832_0,n04379243_-7,flexible,0.705563,n03928116_10,Stimuli/psy_fixed_rotation_30_objects_occ0.7_0.9s/images/train/n04405907_8/n03928116_10/img_stylized_tv_ydp_103_r_2012__vray_2011-3_gray.png,random,fixed,n02818832_0,n04379243_-7,Stimuli/canonical view 2/img_n02818832_0_gray.jpg,Stimuli/canonical view 2/img_n04379243_-7_gray.jpg,foreground,right,Experiments/experiment_39/156.jpg,Experiments/experiment_39/157.jpg,Experiments/experiment_39/158.jpg,Experiments/experiment_39/159.jpg,913,1,2023-06-28_12h33.45.302,Occlusion_Psychophysics,2022.1.4,Win32,60.02040694,,,right,"[""right""]",[0.7373999999762191],True,right,1.0,0.0,39.0,39.0,39.0,1.0,1.5062,,,,,
,,,,,,,,,,,,,,,,,,,,,0.025,,,,,,,,,,Stimuli/psy_fixed_rotation_30_objects_occ0.7_0.9s/images/train/n04256520_9/n02883344_-1/img_napoleon_iii_sofa_woven_box_2015_gray.jpg,n04256520_9,n02883344_-1,fixed,0.736173,n02818832_9,Stimuli/psy_flexible_rotation_30_objects_occ0.7_0.9s/images/train/n04256520_5/n02818832_9/img_meridiani_belmondo_bench_sofa_bed01_blue_2015-3_gray.png,random,flexible,n04256520_9,n02818832_3,Stimuli/canonical view 2/img_n04256520_9_gray.jpg,Stimuli/canonical view 2/img_n02818832_3_gray.jpg,random,left,Experiments/experiment_39/160.jpg,Experiments/experiment_39/161.jpg,Experiments/experiment_39/162.jpg,Experiments/experiment_39/163.jpg,913,1,2023-06-28_12h33.45.302,Occlusion_Psychophysics,2022.1.4,Win32,60.02040694,,,right,"[""right""]",[0.7226000000238173],False,,0.0,0.0,40.0,40.0,40.0,1.0,,,,,,
,,,,,,,,,,,,,,,,,,,,,0.025,,,,,,,,,,Stimuli/psy_flexible_rotation_30_objects_occ0.7_0.9s/images/train/n02933112_-2/n02818832_3/img_sink_base_white_wood_b05_ccm_contemporary_bed_max2013_2002_gray.jpg,n02933112_-2,n02818832_3,flexible,0.71781,n04379243_8,Stimuli/psy_fixed_rotation_30_objects_occ0.7_0.9s/images/train/n04379243_8/n04379243_8/img_glass_table_glass_table_2001-3_gray.png,random,fixed,n02933112_-2,n03001627_9,Stimuli/canonical view 2/img_n02933112_-2_gray.jpg,Stimuli/canonical view 2/img_n03001627_9_gray.jpg,random,right,Experiments/experiment_39/164.jpg,Experiments/experiment_39/165.jpg,Experiments/experiment_39/166.jpg,Experiments/experiment_39/167.jpg,913,1,2023-06-28_12h33.45.302,Occlusion_Psychophysics,2022.1.4,Win32,60.02040694,,,left,"[""left""]",[0.5375000000000227],False,,0.0,0.0,41.0,41.0,41.0,1.0,,,,,,
,,,,,,,,,,,,,,,,,,,,,0.05,,,,,,,,,,Stimuli/psy_fixed_rotation_30_objects_occ0.7_0.9s/images/train/n04256520_5/n04405907_9/img_meridiani_belmondo_bench_sofa_vray_004_2003_gray.jpg,n04256520_5,n04405907_9,fixed,0.88719,n04405907_9,Stimuli/psy_fixed_rotation_30_objects_occ0.7_0.9s/images/train/n04256520_5/n04405907_9/img_meridiani_belmondo_bench_sofa_vray_004_2003-3_gray.png,foreground,same as foreground,n04256520_5,n04405907_9,Stimuli/canonical view 2/img_n04256520_5_gray.jpg,Stimuli/canonical view 2/img_n04405907_9_gray.jpg,foreground,left,Experiments/experiment_39/168.jpg,Experiments/experiment_39/169.jpg,Experiments/experiment_39/170.jpg,Experiments/experiment_39/171.jpg,913,1,2023-06-28_12h33.45.302,Occlusion_Psychophysics,2022.1.4,Win32,60.02040694,,,right,"[""right""]",[0.6328999999761891],False,,0.0,0.0,42.0,42.0,42.0,1.0,,,,,,
,,,,,,,,,,,,,,,,,,,,,0.05,,,,,,,,,,Stimuli/psy_fixed_rotation_30_objects_occ0.7_0.9s/images/train/n04256520_5/n02883344_15/img_meridiani_belmondo_bench_sofa_microwave_box_2011_gray.jpg,n04256520_5,n02883344_15,fixed,0.866971,n02883344_15,Stimuli/psy_fixed_rotation_30_objects_occ0.7_0.9s/images/train/n04256520_5/n02883344_15/img_meridiani_belmondo_bench_sofa_microwave_box_2011-3_gray.png,foreground,same as foreground,n04256520_5,n02883344_-1,Stimuli/canonical view 2/img_n04256520_5_gray.jpg,Stimuli/canonical view 2/img_n02883344_-1_gray.jpg,random,right,Experiments/experiment_39/172.jpg,Experiments/experiment_39/173.jpg,Experiments/experiment_39/174.jpg,Experiments/experiment_39/175.jpg,913,1,2023-06-28_12h33.45.302,Occlusion_Psychophysics,2022.1.4,Win32,60.02040694,,,left,"[""left""]",[0.7725000000000364],False,,0.0,0.0,43.0,43.0,43.0,1.0,,,,,,
,,,,,,,,,,,,,,,,,,,,,0.025,,,,,,,,,,Stimuli/psy_flexible_rotation_30_objects_occ0.7_0.9s/images/train/n02818832_9/n02828884_3/img_bed01_blue_b04_wood_metal_park_bench_2012_gray.jpg,n02818832_9,n02828884_3,flexible,0.711728,n02828884_3,Stimuli/psy_flexible_rotation_30_objects_occ0.7_0.9s/images/train/n02818832_9/n02828884_3/img_bed01_blue_b04_wood_metal_park_bench_2012-3_gray.png,foreground,same as foreground,n02818832_9,n04379243_0,Stimuli/canonical view 2/img_n02818832_9_gray.jpg,Stimuli/canonical view 2/img_n04379243_0_gray.jpg,random,left,Experiments/experiment_39/176.jpg,Experiments/experiment_39/177.jpg,Experiments/experiment_39/178.jpg,Experiments/experiment_39/179.jpg,913,1,2023-06-28_12h33.45.302,Occlusion_Psychophysics,2022.1.4,Win32,60.02040694,,,left,"[""left""]",[0.6408999999762273],False,,0.0,0.0,44.0,44.0,44.0,1.0,,,,,,
,,,,,,,,,,,,,,,,,,,,,0.025,,,,,,,,,,Stimuli/psy_fixed_rotation_30_objects_occ0.7_0.9s/images/train/n03001627_8/n04405907_8/img_chair_billiani_doll_stylized_tv_2005_gray.jpg,n03001627_8,n04405907_8,fixed,0.84495,n02818832_0,Stimuli/psy_flexible_rotation_30_objects_occ0.7_0.9s/images/train/n04070727_5/n02818832_0/img_b05_db_apps_tech_06_13_composite_b03_the_sofa_and_chair_company_-_stanley_bed_2014_2010-3_gray.png,random,flexible,n03001627_8,n03928116_10,Stimuli/canonical view 2/img_n03001627_8_gray.jpg,Stimuli/canonical view 2/img_n03928116_10_gray.jpg,random,right,Experiments/experiment_39/180.jpg,Experiments/experiment_39/181.jpg,Experiments/experiment_39/182.jpg,Experiments/experiment_39/183.jpg,913,1,2023-06-28_12h33.45.302,Occlusion_Psychophysics,2022.1.4,Win32,60.02040694,,,left,"[""right""]",[0.6702999999523627],False,,0.0,0.0,45.0,45.0,45.0,1.0,,,,,,
,,,,,,,,,,,,,,,,,,,,,0.025,,,,,,,,,,Stimuli/psy_flexible_rotation_30_objects_occ0.7_0.9s/images/train/n04379243_8/n03928116_4/img_glass_table_dp_33_b_2013__vray_2012_gray.jpg,n04379243_8,n03928116_4,flexible,0.75452,n02933112_-2,Stimuli/psy_fixed_rotation_30_objects_occ0.7_0.9s/images/train/n02933112_4/n02933112_-2/img_buffet_sink_base_white_wood_2013-3_gray.png,random,fixed,n04379243_8,n03928116_4,Stimuli/canonical view 2/img_n04379243_8_gray.jpg,Stimuli/canonical view 2/img_n03928116_4_gray.jpg,foreground,left,Experiments/experiment_39/184.jpg,Experiments/experiment_39/185.jpg,Experiments/experiment_39/186.jpg,Experiments/experiment_39/187.jpg,913,1,2023-06-28_12h33.45.302,Occlusion_Psychophysics,2022.1.4,Win32,60.02040694,,,left,"[""left""]",[0.7082000000476683],False,,0.0,0.0,46.0,46.0,46.0,1.0,,,,,,
,,,,,,,,,,,,,,,,,,,,,0.05,,,,,,,,,,Stimuli/psy_fixed_rotation_30_objects_occ0.7_0.9s/images/train/n04405907_9/n02933112_-18/img_vray_004_cgaxis_models_48_26_vray_composite_2001_gray.jpg,n04405907_9,n02933112_-18,fixed,0.706751,n02933112_-18,Stimuli/psy_fixed_rotation_30_objects_occ0.7_0.9s/images/train/n04405907_9/n02933112_-18/img_vray_004_cgaxis_models_48_26_vray_composite_2001-3_gray.png,foreground,same as foreground,n04405907_9,n02828884_3,Stimuli/canonical view 2/img_n04405907_9_gray.jpg,Stimuli/canonical view 2/img_n02828884_3_gray.jpg,random,left,Experiments/experiment_39/188.jpg,Experiments/experiment_39/189.jpg,Experiments/experiment_39/190.jpg,Experiments/experiment_39/191.jpg,913,1,2023-06-28_12h33.45.302,Occlusion_Psychophysics,2022.1.4,Win32,60.02040694,,,left,"[""left""]",[0.6516999999283826],False,,0.0,0.0,47.0,47.0,47.0,1.0,,,,,,
,,,,,,,,,,,,,,,,,,,,,0.025,,,,,,,,,,Stimuli/psy_fixed_rotation_30_objects_occ0.7_0.9s/images/train/n04405907_9/n02933112_4/img_vray_004_buffet_2005_gray.jpg,n04405907_9,n02933112_4,fixed,0.777795,n02818832_3,Stimuli/psy_fixed_rotation_30_objects_occ0.7_0.9s/images/train/n04379243_8/n02818832_3/img_glass_table_b05_ccm_contemporary_bed_max2013_2010-3_gray.png,random,fixed,n04405907_9,n04379243_8,Stimuli/canonical view 2/img_n04405907_9_gray.jpg,Stimuli/canonical view 2/img_n04379243_8_gray.jpg,random,left,Experiments/experiment_39/192.jpg,Experiments/experiment_39/193.jpg,Experiments/experiment_39/194.jpg,Experiments/experiment_39/195.jpg,913,1,2023-06-28_12h33.45.302,Occlusion_Psychophysics,2022.1.4,Win32,60.02040694,,,left,"[""left""]",[0.7264999999999873],False,,0.0,0.0,48.0,48.0,48.0,1.0,,,,,,
,,,,,,,,,,,,,,,,,,,,,0.025,,,,,,,,,,Stimuli/psy_flexible_rotation_30_objects_occ0.7_0.9s/images/train/n02883344_0/n04256520_5/img_b03_box_meridiani_belmondo_bench_sofa_2008_gray.jpg,n02883344_0,n04256520_5,flexible,0.727795,n04256520_5,Stimuli/psy_flexible_rotation_30_objects_occ0.7_0.9s/images/train/n02883344_0/n04256520_5/img_b03_box_meridiani_belmondo_bench_sofa_2008-3_gray.png,foreground,same as foreground,n02883344_0,n04256520_5,Stimuli/canonical view 2/img_n02883344_0_gray.jpg,Stimuli/canonical view 2/img_n04256520_5_gray.jpg,foreground,left,Experiments/experiment_39/196.jpg,Experiments/experiment_39/197.jpg,Experiments/experiment_39/198.jpg,Experiments/experiment_39/199.jpg,913,1,2023-06-28_12h33.45.302,Occlusion_Psychophysics,2022.1.4,Win32,60.02040694,,,left,"[""right""]",[1.044800000071632],False,,0.0,0.0,49.0,49.0,49.0,1.0,,,,,,
,,,,,,,,,,,,,,,,,,,,,0.025,,,,,,,,,,Stimuli/psy_fixed_rotation_30_objects_occ0.7_0.9s/images/train/n04379243_-7/n04256520_4/img_quatre_dining_table_club_house_italia_nautilus_sofa_2015_gray.jpg,n04379243_-7,n04256520_4,fixed,0.763075,n04256520_4,Stimuli/psy_fixed_rotation_30_objects_occ0.7_0.9s/images/train/n04379243_-7/n04256520_4/img_quatre_dining_table_club_house_italia_nautilus_sofa_2015-3_gray.png,foreground,same as foreground,n04379243_-7,n02883344_-1,Stimuli/canonical view 2/img_n04379243_-7_gray.jpg,Stimuli/canonical view 2/img_n02883344_-1_gray.jpg,random,right,Experiments/experiment_39/200.jpg,Experiments/experiment_39/201.jpg,Experiments/experiment_39/202.jpg,Experiments/experiment_39/203.jpg,913,1,2023-06-28_12h33.45.302,Occlusion_Psychophysics,2022.1.4,Win32,60.02040694,,,left,"[""left""]",[0.6952999999523399],False,,0.0,0.0,50.0,50.0,50.0,1.0,,,,,,
,,,,,,,,,,,,,,,,,,,,,0.025,,,,,,,,,,Stimuli/psy_fixed_rotation_30_objects_occ0.7_0.9s/images/train/n02933112_4/n04405907_8/img_buffet_stylized_tv_2014_gray.jpg,n02933112_4,n04405907_8,fixed,0.705389,n04405907_8,Stimuli/psy_fixed_rotation_30_objects_occ0.7_0.9s/images/train/n02933112_4/n04405907_8/img_buffet_stylized_tv_2014-3_gray.png,foreground,same as foreground,n02933112_4,n04405907_8,Stimuli/canonical view 2/img_n02933112_4_gray.jpg,Stimuli/canonical view 2/img_n04405907_8_gray.jpg,foreground,left,Experiments/experiment_39/204.jpg,Experiments/experiment_39/205.jpg,Experiments/experiment_39/206.jpg,Experiments/experiment_39/207.jpg,913,1,2023-06-28_12h33.45.302,Occlusion_Psychophysics,2022.1.4,Win32,60.02040694,,,left,"[""left""]",[0.6876999999284408],False,,0.0,0.0,51.0,51.0,51.0,1.0,,,,,,
,,,,,,,,,,,,,,,,,,,,,0.05,,,,,,,,,,Stimuli/psy_fixed_rotation_30_objects_occ0.7_0.9s/images/train/n04256520_4/n04405907_9/img_club_house_italia_nautilus_sofa_vray_004_2005_gray.jpg,n04256520_4,n04405907_9,fixed,0.728117,n02933112_-18,Stimuli/psy_fixed_rotation_30_objects_occ0.7_0.9s/images/train/n04070727_3/n02933112_-18/img_b05_db_apps_tech_06_02_2_composite_cgaxis_models_48_26_vray_composite_2008-3_gray.png,random,fixed,n04256520_4,n04405907_9,Stimuli/canonical view 2/img_n04256520_4_gray.jpg,Stimuli/canonical view 2/img_n04405907_9_gray.jpg,foreground,right,Experiments/experiment_39/208.jpg,Experiments/experiment_39/209.jpg,Experiments/experiment_39/210.jpg,Experiments/experiment_39/211.jpg,913,1,2023-06-28_12h33.45.302,Occlusion_Psychophysics,2022.1.4,Win32,60.02040694,,,left,"[""left""]",[0.6036000000237891],False,,0.0,0.0,52.0,52.0,52.0,1.0,,,,,,
,,,,,,,,,,,,,,,,,,,,,0.05,,,,,,,,,,Stimuli/psy_fixed_rotation_30_objects_occ0.7_0.9s/images/train/n04256520_4/n02883344_0/img_club_house_italia_nautilus_sofa_b03_box_2012_gray.jpg,n04256520_4,n02883344_0,fixed,0.702818,n02883344_-1,Stimuli/psy_flexible_rotation_30_objects_occ0.7_0.9s/images/train/n02828884_3/n02883344_-1/img_b04_wood_metal_park_bench_woven_box_2007-3_gray.png,random,flexible,n04256520_4,n02883344_0,Stimuli/canonical view 2/img_n04256520_4_gray.jpg,Stimuli/canonical view 2/img_n02883344_0_gray.jpg,foreground,left,Experiments/experiment_39/212.jpg,Experiments/experiment_39/213.jpg,Experiments/experiment_39/214.jpg,Experiments/experiment_39/215.jpg,913,1,2023-06-28_12h33.45.302,Occlusion_Psychophysics,2022.1.4,Win32,60.02040694,,,left,"[""left""]",[0.8122000000477101],False,,0.0,0.0,53.0,53.0,53.0,1.0,,,,,,
,,,,,,,,,,,,,,,,,,,,,0.025,,,,,,,,,,Stimuli/psy_flexible_rotation_30_objects_occ0.7_0.9s/images/train/n02828884_3/n02933112_-2/img_b04_wood_metal_park_bench_sink_base_white_wood_2011_gray.jpg,n02828884_3,n02933112_-2,flexible,0.809025,n02933112_-2,Stimuli/psy_flexible_rotation_30_objects_occ0.7_0.9s/images/train/n02828884_3/n02933112_-2/img_b04_wood_metal_park_bench_sink_base_white_wood_2011-3_gray.png,foreground,same as foreground,n02828884_3,n02933112_-2,Stimuli/canonical view 2/img_n02828884_3_gray.jpg,Stimuli/canonical view 2/img_n02933112_-2_gray.jpg,foreground,left,Experiments/experiment_39/216.jpg,Experiments/experiment_39/217.jpg,Experiments/experiment_39/218.jpg,Experiments/experiment_39/219.jpg,913,1,2023-06-28_12h33.45.302,Occlusion_Psychophysics,2022.1.4,Win32,60.02040694,,,left,"[""left""]",[0.5751999999284862],False,,0.0,0.0,54.0,54.0,54.0,1.0,,,,,,
,,,,,,,,,,,,,,,,,,,,,0.025,,,,,,,,,,Stimuli/psy_fixed_rotation_30_objects_occ0.7_0.9s/images/train/n03001627_9/n02883344_-1/img_chair_eames_plastic_armchair_woven_box_2015_gray.jpg,n03001627_9,n02883344_-1,fixed,0.729446,n02883344_-1,Stimuli/psy_fixed_rotation_30_objects_occ0.7_0.9s/images/train/n03001627_9/n02883344_-1/img_chair_eames_plastic_armchair_woven_box_2015-3_gray.png,foreground,same as foreground,n03001627_9,n02933112_4,Stimuli/canonical view 2/img_n03001627_9_gray.jpg,Stimuli/canonical view 2/img_n02933112_4_gray.jpg,random,right,Experiments/experiment_39/220.jpg,Experiments/experiment_39/221.jpg,Experiments/experiment_39/222.jpg,Experiments/experiment_39/223.jpg,913,1,2023-06-28_12h33.45.302,Occlusion_Psychophysics,2022.1.4,Win32,60.02040694,,,right,"[""right""]",[0.6446000000238428],False,,0.0,0.0,55.0,55.0,55.0,1.0,,,,,,
,,,,,,,,,,,,,,,,,,,,,0.025,,,,,,,,,,Stimuli/psy_flexible_rotation_30_objects_occ0.7_0.9s/images/train/n04405907_8/n02883344_0/img_stylized_tv_b03_box_2001_gray.jpg,n04405907_8,n02883344_0,flexible,0.766866,n02883344_0,Stimuli/psy_flexible_rotation_30_objects_occ0.7_0.9s/images/train/n04405907_8/n02883344_0/img_stylized_tv_b03_box_2001-3_gray.png,foreground,same as foreground,n04405907_8,n02883344_0,Stimuli/canonical view 2/img_n04405907_8_gray.jpg,Stimuli/canonical view 2/img_n02883344_0_gray.jpg,foreground,left,Experiments/experiment_39/224.jpg,Experiments/experiment_39/225.jpg,Experiments/experiment_39/226.jpg,Experiments/experiment_39/227.jpg,913,1,2023-06-28_12h33.45.302,Occlusion_Psychophysics,2022.1.4,Win32,60.02040694,,,left,"[""left""]",[0.8231999999285335],False,,0.0,0.0,56.0,56.0,56.0,1.0,,,,,,
,,,,,,,,,,,,,,,,,,,,,0.05,,,,,,,,,,Stimuli/psy_fixed_rotation_30_objects_occ0.7_0.9s/images/train/n04256520_9/n03928116_4/img_napoleon_iii_sofa_dp_33_b_2013__vray_2004_gray.jpg,n04256520_9,n03928116_4,fixed,0.712873,n03928116_4,Stimuli/psy_fixed_rotation_30_objects_occ0.7_0.9s/images/train/n04256520_9/n03928116_4/img_napoleon_iii_sofa_dp_33_b_2013__vray_2004-3_gray.png,foreground,same as foreground,n04256520_9,n02883344_15,Stimuli/canonical view 2/img_n04256520_9_gray.jpg,Stimuli/canonical view 2/img_n02883344_15_gray.jpg,random,left,Experiments/experiment_39/228.jpg,Experiments/experiment_39/229.jpg,Experiments/experiment_39/230.jpg,Experiments/experiment_39/231.jpg,913,1,2023-06-28_12h33.45.302,Occlusion_Psychophysics,2022.1.4,Win32,60.02040694,,,right,"[""right""]",[0.5937999999523527],False,,0.0,0.0,57.0,57.0,57.0,1.0,,,,,,
,,,,,,,,,,,,,,,,,,,,,0.025,,,,,,,,,,Stimuli/psy_flexible_rotation_30_objects_occ0.7_0.9s/images/train/n02883344_15/n04256520_4/img_microwave_box_club_house_italia_nautilus_sofa_2011_gray.jpg,n02883344_15,n04256520_4,flexible,0.717637,n04256520_4,Stimuli/psy_flexible_rotation_30_objects_occ0.7_0.9s/images/train/n02883344_15/n04256520_4/img_microwave_box_club_house_italia_nautilus_sofa_2011-3_gray.png,foreground,same as foreground,n02883344_15,n04379243_-7,Stimuli/canonical view 2/img_n02883344_15_gray.jpg,Stimuli/canonical view 2/img_n04379243_-7_gray.jpg,random,right,Experiments/experiment_39/232.jpg,Experiments/experiment_39/233.jpg,Experiments/experiment_39/234.jpg,Experiments/experiment_39/235.jpg,913,1,2023-06-28_12h33.45.302,Occlusion_Psychophysics,2022.1.4,Win32,60.02040694,,,left,"[""left""]",[0.5678000000715429],False,,0.0,0.0,58.0,58.0,58.0,1.0,,,,,,
,,,,,,,,,,,,,,,,,,,,,0.025,,,,,,,,,,Stimuli/psy_flexible_rotation_30_objects_occ0.7_0.9s/images/train/n03928116_4/n02818832_3/img_dp_33_b_2013__vray_b05_ccm_contemporary_bed_max2013_2014_gray.jpg,n03928116_4,n02818832_3,flexible,0.784501,n02933112_-18,Stimuli/psy_fixed_rotation_30_objects_occ0.7_0.9s/images/train/n04379243_8/n02933112_-18/img_glass_table_cgaxis_models_48_26_vray_composite_2015-3_gray.png,random,fixed,n03928116_4,n04405907_9,Stimuli/canonical view 2/img_n03928116_4_gray.jpg,Stimuli/canonical view 2/img_n04405907_9_gray.jpg,random,left,Experiments/experiment_39/236.jpg,Experiments/experiment_39/237.jpg,Experiments/experiment_39/238.jpg,Experiments/experiment_39/239.jpg,913,1,2023-06-28_12h33.45.302,Occlusion_Psychophysics,2022.1.4,Win32,60.02040694,,,right,"[""left""]",[0.6192999999523181],False,,0.0,0.0,59.0,59.0,59.0,1.0,,,,,,
,,,,,,,,,,,,,,,,,,,,,0.05,,,,,,,,,,Stimuli/psy_flexible_rotation_30_objects_occ0.7_0.9s/images/train/n02818832_3/n04256520_4/img_b05_ccm_contemporary_bed_max2013_club_house_italia_nautilus_sofa_2009_gray.jpg,n02818832_3,n04256520_4,flexible,0.722189,n04256520_4,Stimuli/psy_flexible_rotation_30_objects_occ0.7_0.9s/images/train/n02818832_3/n04256520_4/img_b05_ccm_contemporary_bed_max2013_club_house_italia_nautilus_sofa_2009-3_gray.png,foreground,same as foreground,n02818832_3,n04256520_4,Stimuli/canonical view 2/img_n02818832_3_gray.jpg,Stimuli/canonical view 2/img_n04256520_4_gray.jpg,foreground,left,Experiments/experiment_39/240.jpg,Experiments/experiment_39/241.jpg,Experiments/experiment_39/242.jpg,Experiments/experiment_39/243.jpg,913,1,2023-06-28_12h33.45.302,Occlusion_Psychophysics,2022.1.4,Win32,60.02040694,,,left,"[""left""]",[0.6151000000238582],False,,0.0,0.0,60.0,60.0,60.0,1.0,,,,,,
,,,,,,,,,,,,,,,,,,,,,0.05,,,,,,,,,,Stimuli/psy_flexible_rotation_30_objects_occ0.7_0.9s/images/train/n02828884_3/n02933112_-18/img_b04_wood_metal_park_bench_cgaxis_models_48_26_vray_composite_2000_gray.jpg,n02828884_3,n02933112_-18,flexible,0.736628,n02933112_-18,Stimuli/psy_flexible_rotation_30_objects_occ0.7_0.9s/images/train/n02828884_3/n02933112_-18/img_b04_wood_metal_park_bench_cgaxis_models_48_26_vray_composite_2000-3_gray.png,foreground,same as foreground,n02828884_3,n02933112_-18,Stimuli/canonical view 2/img_n02828884_3_gray.jpg,Stimuli/canonical view 2/img_n02933112_-18_gray.jpg,foreground,left,Experiments/experiment_39/244.jpg,Experiments/experiment_39/245.jpg,Experiments/experiment_39/246.jpg,Experiments/experiment_39/247.jpg,913,1,2023-06-28_12h33.45.302,Occlusion_Psychophysics,2022.1.4,Win32,60.02040694,,,left,"[""left""]",[0.5146000000238473],False,,0.0,0.0,61.0,61.0,61.0,1.0,,,,,,
,,,,,,,,,,,,,,,,,,,,,0.05,,,,,,,,,,Stimuli/psy_flexible_rotation_30_objects_occ0.7_0.9s/images/train/n04405907_8/n03001627_9/img_stylized_tv_chair_eames_plastic_armchair_2008_gray.jpg,n04405907_8,n03001627_9,flexible,0.711688,n04256520_4,Stimuli/psy_fixed_rotation_30_objects_occ0.7_0.9s/images/train/n03001627_9/n04256520_4/img_chair_eames_plastic_armchair_club_house_italia_nautilus_sofa_2011-3_gray.png,random,fixed,n04405907_8,n03001627_9,Stimuli/canonical view 2/img_n04405907_8_gray.jpg,Stimuli/canonical view 2/img_n03001627_9_gray.jpg,foreground,left,Experiments/experiment_39/248.jpg,Experiments/experiment_39/249.jpg,Experiments/experiment_39/250.jpg,Experiments/experiment_39/251.jpg,913,1,2023-06-28_12h33.45.302,Occlusion_Psychophysics,2022.1.4,Win32,60.02040694,,,left,"[""left""]",[0.6822999999523063],False,,0.0,0.0,62.0,62.0,62.0,1.0,,,,,,
,,,,,,,,,,,,,,,,,,,,,0.05,,,,,,,,,,Stimuli/psy_fixed_rotation_30_objects_occ0.7_0.9s/images/train/n02828884_3/n04405907_5/img_b04_wood_metal_park_bench_samsung_40_uhd_smart_tv_2011_2010_gray.jpg,n02828884_3,n04405907_5,fixed,0.735485,n02883344_15,Stimuli/psy_fixed_rotation_30_objects_occ0.7_0.9s/images/train/n03001627_-2/n02883344_15/img_wood_chair_microwave_box_2012-3_gray.png,random,fixed,n02828884_3,n02818832_3,Stimuli/canonical view 2/img_n02828884_3_gray.jpg,Stimuli/canonical view 2/img_n02818832_3_gray.jpg,random,left,Experiments/experiment_39/252.jpg,Experiments/experiment_39/253.jpg,Experiments/experiment_39/254.jpg,Experiments/experiment_39/255.jpg,913,1,2023-06-28_12h33.45.302,Occlusion_Psychophysics,2022.1.4,Win32,60.02040694,,,right,"[""right""]",[0.7000000000000455],False,,0.0,0.0,63.0,63.0,63.0,1.0,,,,,,
,,,,,,,,,,,,,,,,,,,,,0.025,,,,,,,,,,Stimuli/psy_flexible_rotation_30_objects_occ0.7_0.9s/images/train/n03001627_-2/n03928116_0/img_wood_chair_b02_piano_2011_gray.jpg,n03001627_-2,n03928116_0,flexible,0.718346,n04379243_0,Stimuli/psy_fixed_rotation_30_objects_occ0.7_0.9s/images/train/n03928116_0/n04379243_0/img_b02_piano_17th_c._monastery_dining_table_2010_2014-3_gray.png,random,fixed,n03001627_-2,n03928116_0,Stimuli/canonical view 2/img_n03001627_-2_gray.jpg,Stimuli/canonical view 2/img_n03928116_0_gray.jpg,foreground,left,Experiments/experiment_39/256.jpg,Experiments/experiment_39/257.jpg,Experiments/experiment_39/258.jpg,Experiments/experiment_39/259.jpg,913,1,2023-06-28_12h33.45.302,Occlusion_Psychophysics,2022.1.4,Win32,60.02040694,,,right,"[""left""]",[0.7036000000238118],False,,0.0,0.0,64.0,64.0,64.0,1.0,,,,,,
,,,,,,,,,,,,,,,,,,,,,0.05,,,,,,,,,,Stimuli/psy_flexible_rotation_30_objects_occ0.7_0.9s/images/train/n04379243_8/n02818832_0/img_glass_table_b03_the_sofa_and_chair_company_-_stanley_bed_2014_2011_gray.jpg,n04379243_8,n02818832_0,flexible,0.873739,n02818832_3,Stimuli/psy_fixed_rotation_30_objects_occ0.7_0.9s/images/train/n04379243_8/n02818832_3/img_glass_table_b05_ccm_contemporary_bed_max2013_2000-3_gray.png,random,fixed,n04379243_8,n02818832_0,Stimuli/canonical view 2/img_n04379243_8_gray.jpg,Stimuli/canonical view 2/img_n02818832_0_gray.jpg,foreground,right,Experiments/experiment_39/260.jpg,Experiments/experiment_39/261.jpg,Experiments/experiment_39/262.jpg,Experiments/experiment_39/263.jpg,913,1,2023-06-28_12h33.45.302,Occlusion_Psychophysics,2022.1.4,Win32,60.02040694,,,left,"[""left""]",[0.7714999999999463],False,,0.0,0.0,65.0,65.0,65.0,1.0,,,,,,
,,,,,,,,,,,,,,,,,,,,,0.025,,,,,,,,,,Stimuli/psy_fixed_rotation_30_objects_occ0.7_0.9s/images/train/n02933112_-2/n04256520_5/img_sink_base_white_wood_meridiani_belmondo_bench_sofa_2015_gray.jpg,n02933112_-2,n04256520_5,fixed,0.759481,n04256520_5,Stimuli/psy_fixed_rotation_30_objects_occ0.7_0.9s/images/train/n02933112_-2/n04256520_5/img_sink_base_white_wood_meridiani_belmondo_bench_sofa_2015-3_gray.png,foreground,same as foreground,n02933112_-2,n04256520_5,Stimuli/canonical view 2/img_n02933112_-2_gray.jpg,Stimuli/canonical view 2/img_n04256520_5_gray.jpg,foreground,left,Experiments/experiment_39/264.jpg,Experiments/experiment_39/265.jpg,Experiments/experiment_39/266.jpg,Experiments/experiment_39/267.jpg,913,1,2023-06-28_12h33.45.302,Occlusion_Psychophysics,2022.1.4,Win32,60.02040694,,,right,"[""right""]",[0.7287000000476382],False,,0.0,0.0,66.0,66.0,66.0,1.0,,,,,,
,,,,,,,,,,,,,,,,,,,,,0.05,,,,,,,,,,Stimuli/psy_fixed_rotation_30_objects_occ0.7_0.9s/images/train/n02818832_9/n02828884_4/img_bed01_blue_b05_c-5_classic_series_bench-2012_2005_gray.jpg,n02818832_9,n02828884_4,fixed,0.71783,n04379243_-7,Stimuli/psy_fixed_rotation_30_objects_occ0.7_0.9s/images/train/n03928116_0/n04379243_-7/img_b02_piano_quatre_dining_table_2004-3_gray.png,random,fixed,n02818832_9,n02933112_-2,Stimuli/canonical view 2/img_n02818832_9_gray.jpg,Stimuli/canonical view 2/img_n02933112_-2_gray.jpg,random,right,Experiments/experiment_39/268.jpg,Experiments/experiment_39/269.jpg,Experiments/experiment_39/270.jpg,Experiments/experiment_39/271.jpg,913,1,2023-06-28_12h33.45.302,Occlusion_Psychophysics,2022.1.4,Win32,60.02040694,,,right,"[""right""]",[0.7349000000953083],False,,0.0,0.0,67.0,67.0,67.0,1.0,,,,,,
,,,,,,,,,,,,,,,,,,,,,0.05,,,,,,,,,,Stimuli/psy_flexible_rotation_30_objects_occ0.7_0.9s/images/train/n02818832_3/n02883344_0/img_b05_ccm_contemporary_bed_max2013_b03_box_2012_gray.jpg,n02818832_3,n02883344_0,flexible,0.78582,n02883344_0,Stimuli/psy_flexible_rotation_30_objects_occ0.7_0.9s/images/train/n02818832_3/n02883344_0/img_b05_ccm_contemporary_bed_max2013_b03_box_2012-3_gray.png,foreground,same as foreground,n02818832_3,n02883344_0,Stimuli/canonical view 2/img_n02818832_3_gray.jpg,Stimuli/canonical view 2/img_n02883344_0_gray.jpg,foreground,right,Experiments/experiment_39/272.jpg,Experiments/experiment_39/273.jpg,Experiments/experiment_39/274.jpg,Experiments/experiment_39/275.jpg,913,1,2023-06-28_12h33.45.302,Occlusion_Psychophysics,2022.1.4,Win32,60.02040694,,,right,"[""right""]",[0.8306999999284699],False,,0.0,0.0,68.0,68.0,68.0,1.0,,,,,,
,,,,,,,,,,,,,,,,,,,,,0.05,,,,,,,,,,Stimuli/psy_fixed_rotation_30_objects_occ0.7_0.9s/images/train/n03001627_8/n04405907_5/img_chair_billiani_doll_samsung_40_uhd_smart_tv_2011_2011_gray.jpg,n03001627_8,n04405907_5,fixed,0.726274,n04405907_5,Stimuli/psy_fixed_rotation_30_objects_occ0.7_0.9s/images/train/n03001627_8/n04405907_5/img_chair_billiani_doll_samsung_40_uhd_smart_tv_2011_2011-3_gray.png,foreground,same as foreground,n03001627_8,n03928116_0,Stimuli/canonical view 2/img_n03001627_8_gray.jpg,Stimuli/canonical view 2/img_n03928116_0_gray.jpg,random,left,Experiments/experiment_39/276.jpg,Experiments/experiment_39/277.jpg,Experiments/experiment_39/278.jpg,Experiments/experiment_39/279.jpg,913,1,2023-06-28_12h33.45.302,Occlusion_Psychophysics,2022.1.4,Win32,60.02040694,,,left,"[""left""]",[0.68100000000004],False,,0.0,0.0,69.0,69.0,69.0,1.0,,,,,,
,,,,,,,,,,,,,,,,,,,,,0.025,,,,,,,,,,Stimuli/psy_fixed_rotation_30_objects_occ0.7_0.9s/images/train/n02828884_4/n02883344_15/img_b05_c-5_classic_series_bench-2012_microwave_box_2003_gray.jpg,n02828884_4,n02883344_15,fixed,0.768514,n02883344_15,Stimuli/psy_fixed_rotation_30_objects_occ0.7_0.9s/images/train/n02828884_4/n02883344_15/img_b05_c-5_classic_series_bench-2012_microwave_box_2003-3_gray.png,foreground,same as foreground,n02828884_4,n02883344_15,Stimuli/canonical view 2/img_n02828884_4_gray.jpg,Stimuli/canonical view 2/img_n02883344_15_gray.jpg,foreground,right,Experiments/experiment_39/280.jpg,Experiments/experiment_39/281.jpg,Experiments/experiment_39/282.jpg,Experiments/experiment_39/283.jpg,913,1,2023-06-28_12h33.45.302,Occlusion_Psychophysics,2022.1.4,Win32,60.02040694,,,right,"[""right""]",[0.5778999999761254],False,,0.0,0.0,70.0,70.0,70.0,1.0,,,,,,
,,,,,,,,,,,,,,,,,,,,,0.05,,,,,,,,,,Stimuli/psy_fixed_rotation_30_objects_occ0.7_0.9s/images/train/n04379243_-7/n03928116_10/img_quatre_dining_table_ydp_103_r_2012__vray_2009_gray.jpg,n04379243_-7,n03928116_10,fixed,0.767775,n03928116_10,Stimuli/psy_fixed_rotation_30_objects_occ0.7_0.9s/images/train/n04379243_-7/n03928116_10/img_quatre_dining_table_ydp_103_r_2012__vray_2009-3_gray.png,foreground,same as foreground,n04379243_-7,n03928116_10,Stimuli/canonical view 2/img_n04379243_-7_gray.jpg,Stimuli/canonical view 2/img_n03928116_10_gray.jpg,foreground,left,Experiments/experiment_39/284.jpg,Experiments/experiment_39/285.jpg,Experiments/experiment_39/286.jpg,Experiments/experiment_39/287.jpg,913,1,2023-06-28_12h33.45.302,Occlusion_Psychophysics,2022.1.4,Win32,60.02040694,,,right,"[""right""]",[0.6788999999762382],False,,0.0,0.0,71.0,71.0,71.0,1.0,,,,,,
,,,,,,,,,,,,,,,,,,,,,0.05,,,,,,,,,,Stimuli/psy_flexible_rotation_30_objects_occ0.7_0.9s/images/train/n03001627_9/n03928116_10/img_chair_eames_plastic_armchair_ydp_103_r_2012__vray_2012_gray.jpg,n03001627_9,n03928116_10,flexible,0.787383,n02933112_-18,Stimuli/psy_flexible_rotation_30_objects_occ0.7_0.9s/images/train/n04379243_0/n02933112_-18/img_17th_c._monastery_dining_table_2010_cgaxis_models_48_26_vray_composite_2005-3_gray.png,random,flexible,n03001627_9,n03928116_10,Stimuli/canonical view 2/img_n03001627_9_gray.jpg,Stimuli/canonical view 2/img_n03928116_10_gray.jpg,foreground,left,Experiments/experiment_39/288.jpg,Experiments/experiment_39/289.jpg,Experiments/experiment_39/290.jpg,Experiments/experiment_39/291.jpg,913,1,2023-06-28_12h33.45.302,Occlusion_Psychophysics,2022.1.4,Win32,60.02040694,,,right,"[""left""]",[0.7038999999761018],False,,0.0,0.0,72.0,72.0,72.0,1.0,,,,,,
,,,,,,,,,,,,,,,,,,,,,0.05,,,,,,,,,,Stimuli/psy_fixed_rotation_30_objects_occ0.7_0.9s/images/train/n02818832_9/n04405907_5/img_bed01_blue_samsung_40_uhd_smart_tv_2011_2000_gray.jpg,n02818832_9,n04405907_5,fixed,0.776751,n04405907_9,Stimuli/psy_flexible_rotation_30_objects_occ0.7_0.9s/images/train/n02828884_3/n04405907_9/img_b04_wood_metal_park_bench_vray_004_2004-3_gray.png,random,flexible,n02818832_9,n02828884_3,Stimuli/canonical view 2/img_n02818832_9_gray.jpg,Stimuli/canonical view 2/img_n02828884_3_gray.jpg,random,left,Experiments/experiment_39/292.jpg,Experiments/experiment_39/293.jpg,Experiments/experiment_39/294.jpg,Experiments/experiment_39/295.jpg,913,1,2023-06-28_12h33.45.302,Occlusion_Psychophysics,2022.1.4,Win32,60.02040694,,,right,"[""right""]",[0.6883999999761272],False,,0.0,0.0,73.0,73.0,73.0,1.0,,,,,,
,,,,,,,,,,,,,,,,,,,,,0.05,,,,,,,,,,Stimuli/psy_fixed_rotation_30_objects_occ0.7_0.9s/images/train/n04405907_9/n02933112_4/img_vray_004_buffet_2004_gray.jpg,n04405907_9,n02933112_4,fixed,0.771664,n02933112_-18,Stimuli/psy_flexible_rotation_30_objects_occ0.7_0.9s/images/train/n04405907_9/n02933112_-18/img_vray_004_cgaxis_models_48_26_vray_composite_2002-3_gray.png,random,flexible,n04405907_9,n02933112_4,Stimuli/canonical view 2/img_n04405907_9_gray.jpg,Stimuli/canonical view 2/img_n02933112_4_gray.jpg,foreground,left,Experiments/experiment_39/296.jpg,Experiments/experiment_39/297.jpg,Experiments/experiment_39/298.jpg,Experiments/experiment_39/299.jpg,913,1,2023-06-28_12h33.45.302,Occlusion_Psychophysics,2022.1.4,Win32,60.02040694,,,left,"[""left""]",[0.5538999999761245],False,,0.0,0.0,74.0,74.0,74.0,1.0,,,,,,
,,,,,,,,,,,,,,,,,,,,,0.05,,,,,,,,,,Stimuli/psy_fixed_rotation_30_objects_occ0.7_0.9s/images/train/n03928116_4/n02933112_4/img_dp_33_b_2013__vray_buffet_2014_gray.jpg,n03928116_4,n02933112_4,fixed,0.780197,n02933112_4,Stimuli/psy_fixed_rotation_30_objects_occ0.7_0.9s/images/train/n03928116_4/n02933112_4/img_dp_33_b_2013__vray_buffet_2014-3_gray.png,foreground,same as foreground,n03928116_4,n02883344_0,Stimuli/canonical view 2/img_n03928116_4_gray.jpg,Stimuli/canonical view 2/img_n02883344_0_gray.jpg,random,left,Experiments/experiment_39/300.jpg,Experiments/experiment_39/301.jpg,Experiments/experiment_39/302.jpg,Experiments/experiment_39/303.jpg,913,1,2023-06-28_12h33.45.302,Occlusion_Psychophysics,2022.1.4,Win32,60.02040694,,,left,"[""left""]",[0.7264999999999873],True,left,1.0,0.0,75.0,75.0,75.0,1.0,0.9578,,,,,
,,,,,,,,,,,,,,,,,,,,,0.05,,,,,,,,,,Stimuli/psy_fixed_rotation_30_objects_occ0.7_0.9s/images/train/n02828884_4/n02818832_0/img_b05_c-5_classic_series_bench-2012_b03_the_sofa_and_chair_company_-_stanley_bed_2014_2010_gray.jpg,n02828884_4,n02818832_0,fixed,0.739395,n02883344_-1,Stimuli/psy_fixed_rotation_30_objects_occ0.7_0.9s/images/train/n02933112_4/n02883344_-1/img_buffet_woven_box_2002-3_gray.png,random,fixed,n02828884_4,n02818832_0,Stimuli/canonical view 2/img_n02828884_4_gray.jpg,Stimuli/canonical view 2/img_n02818832_0_gray.jpg,foreground,right,Experiments/experiment_39/304.jpg,Experiments/experiment_39/305.jpg,Experiments/experiment_39/306.jpg,Experiments/experiment_39/307.jpg,913,1,2023-06-28_12h33.45.302,Occlusion_Psychophysics,2022.1.4,Win32,60.02040694,,,right,"[""left""]",[0.7682000000476137],False,,0.0,0.0,76.0,76.0,76.0,1.0,,,,,,
,,,,,,,,,,,,,,,,,,,,,0.025,,,,,,,,,,Stimuli/psy_fixed_rotation_30_objects_occ0.7_0.9s/images/train/n02883344_0/n02933112_-18/img_b03_box_cgaxis_models_48_26_vray_composite_2010_gray.jpg,n02883344_0,n02933112_-18,fixed,0.811916,n02883344_-1,Stimuli/psy_flexible_rotation_30_objects_occ0.7_0.9s/images/train/n04070727_5/n02883344_-1/img_b05_db_apps_tech_06_13_composite_woven_box_2005-3_gray.png,random,flexible,n02883344_0,n02933112_-18,Stimuli/canonical view 2/img_n02883344_0_gray.jpg,Stimuli/canonical view 2/img_n02933112_-18_gray.jpg,foreground,right,Experiments/experiment_39/308.jpg,Experiments/experiment_39/309.jpg,Experiments/experiment_39/310.jpg,Experiments/experiment_39/311.jpg,913,1,2023-06-28_12h33.45.302,Occlusion_Psychophysics,2022.1.4,Win32,60.02040694,,,right,"[""right""]",[0.5557000000476364],False,,0.0,0.0,77.0,77.0,77.0,1.0,,,,,,
,,,,,,,,,,,,,,,,,,,,,0.05,,,,,,,,,,Stimuli/psy_fixed_rotation_30_objects_occ0.7_0.9s/images/train/n02933112_4/n04379243_-7/img_buffet_quatre_dining_table_2011_gray.jpg,n02933112_4,n04379243_-7,fixed,0.756942,n02883344_-1,Stimuli/psy_flexible_rotation_30_objects_occ0.7_0.9s/images/train/n03001627_-2/n02883344_-1/img_wood_chair_woven_box_2011-3_gray.png,random,flexible,n02933112_4,n04379243_-7,Stimuli/canonical view 2/img_n02933112_4_gray.jpg,Stimuli/canonical view 2/img_n04379243_-7_gray.jpg,foreground,left,Experiments/experiment_39/312.jpg,Experiments/experiment_39/313.jpg,Experiments/experiment_39/314.jpg,Experiments/experiment_39/315.jpg,913,1,2023-06-28_12h33.45.302,Occlusion_Psychophysics,2022.1.4,Win32,60.02040694,,,left,"[""left""]",[0.6682000000477046],True,left,1.0,0.0,78.0,78.0,78.0,1.0,0.7629,,,,,
,,,,,,,,,,,,,,,,,,,,,0.05,,,,,,,,,,Stimuli/psy_flexible_rotation_30_objects_occ0.7_0.9s/images/train/n02933112_4/n03928116_0/img_buffet_b02_piano_2015_gray.jpg,n02933112_4,n03928116_0,flexible,0.704694,n02818832_0,Stimuli/psy_flexible_rotation_30_objects_occ0.7_0.9s/images/train/n02818832_3/n02818832_0/img_b05_ccm_contemporary_bed_max2013_b03_the_sofa_and_chair_company_-_stanley_bed_2014_2003-3_gray.png,random,flexible,n02933112_4,n03928116_0,Stimuli/canonical view 2/img_n02933112_4_gray.jpg,Stimuli/canonical view 2/img_n03928116_0_gray.jpg,foreground,right,Experiments/experiment_39/316.jpg,Experiments/experiment_39/317.jpg,Experiments/experiment_39/318.jpg,Experiments/experiment_39/319.jpg,913,1,2023-06-28_12h33.45.302,Occlusion_Psychophysics,2022.1.4,Win32,60.02040694,,,right,"[""right""]",[0.6448999999761327],False,,0.0,0.0,79.0,79.0,79.0,1.0,,,,,,
,,,,,,,,,,,,,,,,,,,,,0.025,,,,,,,,,,Stimuli/psy_fixed_rotation_30_objects_occ0.7_0.9s/images/train/n02828884_3/n04405907_5/img_b04_wood_metal_park_bench_samsung_40_uhd_smart_tv_2011_2003_gray.jpg,n02828884_3,n04405907_5,fixed,0.844621,n02828884_3,Stimuli/psy_flexible_rotation_30_objects_occ0.7_0.9s/images/train/n04379243_-7/n02828884_3/img_quatre_dining_table_b04_wood_metal_park_bench_2013-3_gray.png,random,flexible,n02828884_3,n04405907_5,Stimuli/canonical view 2/img_n02828884_3_gray.jpg,Stimuli/canonical view 2/img_n04405907_5_gray.jpg,foreground,left,Experiments/experiment_39/320.jpg,Experiments/experiment_39/321.jpg,Experiments/experiment_39/322.jpg,Experiments/experiment_39/323.jpg,913,1,2023-06-28_12h33.45.302,Occlusion_Psychophysics,2022.1.4,Win32,60.02040694,,,left,"[""left""]",[0.5586999999284217],False,,0.0,0.0,80.0,80.0,80.0,1.0,,,,,,
,,,,,,,,,,,,,,,,,,,,,0.025,,,,,,,,,,Stimuli/psy_flexible_rotation_30_objects_occ0.7_0.9s/images/train/n04256520_4/n02818832_3/img_club_house_italia_nautilus_sofa_b05_ccm_contemporary_bed_max2013_2006_gray.jpg,n04256520_4,n02818832_3,flexible,0.790499,n02818832_3,Stimuli/psy_flexible_rotation_30_objects_occ0.7_0.9s/images/train/n04256520_4/n02818832_3/img_club_house_italia_nautilus_sofa_b05_ccm_contemporary_bed_max2013_2006-3_gray.png,foreground,same as foreground,n04256520_4,n02818832_3,Stimuli/canonical view 2/img_n04256520_4_gray.jpg,Stimuli/canonical view 2/img_n02818832_3_gray.jpg,foreground,right,Experiments/experiment_39/324.jpg,Experiments/experiment_39/325.jpg,Experiments/experiment_39/326.jpg,Experiments/experiment_39/327.jpg,913,1,2023-06-28_12h33.45.302,Occlusion_Psychophysics,2022.1.4,Win32,60.02040694,,,right,"[""right""]",[0.8866000000238046],False,,0.0,0.0,81.0,81.0,81.0,1.0,,,,,,
,,,,,,,,,,,,,,,,,,,,,0.025,,,,,,,,,,Stimuli/psy_fixed_rotation_30_objects_occ0.7_0.9s/images/train/n02933112_-18/n02933112_4/img_cgaxis_models_48_26_vray_composite_buffet_2008_gray.jpg,n02933112_-18,n02933112_4,fixed,0.708375,n04405907_5,Stimuli/psy_flexible_rotation_30_objects_occ0.7_0.9s/images/train/n04256520_4/n04405907_5/img_club_house_italia_nautilus_sofa_samsung_40_uhd_smart_tv_2011_2012-3_gray.png,random,flexible,n02933112_-18,n02933112_4,Stimuli/canonical view 2/img_n02933112_-18_gray.jpg,Stimuli/canonical view 2/img_n02933112_4_gray.jpg,foreground,right,Experiments/experiment_39/328.jpg,Experiments/experiment_39/329.jpg,Experiments/experiment_39/330.jpg,Experiments/experiment_39/331.jpg,913,1,2023-06-28_12h33.45.302,Occlusion_Psychophysics,2022.1.4,Win32,60.02040694,,,left,"[""left""]",[0.8925999999046326],False,,0.0,0.0,82.0,82.0,82.0,1.0,,,,,,
,,,,,,,,,,,,,,,,,,,,,0.025,,,,,,,,,,Stimuli/psy_flexible_rotation_30_objects_occ0.7_0.9s/images/train/n04256520_9/n03928116_4/img_napoleon_iii_sofa_dp_33_b_2013__vray_2013_gray.jpg,n04256520_9,n03928116_4,flexible,0.705969,n02883344_15,Stimuli/psy_flexible_rotation_30_objects_occ0.7_0.9s/images/train/n04405907_9/n02883344_15/img_vray_004_microwave_box_2006-3_gray.png,random,flexible,n04256520_9,n04256520_4,Stimuli/canonical view 2/img_n04256520_9_gray.jpg,Stimuli/canonical view 2/img_n04256520_4_gray.jpg,random,right,Experiments/experiment_39/332.jpg,Experiments/experiment_39/333.jpg,Experiments/experiment_39/334.jpg,Experiments/experiment_39/335.jpg,913,1,2023-06-28_12h33.45.302,Occlusion_Psychophysics,2022.1.4,Win32,60.02040694,,,right,"[""right""]",[0.6697999999522608],False,,0.0,0.0,83.0,83.0,83.0,1.0,,,,,,
,,,,,,,,,,,,,,,,,,,,,0.05,,,,,,,,,,Stimuli/psy_flexible_rotation_30_objects_occ0.7_0.9s/images/train/n02933112_-2/n02883344_15/img_sink_base_white_wood_microwave_box_2007_gray.jpg,n02933112_-2,n02883344_15,flexible,0.769968,n02883344_15,Stimuli/psy_flexible_rotation_30_objects_occ0.7_0.9s/images/train/n02933112_-2/n02883344_15/img_sink_base_white_wood_microwave_box_2007-3_gray.png,foreground,same as foreground,n02933112_-2,n02883344_15,Stimuli/canonical view 2/img_n02933112_-2_gray.jpg,Stimuli/canonical view 2/img_n02883344_15_gray.jpg,foreground,left,Experiments/experiment_39/336.jpg,Experiments/experiment_39/337.jpg,Experiments/experiment_39/338.jpg,Experiments/experiment_39/339.jpg,913,1,2023-06-28_12h33.45.302,Occlusion_Psychophysics,2022.1.4,Win32,60.02040694,,,right,"[""right""]",[0.8146000000238018],False,,0.0,0.0,84.0,84.0,84.0,1.0,,,,,,
,,,,,,,,,,,,,,,,,,,,,0.025,,,,,,,,,,Stimuli/psy_fixed_rotation_30_objects_occ0.7_0.9s/images/train/n04379243_8/n02818832_3/img_glass_table_b05_ccm_contemporary_bed_max2013_2005_gray.jpg,n04379243_8,n02818832_3,fixed,0.73395,n04405907_5,Stimuli/psy_fixed_rotation_30_objects_occ0.7_0.9s/images/train/n03001627_8/n04405907_5/img_chair_billiani_doll_samsung_40_uhd_smart_tv_2011_2008-3_gray.png,random,fixed,n04379243_8,n02933112_4,Stimuli/canonical view 2/img_n04379243_8_gray.jpg,Stimuli/canonical view 2/img_n02933112_4_gray.jpg,random,left,Experiments/experiment_39/340.jpg,Experiments/experiment_39/341.jpg,Experiments/experiment_39/342.jpg,Experiments/experiment_39/343.jpg,913,1,2023-06-28_12h33.45.302,Occlusion_Psychophysics,2022.1.4,Win32,60.02040694,,,right,"[""right""]",[0.6662999999523436],False,,0.0,0.0,85.0,85.0,85.0,1.0,,,,,,
,,,,,,,,,,,,,,,,,,,,,0.05,,,,,,,,,,Stimuli/psy_flexible_rotation_30_objects_occ0.7_0.9s/images/train/n02883344_-1/n04256520_5/img_woven_box_meridiani_belmondo_bench_sofa_2006_gray.jpg,n02883344_-1,n04256520_5,flexible,0.744558,n04379243_0,Stimuli/psy_fixed_rotation_30_objects_occ0.7_0.9s/images/train/n02933112_-2/n04379243_0/img_sink_base_white_wood_17th_c._monastery_dining_table_2010_2009-3_gray.png,random,fixed,n02883344_-1,n03928116_4,Stimuli/canonical view 2/img_n02883344_-1_gray.jpg,Stimuli/canonical view 2/img_n03928116_4_gray.jpg,random,right,Experiments/experiment_39/344.jpg,Experiments/experiment_39/345.jpg,Experiments/experiment_39/346.jpg,Experiments/experiment_39/347.jpg,913,1,2023-06-28_12h33.45.302,Occlusion_Psychophysics,2022.1.4,Win32,60.02040694,,,right,"[""left""]",[0.579700000047751],False,,0.0,0.0,86.0,86.0,86.0,1.0,,,,,,
,,,,,,,,,,,,,,,,,,,,,0.025,,,,,,,,,,Stimuli/psy_fixed_rotation_30_objects_occ0.7_0.9s/images/train/n03928116_4/n04405907_9/img_dp_33_b_2013__vray_vray_004_2001_gray.jpg,n03928116_4,n04405907_9,fixed,0.729533,n04256520_5,Stimuli/psy_flexible_rotation_30_objects_occ0.7_0.9s/images/train/n02818832_0/n04256520_5/img_b03_the_sofa_and_chair_company_-_stanley_bed_2014_meridiani_belmondo_bench_sofa_2007-3_gray.png,random,flexible,n03928116_4,n03928116_0,Stimuli/canonical view 2/img_n03928116_4_gray.jpg,Stimuli/canonical view 2/img_n03928116_0_gray.jpg,random,right,Experiments/experiment_39/348.jpg,Experiments/experiment_39/349.jpg,Experiments/experiment_39/350.jpg,Experiments/experiment_39/351.jpg,913,1,2023-06-28_12h33.45.302,Occlusion_Psychophysics,2022.1.4,Win32,60.02040694,,,left,"[""right""]",[0.6490000000000009],False,,0.0,0.0,87.0,87.0,87.0,1.0,,,,,,
,,,,,,,,,,,,,,,,,,,,,0.05,,,,,,,,,,Stimuli/psy_flexible_rotation_30_objects_occ0.7_0.9s/images/train/n04256520_9/n02818832_0/img_napoleon_iii_sofa_b03_the_sofa_and_chair_company_-_stanley_bed_2014_2007_gray.jpg,n04256520_9,n02818832_0,flexible,0.76283,n02818832_9,Stimuli/psy_flexible_rotation_30_objects_occ0.7_0.9s/images/train/n02933112_-2/n02818832_9/img_sink_base_white_wood_bed01_blue_2003-3_gray.png,random,flexible,n04256520_9,n03001627_8,Stimuli/canonical view 2/img_n04256520_9_gray.jpg,Stimuli/canonical view 2/img_n03001627_8_gray.jpg,random,right,Experiments/experiment_39/352.jpg,Experiments/experiment_39/353.jpg,Experiments/experiment_39/354.jpg,Experiments/experiment_39/355.jpg,913,1,2023-06-28_12h33.45.302,Occlusion_Psychophysics,2022.1.4,Win32,60.02040694,,,right,"[""right""]",[0.763600000023871],False,,0.0,0.0,88.0,88.0,88.0,1.0,,,,,,
,,,,,,,,,,,,,,,,,,,,,0.05,,,,,,,,,,Stimuli/psy_flexible_rotation_30_objects_occ0.7_0.9s/images/train/n03928116_10/n02933112_-2/img_ydp_103_r_2012__vray_sink_base_white_wood_2014_gray.jpg,n03928116_10,n02933112_-2,flexible,0.884213,n02933112_-2,Stimuli/psy_flexible_rotation_30_objects_occ0.7_0.9s/images/train/n03928116_10/n02933112_-2/img_ydp_103_r_2012__vray_sink_base_white_wood_2014-3_gray.png,foreground,same as foreground,n03928116_10,n03928116_4,Stimuli/canonical view 2/img_n03928116_10_gray.jpg,Stimuli/canonical view 2/img_n03928116_4_gray.jpg,random,left,Experiments/experiment_39/356.jpg,Experiments/experiment_39/357.jpg,Experiments/experiment_39/358.jpg,Experiments/experiment_39/359.jpg,913,1,2023-06-28_12h33.45.302,Occlusion_Psychophysics,2022.1.4,Win32,60.02040694,,,right,"[""left""]",[0.7849999999999682],False,,0.0,0.0,89.0,89.0,89.0,1.0,,,,,,
,,,,,,,,,,,,,,,,,,,,,0.025,,,,,,,,,,Stimuli/psy_flexible_rotation_30_objects_occ0.7_0.9s/images/train/n02933112_-18/n02933112_4/img_cgaxis_models_48_26_vray_composite_buffet_2015_gray.jpg,n02933112_-18,n02933112_4,flexible,0.71374,n04379243_8,Stimuli/psy_fixed_rotation_30_objects_occ0.7_0.9s/images/train/n02828884_4/n04379243_8/img_b05_c-5_classic_series_bench-2012_glass_table_2009-3_gray.png,random,fixed,n02933112_-18,n02933112_4,Stimuli/canonical view 2/img_n02933112_-18_gray.jpg,Stimuli/canonical view 2/img_n02933112_4_gray.jpg,foreground,right,Experiments/experiment_39/360.jpg,Experiments/experiment_39/361.jpg,Experiments/experiment_39/362.jpg,Experiments/experiment_39/363.jpg,913,1,2023-06-28_12h33.45.302,Occlusion_Psychophysics,2022.1.4,Win32,60.02040694,,,right,"[""right""]",[0.8052000000476482],False,,0.0,0.0,90.0,90.0,90.0,1.0,,,,,,
,,,,,,,,,,,,,,,,,,,,,0.025,,,,,,,,,,Stimuli/psy_flexible_rotation_30_objects_occ0.7_0.9s/images/train/n04379243_-7/n04256520_5/img_quatre_dining_table_meridiani_belmondo_bench_sofa_2003_gray.jpg,n04379243_-7,n04256520_5,flexible,0.837352,n04256520_5,Stimuli/psy_flexible_rotation_30_objects_occ0.7_0.9s/images/train/n04379243_-7/n04256520_5/img_quatre_dining_table_meridiani_belmondo_bench_sofa_2003-3_gray.png,foreground,same as foreground,n04379243_-7,n04256520_4,Stimuli/canonical view 2/img_n04379243_-7_gray.jpg,Stimuli/canonical view 2/img_n04256520_4_gray.jpg,random,left,Experiments/experiment_39/364.jpg,Experiments/experiment_39/365.jpg,Experiments/experiment_39/366.jpg,Experiments/experiment_39/367.jpg,913,1,2023-06-28_12h33.45.302,Occlusion_Psychophysics,2022.1.4,Win32,60.02040694,,,right,"[""right""]",[1.0036999999284717],False,,0.0,0.0,91.0,91.0,91.0,1.0,,,,,,
,,,,,,,,,,,,,,,,,,,,,0.05,,,,,,,,,,Stimuli/psy_fixed_rotation_30_objects_occ0.7_0.9s/images/train/n02933112_-2/n02883344_0/img_sink_base_white_wood_b03_box_2003_gray.jpg,n02933112_-2,n02883344_0,fixed,0.832009,n02883344_0,Stimuli/psy_fixed_rotation_30_objects_occ0.7_0.9s/images/train/n02933112_-2/n02883344_0/img_sink_base_white_wood_b03_box_2003-3_gray.png,foreground,same as foreground,n02933112_-2,n04379243_8,Stimuli/canonical view 2/img_n02933112_-2_gray.jpg,Stimuli/canonical view 2/img_n04379243_8_gray.jpg,random,left,Experiments/experiment_39/368.jpg,Experiments/experiment_39/369.jpg,Experiments/experiment_39/370.jpg,Experiments/experiment_39/371.jpg,913,1,2023-06-28_12h33.45.302,Occlusion_Psychophysics,2022.1.4,Win32,60.02040694,,,right,"[""left""]",[0.7967000000476219],False,,0.0,0.0,92.0,92.0,92.0,1.0,,,,,,
,,,,,,,,,,,,,,,,,,,,,0.025,,,,,,,,,,Stimuli/psy_flexible_rotation_30_objects_occ0.7_0.9s/images/train/n02883344_0/n02828884_3/img_b03_box_b04_wood_metal_park_bench_2004_gray.jpg,n02883344_0,n02828884_3,flexible,0.822167,n02828884_3,Stimuli/psy_flexible_rotation_30_objects_occ0.7_0.9s/images/train/n02883344_0/n02828884_3/img_b03_box_b04_wood_metal_park_bench_2004-3_gray.png,foreground,same as foreground,n02883344_0,n02828884_4,Stimuli/canonical view 2/img_n02883344_0_gray.jpg,Stimuli/canonical view 2/img_n02828884_4_gray.jpg,random,left,Experiments/experiment_39/372.jpg,Experiments/experiment_39/373.jpg,Experiments/experiment_39/374.jpg,Experiments/experiment_39/375.jpg,913,1,2023-06-28_12h33.45.302,Occlusion_Psychophysics,2022.1.4,Win32,60.02040694,,,right,"[""right""]",[0.69789999997613],False,,0.0,0.0,93.0,93.0,93.0,1.0,,,,,,
,,,,,,,,,,,,,,,,,,,,,0.025,,,,,,,,,,Stimuli/psy_flexible_rotation_30_objects_occ0.7_0.9s/images/train/n02933112_-2/n04256520_5/img_sink_base_white_wood_meridiani_belmondo_bench_sofa_2014_gray.jpg,n02933112_-2,n04256520_5,flexible,0.707551,n02883344_0,Stimuli/psy_fixed_rotation_30_objects_occ0.7_0.9s/images/train/n02883344_-1/n02883344_0/img_woven_box_b03_box_2013-3_gray.png,random,fixed,n02933112_-2,n02883344_0,Stimuli/canonical view 2/img_n02933112_-2_gray.jpg,Stimuli/canonical view 2/img_n02883344_0_gray.jpg,random,right,Experiments/experiment_39/376.jpg,Experiments/experiment_39/377.jpg,Experiments/experiment_39/378.jpg,Experiments/experiment_39/379.jpg,913,1,2023-06-28_12h33.45.302,Occlusion_Psychophysics,2022.1.4,Win32,60.02040694,,,left,"[""left""]",[0.8735000000000355],False,,0.0,0.0,94.0,94.0,94.0,1.0,,,,,,
,,,,,,,,,,,,,,,,,,,,,0.025,,,,,,,,,,Stimuli/psy_fixed_rotation_30_objects_occ0.7_0.9s/images/train/n02933112_-2/n04405907_5/img_sink_base_white_wood_samsung_40_uhd_smart_tv_2011_2008_gray.jpg,n02933112_-2,n04405907_5,fixed,0.794387,n03928116_4,Stimuli/psy_fixed_rotation_30_objects_occ0.7_0.9s/images/train/n03928116_10/n03928116_4/img_ydp_103_r_2012__vray_dp_33_b_2013__vray_2015-3_gray.png,random,fixed,n02933112_-2,n04405907_5,Stimuli/canonical view 2/img_n02933112_-2_gray.jpg,Stimuli/canonical view 2/img_n04405907_5_gray.jpg,foreground,right,Experiments/experiment_39/380.jpg,Experiments/experiment_39/381.jpg,Experiments/experiment_39/382.jpg,Experiments/experiment_39/383.jpg,913,1,2023-06-28_12h33.45.302,Occlusion_Psychophysics,2022.1.4,Win32,60.02040694,,,left,"[""left""]",[0.9705999999046071],False,,0.0,0.0,95.0,95.0,95.0,1.0,,,,,,
,,,,,,,,,,,,,,,,,,,,,0.05,,,,,,,,,,Stimuli/psy_fixed_rotation_30_objects_occ0.7_0.9s/images/train/n04379243_-7/n04256520_4/img_quatre_dining_table_club_house_italia_nautilus_sofa_2015_gray.jpg,n04379243_-7,n04256520_4,fixed,0.763075,n04256520_4,Stimuli/psy_fixed_rotation_30_objects_occ0.7_0.9s/images/train/n04379243_-7/n04256520_4/img_quatre_dining_table_club_house_italia_nautilus_sofa_2015-3_gray.png,foreground,same as foreground,n04379243_-7,n02883344_-1,Stimuli/canonical view 2/img_n04379243_-7_gray.jpg,Stimuli/canonical view 2/img_n02883344_-1_gray.jpg,random,right,Experiments/experiment_39/384.jpg,Experiments/experiment_39/385.jpg,Experiments/experiment_39/386.jpg,Experiments/experiment_39/387.jpg,913,1,2023-06-28_12h33.45.302,Occlusion_Psychophysics,2022.1.4,Win32,60.02040694,,,right,"[""right""]",[0.7702999999522717],False,,0.0,0.0,96.0,96.0,96.0,1.0,,,,,,
,,,,,,,,,,,,,,,,,,,,,0.025,,,,,,,,,,Stimuli/psy_fixed_rotation_30_objects_occ0.7_0.9s/images/train/n02818832_0/n03928116_0/img_b03_the_sofa_and_chair_company_-_stanley_bed_2014_b02_piano_2005_gray.jpg,n02818832_0,n03928116_0,fixed,0.70117,n02883344_-1,Stimuli/psy_flexible_rotation_30_objects_occ0.7_0.9s/images/train/n02818832_9/n02883344_-1/img_bed01_blue_woven_box_2010-3_gray.png,random,flexible,n02818832_0,n03928116_0,Stimuli/canonical view 2/img_n02818832_0_gray.jpg,Stimuli/canonical view 2/img_n03928116_0_gray.jpg,foreground,right,Experiments/experiment_39/388.jpg,Experiments/experiment_39/389.jpg,Experiments/experiment_39/390.jpg,Experiments/experiment_39/391.jpg,913,1,2023-06-28_12h33.45.302,Occlusion_Psychophysics,2022.1.4,Win32,60.02040694,,,right,"[""right""]",[0.6847999999523608],False,,0.0,0.0,97.0,97.0,97.0,1.0,,,,,,
,,,,,,,,,,,,,,,,,,,,,0.05,,,,,,,,,,Stimuli/psy_fixed_rotation_30_objects_occ0.7_0.9s/images/train/n04405907_9/n04405907_8/img_vray_004_stylized_tv_2009_gray.jpg,n04405907_9,n04405907_8,fixed,0.733472,n02883344_-1,Stimuli/psy_flexible_rotation_30_objects_occ0.7_0.9s/images/train/n04379243_-7/n02883344_-1/img_quatre_dining_table_woven_box_2013-3_gray.png,random,flexible,n04405907_9,n04379243_0,Stimuli/canonical view 2/img_n04405907_9_gray.jpg,Stimuli/canonical view 2/img_n04379243_0_gray.jpg,random,left,Experiments/experiment_39/392.jpg,Experiments/experiment_39/393.jpg,Experiments/experiment_39/394.jpg,Experiments/experiment_39/395.jpg,913,1,2023-06-28_12h33.45.302,Occlusion_Psychophysics,2022.1.4,Win32,60.02040694,,,right,"[""left""]",[0.7733999999761636],False,,0.0,0.0,98.0,98.0,98.0,1.0,,,,,,
,,,,,,,,,,,,,,,,,,,,,0.05,,,,,,,,,,Stimuli/psy_flexible_rotation_30_objects_occ0.7_0.9s/images/train/n04405907_8/n02818832_9/img_stylized_tv_bed01_blue_2011_gray.jpg,n04405907_8,n02818832_9,flexible,0.792487,n02818832_9,Stimuli/psy_flexible_rotation_30_objects_occ0.7_0.9s/images/train/n04405907_8/n02818832_9/img_stylized_tv_bed01_blue_2011-3_gray.png,foreground,same as foreground,n04405907_8,n02818832_9,Stimuli/canonical view 2/img_n04405907_8_gray.jpg,Stimuli/canonical view 2/img_n02818832_9_gray.jpg,foreground,right,Experiments/experiment_39/396.jpg,Experiments/experiment_39/397.jpg,Experiments/experiment_39/398.jpg,Experiments/experiment_39/399.jpg,913,1,2023-06-28_12h33.45.302,Occlusion_Psychophysics,2022.1.4,Win32,60.02040694,,,left,"[""left""]",[0.8260999999046135],False,,0.0,0.0,99.0,99.0,99.0,1.0,,,,,,
,,,,,,,,,,,,,,,,,,,,,,,,,,,,,,,,,,,,,,,,,,,,,,,,,,913,1,2023-06-28_12h33.45.302,Occlusion_Psychophysics,2022.1.4,Win32,60.02040694,,,,,,,,,,,,,,,0.0,0.0,0.0,0.0,1.0
,,,,,,,,,,,,,,,,,,,,,0.025,,,,,,,,,,Stimuli/psy_flexible_rotation_30_objects_occ0.7_0.9s/images/train/n04379243_0/n02883344_-1/img_17th_c._monastery_dining_table_2010_woven_box_2004_gray.jpg,n04379243_0,n02883344_-1,flexible,0.725014,n02883344_-1,Stimuli/psy_flexible_rotation_30_objects_occ0.7_0.9s/images/train/n04379243_0/n02883344_-1/img_17th_c._monastery_dining_table_2010_woven_box_2004-3_gray.png,foreground,same as foreground,n04379243_0,n02883344_-1,Stimuli/canonical view 2/img_n04379243_0_gray.jpg,Stimuli/canonical view 2/img_n02883344_-1_gray.jpg,foreground,right,Experiments/experiment_39/400.jpg,Experiments/experiment_39/401.jpg,Experiments/experiment_39/402.jpg,Experiments/experiment_39/403.jpg,913,1,2023-06-28_12h33.45.302,Occlusion_Psychophysics,2022.1.4,Win32,60.02040694,,,left,"[""left""]",[0.6411000000238118],False,,0.0,0.0,0.0,0.0,0.0,1.0,,,,,,
,,,,,,,,,,,,,,,,,,,,,0.025,,,,,,,,,,Stimuli/psy_flexible_rotation_30_objects_occ0.7_0.9s/images/train/n02818832_3/n03928116_4/img_b05_ccm_contemporary_bed_max2013_dp_33_b_2013__vray_2000_gray.jpg,n02818832_3,n03928116_4,flexible,0.707029,n04405907_9,Stimuli/psy_fixed_rotation_30_objects_occ0.7_0.9s/images/train/n03928116_10/n04405907_9/img_ydp_103_r_2012__vray_vray_004_2014-3_gray.png,random,fixed,n02818832_3,n04379243_-7,Stimuli/canonical view 2/img_n02818832_3_gray.jpg,Stimuli/canonical view 2/img_n04379243_-7_gray.jpg,random,left,Experiments/experiment_39/404.jpg,Experiments/experiment_39/405.jpg,Experiments/experiment_39/406.jpg,Experiments/experiment_39/407.jpg,913,1,2023-06-28_12h33.45.302,Occlusion_Psychophysics,2022.1.4,Win32,60.02040694,,,right,"[""left""]",[0.7949999999999591],False,,0.0,0.0,1.0,1.0,1.0,1.0,,,,,,
,,,,,,,,,,,,,,,,,,,,,0.025,,,,,,,,,,Stimuli/psy_flexible_rotation_30_objects_occ0.7_0.9s/images/train/n04379243_8/n04379243_-7/img_glass_table_quatre_dining_table_2014_gray.jpg,n04379243_8,n04379243_-7,flexible,0.859726,n02883344_-1,Stimuli/psy_flexible_rotation_30_objects_occ0.7_0.9s/images/train/n03928116_10/n02883344_-1/img_ydp_103_r_2012__vray_woven_box_2007-3_gray.png,random,flexible,n04379243_8,n04256520_4,Stimuli/canonical view 2/img_n04379243_8_gray.jpg,Stimuli/canonical view 2/img_n04256520_4_gray.jpg,random,left,Experiments/experiment_39/408.jpg,Experiments/experiment_39/409.jpg,Experiments/experiment_39/410.jpg,Experiments/experiment_39/411.jpg,913,1,2023-06-28_12h33.45.302,Occlusion_Psychophysics,2022.1.4,Win32,60.02040694,,,right,"[""right""]",[0.615699999928438],False,,0.0,0.0,2.0,2.0,2.0,1.0,,,,,,
,,,,,,,,,,,,,,,,,,,,,0.025,,,,,,,,,,Stimuli/psy_fixed_rotation_30_objects_occ0.7_0.9s/images/train/n02818832_3/n02818832_0/img_b05_ccm_contemporary_bed_max2013_b03_the_sofa_and_chair_company_-_stanley_bed_2014_2001_gray.jpg,n02818832_3,n02818832_0,fixed,0.732963,n04256520_5,Stimuli/psy_flexible_rotation_30_objects_occ0.7_0.9s/images/train/n04256520_4/n04256520_5/img_club_house_italia_nautilus_sofa_meridiani_belmondo_bench_sofa_2015-3_gray.png,random,flexible,n02818832_3,n02828884_4,Stimuli/canonical view 2/img_n02818832_3_gray.jpg,Stimuli/canonical view 2/img_n02828884_4_gray.jpg,random,left,Experiments/experiment_39/412.jpg,Experiments/experiment_39/413.jpg,Experiments/experiment_39/414.jpg,Experiments/experiment_39/415.jpg,913,1,2023-06-28_12h33.45.302,Occlusion_Psychophysics,2022.1.4,Win32,60.02040694,,,right,"[""right""]",[0.69889999997622],False,,0.0,0.0,3.0,3.0,3.0,1.0,,,,,,
,,,,,,,,,,,,,,,,,,,,,0.025,,,,,,,,,,Stimuli/psy_flexible_rotation_30_objects_occ0.7_0.9s/images/train/n02883344_0/n04379243_0/img_b03_box_17th_c._monastery_dining_table_2010_2012_gray.jpg,n02883344_0,n04379243_0,flexible,0.794416,n02828884_3,Stimuli/psy_flexible_rotation_30_objects_occ0.7_0.9s/images/train/n02818832_9/n02828884_3/img_bed01_blue_b04_wood_metal_park_bench_2009-3_gray.png,random,flexible,n02883344_0,n04405907_9,Stimuli/canonical view 2/img_n02883344_0_gray.jpg,Stimuli/canonical view 2/img_n04405907_9_gray.jpg,random,right,Experiments/experiment_39/416.jpg,Experiments/experiment_39/417.jpg,Experiments/experiment_39/418.jpg,Experiments/experiment_39/419.jpg,913,1,2023-06-28_12h33.45.302,Occlusion_Psychophysics,2022.1.4,Win32,60.02040694,,,left,"[""left""]",[0.7798999999761236],False,,0.0,0.0,4.0,4.0,4.0,1.0,,,,,,
,,,,,,,,,,,,,,,,,,,,,0.05,,,,,,,,,,Stimuli/psy_fixed_rotation_30_objects_occ0.7_0.9s/images/train/n02818832_9/n02933112_-2/img_bed01_blue_sink_base_white_wood_2010_gray.jpg,n02818832_9,n02933112_-2,fixed,0.74818,n02933112_-2,Stimuli/psy_fixed_rotation_30_objects_occ0.7_0.9s/images/train/n02818832_9/n02933112_-2/img_bed01_blue_sink_base_white_wood_2010-3_gray.png,foreground,same as foreground,n02818832_9,n03928116_0,Stimuli/canonical view 2/img_n02818832_9_gray.jpg,Stimuli/canonical view 2/img_n03928116_0_gray.jpg,random,right,Experiments/experiment_39/420.jpg,Experiments/experiment_39/421.jpg,Experiments/experiment_39/422.jpg,Experiments/experiment_39/423.jpg,913,1,2023-06-28_12h33.45.302,Occlusion_Psychophysics,2022.1.4,Win32,60.02040694,,,right,"[""right""]",[0.5528999999761481],False,,0.0,0.0,5.0,5.0,5.0,1.0,,,,,,
,,,,,,,,,,,,,,,,,,,,,0.025,,,,,,,,,,Stimuli/psy_fixed_rotation_30_objects_occ0.7_0.9s/images/train/n03001627_-2/n04256520_9/img_wood_chair_napoleon_iii_sofa_2012_gray.jpg,n03001627_-2,n04256520_9,fixed,0.744357,n03928116_0,Stimuli/psy_flexible_rotation_30_objects_occ0.7_0.9s/images/train/n03001627_9/n03928116_0/img_chair_eames_plastic_armchair_b02_piano_2015-3_gray.png,random,flexible,n03001627_-2,n04256520_9,Stimuli/canonical view 2/img_n03001627_-2_gray.jpg,Stimuli/canonical view 2/img_n04256520_9_gray.jpg,foreground,left,Experiments/experiment_39/424.jpg,Experiments/experiment_39/425.jpg,Experiments/experiment_39/426.jpg,Experiments/experiment_39/427.jpg,913,1,2023-06-28_12h33.45.302,Occlusion_Psychophysics,2022.1.4,Win32,60.02040694,,,right,"[""right""]",[0.7827999999523172],False,,0.0,0.0,6.0,6.0,6.0,1.0,,,,,,
,,,,,,,,,,,,,,,,,,,,,0.025,,,,,,,,,,Stimuli/psy_flexible_rotation_30_objects_occ0.7_0.9s/images/train/n04379243_0/n04405907_9/img_17th_c._monastery_dining_table_2010_vray_004_2007_gray.jpg,n04379243_0,n04405907_9,flexible,0.746778,n02933112_-18,Stimuli/psy_flexible_rotation_30_objects_occ0.7_0.9s/images/train/n02818832_9/n02933112_-18/img_bed01_blue_cgaxis_models_48_26_vray_composite_2005-3_gray.png,random,flexible,n04379243_0,n04405907_9,Stimuli/canonical view 2/img_n04379243_0_gray.jpg,Stimuli/canonical view 2/img_n04405907_9_gray.jpg,foreground,right,Experiments/experiment_39/428.jpg,Experiments/experiment_39/429.jpg,Experiments/experiment_39/430.jpg,Experiments/experiment_39/431.jpg,913,1,2023-06-28_12h33.45.302,Occlusion_Psychophysics,2022.1.4,Win32,60.02040694,,,left,"[""left""]",[0.5155999999045662],False,,0.0,0.0,7.0,7.0,7.0,1.0,,,,,,
,,,,,,,,,,,,,,,,,,,,,0.025,,,,,,,,,,Stimuli/psy_fixed_rotation_30_objects_occ0.7_0.9s/images/train/n04379243_8/n02828884_4/img_glass_table_b05_c-5_classic_series_bench-2012_2000_gray.jpg,n04379243_8,n02828884_4,fixed,0.80322,n02818832_3,Stimuli/psy_fixed_rotation_30_objects_occ0.7_0.9s/images/train/n04070727_5/n02818832_3/img_b05_db_apps_tech_06_13_composite_b05_ccm_contemporary_bed_max2013_2006-3_gray.png,random,fixed,n04379243_8,n03001627_8,Stimuli/canonical view 2/img_n04379243_8_gray.jpg,Stimuli/canonical view 2/img_n03001627_8_gray.jpg,random,right,Experiments/experiment_39/432.jpg,Experiments/experiment_39/433.jpg,Experiments/experiment_39/434.jpg,Experiments/experiment_39/435.jpg,913,1,2023-06-28_12h33.45.302,Occlusion_Psychophysics,2022.1.4,Win32,60.02040694,,,right,"[""right""]",[0.80339999997625],False,,0.0,0.0,8.0,8.0,8.0,1.0,,,,,,
,,,,,,,,,,,,,,,,,,,,,0.05,,,,,,,,,,Stimuli/psy_flexible_rotation_30_objects_occ0.7_0.9s/images/train/n04256520_9/n02933112_4/img_napoleon_iii_sofa_buffet_2000_gray.jpg,n04256520_9,n02933112_4,flexible,0.723904,n02883344_15,Stimuli/psy_flexible_rotation_30_objects_occ0.7_0.9s/images/train/n02828884_4/n02883344_15/img_b05_c-5_classic_series_bench-2012_microwave_box_2001-3_gray.png,random,flexible,n04256520_9,n03928116_10,Stimuli/canonical view 2/img_n04256520_9_gray.jpg,Stimuli/canonical view 2/img_n03928116_10_gray.jpg,random,left,Experiments/experiment_39/436.jpg,Experiments/experiment_39/437.jpg,Experiments/experiment_39/438.jpg,Experiments/experiment_39/439.jpg,913,1,2023-06-28_12h33.45.302,Occlusion_Psychophysics,2022.1.4,Win32,60.02040694,,,right,"[""right""]",[0.7111999999285672],False,,0.0,0.0,9.0,9.0,9.0,1.0,,,,,,
,,,,,,,,,,,,,,,,,,,,,0.025,,,,,,,,,,Stimuli/psy_flexible_rotation_30_objects_occ0.7_0.9s/images/train/n02828884_3/n02883344_15/img_b04_wood_metal_park_bench_microwave_box_2012_gray.jpg,n02828884_3,n02883344_15,flexible,0.748871,n04379243_8,Stimuli/psy_fixed_rotation_30_objects_occ0.7_0.9s/images/train/n02818832_9/n04379243_8/img_bed01_blue_glass_table_2009-3_gray.png,random,fixed,n02828884_3,n03001627_8,Stimuli/canonical view 2/img_n02828884_3_gray.jpg,Stimuli/canonical view 2/img_n03001627_8_gray.jpg,random,left,Experiments/experiment_39/440.jpg,Experiments/experiment_39/441.jpg,Experiments/experiment_39/442.jpg,Experiments/experiment_39/443.jpg,913,1,2023-06-28_12h33.45.302,Occlusion_Psychophysics,2022.1.4,Win32,60.02040694,,,right,"[""right""]",[0.6235999999046271],False,,0.0,0.0,10.0,10.0,10.0,1.0,,,,,,
,,,,,,,,,,,,,,,,,,,,,0.025,,,,,,,,,,Stimuli/psy_fixed_rotation_30_objects_occ0.7_0.9s/images/train/n02818832_0/n04405907_9/img_b03_the_sofa_and_chair_company_-_stanley_bed_2014_vray_004_2006_gray.jpg,n02818832_0,n04405907_9,fixed,0.706622,n02818832_9,Stimuli/psy_fixed_rotation_30_objects_occ0.7_0.9s/images/train/n02883344_15/n02818832_9/img_microwave_box_bed01_blue_2008-3_gray.png,random,fixed,n02818832_0,n04379243_0,Stimuli/canonical view 2/img_n02818832_0_gray.jpg,Stimuli/canonical view 2/img_n04379243_0_gray.jpg,random,right,Experiments/experiment_39/444.jpg,Experiments/experiment_39/445.jpg,Experiments/experiment_39/446.jpg,Experiments/experiment_39/447.jpg,913,1,2023-06-28_12h33.45.302,Occlusion_Psychophysics,2022.1.4,Win32,60.02040694,,,left,"[""right""]",[0.7534999999999172],False,,0.0,0.0,11.0,11.0,11.0,1.0,,,,,,
,,,,,,,,,,,,,,,,,,,,,0.05,,,,,,,,,,Stimuli/psy_flexible_rotation_30_objects_occ0.7_0.9s/images/train/n02883344_0/n04405907_9/img_b03_box_vray_004_2002_gray.jpg,n02883344_0,n04405907_9,flexible,0.724785,n02933112_-18,Stimuli/psy_flexible_rotation_30_objects_occ0.7_0.9s/images/train/n02818832_0/n02933112_-18/img_b03_the_sofa_and_chair_company_-_stanley_bed_2014_cgaxis_models_48_26_vray_composite_2010-3_gray.png,random,flexible,n02883344_0,n04405907_9,Stimuli/canonical view 2/img_n02883344_0_gray.jpg,Stimuli/canonical view 2/img_n04405907_9_gray.jpg,foreground,left,Experiments/experiment_39/448.jpg,Experiments/experiment_39/449.jpg,Experiments/experiment_39/450.jpg,Experiments/experiment_39/451.jpg,913,1,2023-06-28_12h33.45.302,Occlusion_Psychophysics,2022.1.4,Win32,60.02040694,,,left,"[""left""]",[0.5372999999523245],False,,0.0,0.0,12.0,12.0,12.0,1.0,,,,,,
,,,,,,,,,,,,,,,,,,,,,0.025,,,,,,,,,,Stimuli/psy_flexible_rotation_30_objects_occ0.7_0.9s/images/train/n04405907_8/n02883344_0/img_stylized_tv_b03_box_2013_gray.jpg,n04405907_8,n02883344_0,flexible,0.884454,n02883344_0,Stimuli/psy_flexible_rotation_30_objects_occ0.7_0.9s/images/train/n04405907_8/n02883344_0/img_stylized_tv_b03_box_2013-3_gray.png,foreground,same as foreground,n04405907_8,n02883344_0,Stimuli/canonical view 2/img_n04405907_8_gray.jpg,Stimuli/canonical view 2/img_n02883344_0_gray.jpg,foreground,left,Experiments/experiment_39/452.jpg,Experiments/experiment_39/453.jpg,Experiments/experiment_39/454.jpg,Experiments/experiment_39/455.jpg,913,1,2023-06-28_12h33.45.302,Occlusion_Psychophysics,2022.1.4,Win32,60.02040694,,,left,"[""right""]",[0.7367999999523818],False,,0.0,0.0,13.0,13.0,13.0,1.0,,,,,,
