in_color,Instructions_key.keys,Instructions_key.rt,Tutorial_instruction_key.keys,Tutorial_instruction_key.rt,Tutorial_fixation_ley.keys,Tutorial_fixation_ley.rt,Tutorial_single_img_key.keys,Tutorial_single_img_key.rt,Tutorial_intra_trial_fixation_key.keys,Tutorial_intra_trial_fixation_key.rt,Tutorial_stimulus_key.keys,Tutorial_stimulus_key.rt,Tutorial_response_key.keys,Tutorial_response_key.rt,Tutorial_attention_check_key.keys,Tutorial_attention_check_key.rt,advance_or_repeat.keys,advance_or_repeat.rt,Practice_instructions_key.keys,Practice_instructions_key.rt,intra_trial_duration,Practice_key_response.keys,Practice_key_response.rt,Practice_react_key.keys,Practice_react_key.rt,Practice_loop.thisRepN,Practice_loop.thisTrialN,Practice_loop.thisN,Practice_loop.thisIndex,Practice_loop.ran,multi_object_filepath,background_id,foreground_id,multi_object_rotation,occlusion_level,single_object_id,single_object_filepath,single_is_foreground_or_random,single_object_rotation,background_choice_id,alt_choice_id,background_option_filepath,alternative_option_filepath,alternative_is_foreground_or_random,location_of_correct_answer,multi_object_exp_filename,single_object_exp_filename,background_option_exp_filename,alternative_option_exp_filename,participant,session,date,expName,psychopyVersion,OS,frameRate,Practice_end_key.keys,Practice_end_key.rt,correct_answer,Input_selection.keys,Input_selection.rt,Was_attention_check,Attention_check.keys,Attention_check.corr,Each_session_loop.thisRepN,Each_session_loop.thisTrialN,Each_session_loop.thisN,Each_session_loop.thisIndex,Each_session_loop.ran,Attention_check.rt,Num_sessions.thisRepN,Num_sessions.thisTrialN,Num_sessions.thisN,Num_sessions.thisIndex,Num_sessions.ran
False,space,76.7912,space,10.7507,space,13.6866,space,10.827,space,5.8453,space,20.4343,left,2.7182,right,25.937,a,15.1663,space,8.8443,0.05,right,2.3588,a,9.6581,0.0,0.0,0.0,0.0,1.0,Stimuli/psy_flexible_rotation_30_objects_occ0.7_0.9s/images/train/n04405907_9/n04405907_8/img_vray_004_stylized_tv_2010_gray.jpg,n04405907_9,n04405907_8,flexible,0.796836,n04405907_8,Stimuli/psy_flexible_rotation_30_objects_occ0.7_0.9s/images/train/n04405907_9/n04405907_8/img_vray_004_stylized_tv_2010-3_gray.png,foreground,same as foreground,n04405907_9,n02818832_3,Stimuli/canonical view 2/img_n04405907_9_gray.jpg,Stimuli/canonical view 2/img_n02818832_3_gray.jpg,random,left,Experiments/experiment_42/1000.jpg,Experiments/experiment_42/1001.jpg,Experiments/experiment_42/1002.jpg,Experiments/experiment_42/1003.jpg,923,1,2023-09-17_11h45.29.716,Occlusion_Psychophysics,2022.1.4,Win32,55.78489345,,,,,,,,,,,,,,,,,,,
,,,,,,,,,,,,,,,,,,,,,0.025,,,,,,,,,,Stimuli/psy_fixed_rotation_30_objects_occ0.7_0.9s/images/train/n04405907_9/n04256520_5/img_vray_004_meridiani_belmondo_bench_sofa_2008_gray.jpg,n04405907_9,n04256520_5,fixed,0.809341,n04379243_-7,Stimuli/psy_flexible_rotation_30_objects_occ0.7_0.9s/images/train/n03928116_10/n04379243_-7/img_ydp_103_r_2012__vray_quatre_dining_table_2002-3_gray.png,random,flexible,n04405907_9,n04256520_5,Stimuli/canonical view 2/img_n04405907_9_gray.jpg,Stimuli/canonical view 2/img_n04256520_5_gray.jpg,foreground,right,Experiments/experiment_42/0.jpg,Experiments/experiment_42/1.jpg,Experiments/experiment_42/2.jpg,Experiments/experiment_42/3.jpg,923,1,2023-09-17_11h45.29.716,Occlusion_Psychophysics,2022.1.4,Win32,55.78489345,space,3.167,left,"[""right""]",[1.3249000000058686],False,,0.0,0.0,0.0,0.0,0.0,1.0,,,,,,
,,,,,,,,,,,,,,,,,,,,,0.025,,,,,,,,,,Stimuli/psy_fixed_rotation_30_objects_occ0.7_0.9s/images/train/n02933112_4/n04379243_0/img_buffet_17th_c._monastery_dining_table_2010_2009_gray.jpg,n02933112_4,n04379243_0,fixed,0.793746,n04379243_0,Stimuli/psy_fixed_rotation_30_objects_occ0.7_0.9s/images/train/n02933112_4/n04379243_0/img_buffet_17th_c._monastery_dining_table_2010_2009-3_gray.png,foreground,same as foreground,n02933112_4,n03928116_4,Stimuli/canonical view 2/img_n02933112_4_gray.jpg,Stimuli/canonical view 2/img_n03928116_4_gray.jpg,random,right,Experiments/experiment_42/4.jpg,Experiments/experiment_42/5.jpg,Experiments/experiment_42/6.jpg,Experiments/experiment_42/7.jpg,923,1,2023-09-17_11h45.29.716,Occlusion_Psychophysics,2022.1.4,Win32,55.78489345,,,right,"[""left""]",[2.8257000000029393],False,,0.0,0.0,1.0,1.0,1.0,1.0,,,,,,
,,,,,,,,,,,,,,,,,,,,,0.05,,,,,,,,,,Stimuli/psy_flexible_rotation_30_objects_occ0.7_0.9s/images/train/n03001627_8/n02883344_0/img_chair_billiani_doll_b03_box_2005_gray.jpg,n03001627_8,n02883344_0,flexible,0.704974,n02883344_0,Stimuli/psy_flexible_rotation_30_objects_occ0.7_0.9s/images/train/n03001627_8/n02883344_0/img_chair_billiani_doll_b03_box_2005-3_gray.png,foreground,same as foreground,n03001627_8,n02883344_0,Stimuli/canonical view 2/img_n03001627_8_gray.jpg,Stimuli/canonical view 2/img_n02883344_0_gray.jpg,foreground,left,Experiments/experiment_42/8.jpg,Experiments/experiment_42/9.jpg,Experiments/experiment_42/10.jpg,Experiments/experiment_42/11.jpg,923,1,2023-09-17_11h45.29.716,Occlusion_Psychophysics,2022.1.4,Win32,55.78489345,,,left,"[""right""]",[1.122399999991103],False,,0.0,0.0,2.0,2.0,2.0,1.0,,,,,,
,,,,,,,,,,,,,,,,,,,,,0.05,,,,,,,,,,Stimuli/psy_fixed_rotation_30_objects_occ0.7_0.9s/images/train/n02828884_9/n02933112_-18/img_cr-96_bench_cgaxis_models_48_26_vray_composite_2012_gray.jpg,n02828884_9,n02933112_-18,fixed,0.790779,n02933112_-18,Stimuli/psy_fixed_rotation_30_objects_occ0.7_0.9s/images/train/n02828884_9/n02933112_-18/img_cr-96_bench_cgaxis_models_48_26_vray_composite_2012-3_gray.png,foreground,same as foreground,n02828884_9,n02933112_-18,Stimuli/canonical view 2/img_n02828884_9_gray.jpg,Stimuli/canonical view 2/img_n02933112_-18_gray.jpg,foreground,left,Experiments/experiment_42/12.jpg,Experiments/experiment_42/13.jpg,Experiments/experiment_42/14.jpg,Experiments/experiment_42/15.jpg,923,1,2023-09-17_11h45.29.716,Occlusion_Psychophysics,2022.1.4,Win32,55.78489345,,,left,"[""right""]",[1.1472000000029539],False,,0.0,0.0,3.0,3.0,3.0,1.0,,,,,,
,,,,,,,,,,,,,,,,,,,,,0.025,,,,,,,,,,Stimuli/psy_fixed_rotation_30_objects_occ0.7_0.9s/images/train/n04256520_5/n04379243_8/img_meridiani_belmondo_bench_sofa_glass_table_2013_gray.jpg,n04256520_5,n04379243_8,fixed,0.717438,n04379243_8,Stimuli/psy_fixed_rotation_30_objects_occ0.7_0.9s/images/train/n04256520_5/n04379243_8/img_meridiani_belmondo_bench_sofa_glass_table_2013-3_gray.png,foreground,same as foreground,n04256520_5,n03928116_0,Stimuli/canonical view 2/img_n04256520_5_gray.jpg,Stimuli/canonical view 2/img_n03928116_0_gray.jpg,random,right,Experiments/experiment_42/16.jpg,Experiments/experiment_42/17.jpg,Experiments/experiment_42/18.jpg,Experiments/experiment_42/19.jpg,923,1,2023-09-17_11h45.29.716,Occlusion_Psychophysics,2022.1.4,Win32,55.78489345,,,left,"[""right""]",[2.054700000002981],False,,0.0,0.0,4.0,4.0,4.0,1.0,,,,,,
,,,,,,,,,,,,,,,,,,,,,0.025,,,,,,,,,,Stimuli/psy_fixed_rotation_30_objects_occ0.7_0.9s/images/train/n03928116_10/n02828884_3/img_ydp_103_r_2012__vray_b04_wood_metal_park_bench_2007_gray.jpg,n03928116_10,n02828884_3,fixed,0.709885,n02828884_3,Stimuli/psy_fixed_rotation_30_objects_occ0.7_0.9s/images/train/n03928116_10/n02828884_3/img_ydp_103_r_2012__vray_b04_wood_metal_park_bench_2007-3_gray.png,foreground,same as foreground,n03928116_10,n03928116_4,Stimuli/canonical view 2/img_n03928116_10_gray.jpg,Stimuli/canonical view 2/img_n03928116_4_gray.jpg,random,right,Experiments/experiment_42/20.jpg,Experiments/experiment_42/21.jpg,Experiments/experiment_42/22.jpg,Experiments/experiment_42/23.jpg,923,1,2023-09-17_11h45.29.716,Occlusion_Psychophysics,2022.1.4,Win32,55.78489345,,,left,"[""left""]",[2.733699999988062],False,,0.0,0.0,5.0,5.0,5.0,1.0,,,,,,
,,,,,,,,,,,,,,,,,,,,,0.025,,,,,,,,,,Stimuli/psy_fixed_rotation_30_objects_occ0.7_0.9s/images/train/n04256520_5/n04379243_8/img_meridiani_belmondo_bench_sofa_glass_table_2014_gray.jpg,n04256520_5,n04379243_8,fixed,0.725726,n02883344_-1,Stimuli/psy_flexible_rotation_30_objects_occ0.7_0.9s/images/train/n02818832_0/n02883344_-1/img_b03_the_sofa_and_chair_company_-_stanley_bed_2014_woven_box_2009-3_gray.png,random,flexible,n04256520_5,n04379243_8,Stimuli/canonical view 2/img_n04256520_5_gray.jpg,Stimuli/canonical view 2/img_n04379243_8_gray.jpg,foreground,right,Experiments/experiment_42/24.jpg,Experiments/experiment_42/25.jpg,Experiments/experiment_42/26.jpg,Experiments/experiment_42/27.jpg,923,1,2023-09-17_11h45.29.716,Occlusion_Psychophysics,2022.1.4,Win32,55.78489345,,,left,"[""right""]",[1.2204000000059523],False,,0.0,0.0,6.0,6.0,6.0,1.0,,,,,,
,,,,,,,,,,,,,,,,,,,,,0.05,,,,,,,,,,Stimuli/psy_fixed_rotation_30_objects_occ0.7_0.9s/images/train/n04405907_9/n02933112_-18/img_vray_004_cgaxis_models_48_26_vray_composite_2004_gray.jpg,n04405907_9,n02933112_-18,fixed,0.750256,n02933112_-18,Stimuli/psy_fixed_rotation_30_objects_occ0.7_0.9s/images/train/n04405907_9/n02933112_-18/img_vray_004_cgaxis_models_48_26_vray_composite_2004-3_gray.png,foreground,same as foreground,n04405907_9,n03928116_10,Stimuli/canonical view 2/img_n04405907_9_gray.jpg,Stimuli/canonical view 2/img_n03928116_10_gray.jpg,random,left,Experiments/experiment_42/28.jpg,Experiments/experiment_42/29.jpg,Experiments/experiment_42/30.jpg,Experiments/experiment_42/31.jpg,923,1,2023-09-17_11h45.29.716,Occlusion_Psychophysics,2022.1.4,Win32,55.78489345,,,left,"[""right""]",[1.3764000000059013],False,,0.0,0.0,7.0,7.0,7.0,1.0,,,,,,
,,,,,,,,,,,,,,,,,,,,,0.05,,,,,,,,,,Stimuli/psy_flexible_rotation_30_objects_occ0.7_0.9s/images/train/n04379243_-7/n03928116_4/img_quatre_dining_table_dp_33_b_2013__vray_2013_gray.jpg,n04379243_-7,n03928116_4,flexible,0.739604,n03928116_10,Stimuli/psy_flexible_rotation_30_objects_occ0.7_0.9s/images/train/n04379243_0/n03928116_10/img_17th_c._monastery_dining_table_2010_ydp_103_r_2012__vray_2000-3_gray.png,random,flexible,n04379243_-7,n03928116_4,Stimuli/canonical view 2/img_n04379243_-7_gray.jpg,Stimuli/canonical view 2/img_n03928116_4_gray.jpg,foreground,right,Experiments/experiment_42/32.jpg,Experiments/experiment_42/33.jpg,Experiments/experiment_42/34.jpg,Experiments/experiment_42/35.jpg,923,1,2023-09-17_11h45.29.716,Occlusion_Psychophysics,2022.1.4,Win32,55.78489345,,,left,"[""right""]",[1.0810999999940805],False,,0.0,0.0,8.0,8.0,8.0,1.0,,,,,,
,,,,,,,,,,,,,,,,,,,,,0.05,,,,,,,,,,Stimuli/psy_fixed_rotation_30_objects_occ0.7_0.9s/images/train/n02883344_15/n04405907_8/img_microwave_box_stylized_tv_2004_gray.jpg,n02883344_15,n04405907_8,fixed,0.87648,n04256520_4,Stimuli/psy_flexible_rotation_30_objects_occ0.7_0.9s/images/train/n03928116_10/n04256520_4/img_ydp_103_r_2012__vray_club_house_italia_nautilus_sofa_2004-3_gray.png,random,flexible,n02883344_15,n04405907_8,Stimuli/canonical view 2/img_n02883344_15_gray.jpg,Stimuli/canonical view 2/img_n04405907_8_gray.jpg,foreground,right,Experiments/experiment_42/36.jpg,Experiments/experiment_42/37.jpg,Experiments/experiment_42/38.jpg,Experiments/experiment_42/39.jpg,923,1,2023-09-17_11h45.29.716,Occlusion_Psychophysics,2022.1.4,Win32,55.78489345,,,right,"[""left""]",[1.4442000000029793],False,,0.0,0.0,9.0,9.0,9.0,1.0,,,,,,
,,,,,,,,,,,,,,,,,,,,,0.05,,,,,,,,,,Stimuli/psy_flexible_rotation_30_objects_occ0.7_0.9s/images/train/n03928116_4/n04256520_9/img_dp_33_b_2013__vray_napoleon_iii_sofa_2009_gray.jpg,n03928116_4,n04256520_9,flexible,0.758094,n02933112_4,Stimuli/psy_flexible_rotation_30_objects_occ0.7_0.9s/images/train/n03001627_9/n02933112_4/img_chair_eames_plastic_armchair_buffet_2007-3_gray.png,random,flexible,n03928116_4,n04256520_9,Stimuli/canonical view 2/img_n03928116_4_gray.jpg,Stimuli/canonical view 2/img_n04256520_9_gray.jpg,foreground,right,Experiments/experiment_42/40.jpg,Experiments/experiment_42/41.jpg,Experiments/experiment_42/42.jpg,Experiments/experiment_42/43.jpg,923,1,2023-09-17_11h45.29.716,Occlusion_Psychophysics,2022.1.4,Win32,55.78489345,,,left,"[""left""]",[1.2801000000089289],False,,0.0,0.0,10.0,10.0,10.0,1.0,,,,,,
,,,,,,,,,,,,,,,,,,,,,0.05,,,,,,,,,,Stimuli/psy_flexible_rotation_30_objects_occ0.7_0.9s/images/train/n04379243_8/n04379243_-7/img_glass_table_quatre_dining_table_2005_gray.jpg,n04379243_8,n04379243_-7,flexible,0.754895,n04379243_-7,Stimuli/psy_flexible_rotation_30_objects_occ0.7_0.9s/images/train/n04379243_8/n04379243_-7/img_glass_table_quatre_dining_table_2005-3_gray.png,foreground,same as foreground,n04379243_8,n04379243_-7,Stimuli/canonical view 2/img_n04379243_8_gray.jpg,Stimuli/canonical view 2/img_n04379243_-7_gray.jpg,foreground,left,Experiments/experiment_42/44.jpg,Experiments/experiment_42/45.jpg,Experiments/experiment_42/46.jpg,Experiments/experiment_42/47.jpg,923,1,2023-09-17_11h45.29.716,Occlusion_Psychophysics,2022.1.4,Win32,55.78489345,,,right,"[""right""]",[1.2977999999970962],False,,0.0,0.0,11.0,11.0,11.0,1.0,,,,,,
,,,,,,,,,,,,,,,,,,,,,0.05,,,,,,,,,,Stimuli/psy_flexible_rotation_30_objects_occ0.7_0.9s/images/train/n04405907_8/n03001627_9/img_stylized_tv_chair_eames_plastic_armchair_2013_gray.jpg,n04405907_8,n03001627_9,flexible,0.844856,n04405907_9,Stimuli/psy_fixed_rotation_30_objects_occ0.7_0.9s/images/train/n02818832_0/n04405907_9/img_b03_the_sofa_and_chair_company_-_stanley_bed_2014_vray_004_2015-3_gray.png,random,fixed,n04405907_8,n02828884_3,Stimuli/canonical view 2/img_n04405907_8_gray.jpg,Stimuli/canonical view 2/img_n02828884_3_gray.jpg,random,right,Experiments/experiment_42/48.jpg,Experiments/experiment_42/49.jpg,Experiments/experiment_42/50.jpg,Experiments/experiment_42/51.jpg,923,1,2023-09-17_11h45.29.716,Occlusion_Psychophysics,2022.1.4,Win32,55.78489345,,,left,"[""left""]",[1.1059999999999945],False,,0.0,0.0,12.0,12.0,12.0,1.0,,,,,,
,,,,,,,,,,,,,,,,,,,,,0.05,,,,,,,,,,Stimuli/psy_fixed_rotation_30_objects_occ0.7_0.9s/images/train/n03928116_10/n03928116_0/img_ydp_103_r_2012__vray_b02_piano_2000_gray.jpg,n03928116_10,n03928116_0,fixed,0.700246,n02933112_4,Stimuli/psy_fixed_rotation_30_objects_occ0.7_0.9s/images/train/n03928116_4/n02933112_4/img_dp_33_b_2013__vray_buffet_2010-3_gray.png,random,fixed,n03928116_10,n02933112_4,Stimuli/canonical view 2/img_n03928116_10_gray.jpg,Stimuli/canonical view 2/img_n02933112_4_gray.jpg,random,right,Experiments/experiment_42/52.jpg,Experiments/experiment_42/53.jpg,Experiments/experiment_42/54.jpg,Experiments/experiment_42/55.jpg,923,1,2023-09-17_11h45.29.716,Occlusion_Psychophysics,2022.1.4,Win32,55.78489345,,,right,"[""left""]",[1.2648999999910302],False,,0.0,0.0,13.0,13.0,13.0,1.0,,,,,,
,,,,,,,,,,,,,,,,,,,,,0.05,,,,,,,,,,Stimuli/psy_fixed_rotation_30_objects_occ0.7_0.9s/images/train/n02933112_4/n04405907_5/img_buffet_samsung_40_uhd_smart_tv_2011_2009_gray.jpg,n02933112_4,n04405907_5,fixed,0.72164,n04405907_5,Stimuli/psy_fixed_rotation_30_objects_occ0.7_0.9s/images/train/n02933112_4/n04405907_5/img_buffet_samsung_40_uhd_smart_tv_2011_2009-3_gray.png,foreground,same as foreground,n02933112_4,n03001627_-2,Stimuli/canonical view 2/img_n02933112_4_gray.jpg,Stimuli/canonical view 2/img_n03001627_-2_gray.jpg,random,left,Experiments/experiment_42/56.jpg,Experiments/experiment_42/57.jpg,Experiments/experiment_42/58.jpg,Experiments/experiment_42/59.jpg,923,1,2023-09-17_11h45.29.716,Occlusion_Psychophysics,2022.1.4,Win32,55.78489345,,,right,,,False,,0.0,0.0,14.0,14.0,14.0,1.0,,,,,,
,,,,,,,,,,,,,,,,,,,,,0.05,,,,,,,,,,Stimuli/psy_flexible_rotation_30_objects_occ0.7_0.9s/images/train/n03928116_10/n04256520_5/img_ydp_103_r_2012__vray_meridiani_belmondo_bench_sofa_2000_gray.jpg,n03928116_10,n04256520_5,flexible,0.770731,n04256520_9,Stimuli/psy_fixed_rotation_30_objects_occ0.7_0.9s/images/train/n04256520_5/n04256520_9/img_meridiani_belmondo_bench_sofa_napoleon_iii_sofa_2004-3_gray.png,random,fixed,n03928116_10,n04256520_5,Stimuli/canonical view 2/img_n03928116_10_gray.jpg,Stimuli/canonical view 2/img_n04256520_5_gray.jpg,foreground,left,Experiments/experiment_42/60.jpg,Experiments/experiment_42/61.jpg,Experiments/experiment_42/62.jpg,Experiments/experiment_42/63.jpg,923,1,2023-09-17_11h45.29.716,Occlusion_Psychophysics,2022.1.4,Win32,55.78489345,,,left,"[""right""]",[1.1086000000088916],False,,0.0,0.0,15.0,15.0,15.0,1.0,,,,,,
,,,,,,,,,,,,,,,,,,,,,0.025,,,,,,,,,,Stimuli/psy_flexible_rotation_30_objects_occ0.7_0.9s/images/train/n04256520_5/n04256520_9/img_meridiani_belmondo_bench_sofa_napoleon_iii_sofa_2004_gray.jpg,n04256520_5,n04256520_9,flexible,0.823057,n04405907_5,Stimuli/psy_fixed_rotation_30_objects_occ0.7_0.9s/images/train/n02933112_-2/n04405907_5/img_sink_base_white_wood_samsung_40_uhd_smart_tv_2011_2008-3_gray.png,random,fixed,n04256520_5,n02883344_15,Stimuli/canonical view 2/img_n04256520_5_gray.jpg,Stimuli/canonical view 2/img_n02883344_15_gray.jpg,random,right,Experiments/experiment_42/64.jpg,Experiments/experiment_42/65.jpg,Experiments/experiment_42/66.jpg,Experiments/experiment_42/67.jpg,923,1,2023-09-17_11h45.29.716,Occlusion_Psychophysics,2022.1.4,Win32,55.78489345,,,left,,,False,,0.0,0.0,16.0,16.0,16.0,1.0,,,,,,
,,,,,,,,,,,,,,,,,,,,,0.025,,,,,,,,,,Stimuli/psy_flexible_rotation_30_objects_occ0.7_0.9s/images/train/n02828884_3/n04256520_9/img_b04_wood_metal_park_bench_napoleon_iii_sofa_2008_gray.jpg,n02828884_3,n04256520_9,flexible,0.718465,n04256520_9,Stimuli/psy_flexible_rotation_30_objects_occ0.7_0.9s/images/train/n02828884_3/n04256520_9/img_b04_wood_metal_park_bench_napoleon_iii_sofa_2008-3_gray.png,foreground,same as foreground,n02828884_3,n04256520_9,Stimuli/canonical view 2/img_n02828884_3_gray.jpg,Stimuli/canonical view 2/img_n04256520_9_gray.jpg,foreground,right,Experiments/experiment_42/68.jpg,Experiments/experiment_42/69.jpg,Experiments/experiment_42/70.jpg,Experiments/experiment_42/71.jpg,923,1,2023-09-17_11h45.29.716,Occlusion_Psychophysics,2022.1.4,Win32,55.78489345,,,left,"[""left""]",[1.5528999999911548],False,,0.0,0.0,17.0,17.0,17.0,1.0,,,,,,
,,,,,,,,,,,,,,,,,,,,,0.05,,,,,,,,,,Stimuli/psy_fixed_rotation_30_objects_occ0.7_0.9s/images/train/n03001627_-2/n03928116_0/img_wood_chair_b02_piano_2003_gray.jpg,n03001627_-2,n03928116_0,fixed,0.707499,n04379243_8,Stimuli/psy_flexible_rotation_30_objects_occ0.7_0.9s/images/train/n02828884_3/n04379243_8/img_b04_wood_metal_park_bench_glass_table_2012-3_gray.png,random,flexible,n03001627_-2,n04379243_0,Stimuli/canonical view 2/img_n03001627_-2_gray.jpg,Stimuli/canonical view 2/img_n04379243_0_gray.jpg,random,right,Experiments/experiment_42/72.jpg,Experiments/experiment_42/73.jpg,Experiments/experiment_42/74.jpg,Experiments/experiment_42/75.jpg,923,1,2023-09-17_11h45.29.716,Occlusion_Psychophysics,2022.1.4,Win32,55.78489345,,,left,"[""right""]",[1.2362000000030093],False,,0.0,0.0,18.0,18.0,18.0,1.0,,,,,,
,,,,,,,,,,,,,,,,,,,,,0.025,,,,,,,,,,Stimuli/psy_fixed_rotation_30_objects_occ0.7_0.9s/images/train/n02818832_3/n04379243_0/img_b05_ccm_contemporary_bed_max2013_17th_c._monastery_dining_table_2010_2010_gray.jpg,n02818832_3,n04379243_0,fixed,0.841883,n04379243_0,Stimuli/psy_fixed_rotation_30_objects_occ0.7_0.9s/images/train/n02818832_3/n04379243_0/img_b05_ccm_contemporary_bed_max2013_17th_c._monastery_dining_table_2010_2010-3_gray.png,foreground,same as foreground,n02818832_3,n02828884_3,Stimuli/canonical view 2/img_n02818832_3_gray.jpg,Stimuli/canonical view 2/img_n02828884_3_gray.jpg,random,right,Experiments/experiment_42/76.jpg,Experiments/experiment_42/77.jpg,Experiments/experiment_42/78.jpg,Experiments/experiment_42/79.jpg,923,1,2023-09-17_11h45.29.716,Occlusion_Psychophysics,2022.1.4,Win32,55.78489345,,,right,"[""left""]",[1.5416000000088843],False,,0.0,0.0,19.0,19.0,19.0,1.0,,,,,,
,,,,,,,,,,,,,,,,,,,,,0.05,,,,,,,,,,Stimuli/psy_flexible_rotation_30_objects_occ0.7_0.9s/images/train/n03928116_4/n02818832_9/img_dp_33_b_2013__vray_bed01_blue_2001_gray.jpg,n03928116_4,n02818832_9,flexible,0.776667,n02818832_0,Stimuli/psy_flexible_rotation_30_objects_occ0.7_0.9s/images/train/n02883344_-1/n02818832_0/img_woven_box_b03_the_sofa_and_chair_company_-_stanley_bed_2014_2002-3_gray.png,random,flexible,n03928116_4,n02818832_9,Stimuli/canonical view 2/img_n03928116_4_gray.jpg,Stimuli/canonical view 2/img_n02818832_9_gray.jpg,foreground,left,Experiments/experiment_42/80.jpg,Experiments/experiment_42/81.jpg,Experiments/experiment_42/82.jpg,Experiments/experiment_42/83.jpg,923,1,2023-09-17_11h45.29.716,Occlusion_Psychophysics,2022.1.4,Win32,55.78489345,,,right,"[""left""]",[1.2570000000000618],False,,0.0,0.0,20.0,20.0,20.0,1.0,,,,,,
,,,,,,,,,,,,,,,,,,,,,0.025,,,,,,,,,,Stimuli/psy_flexible_rotation_30_objects_occ0.7_0.9s/images/train/n03928116_0/n03001627_9/img_b02_piano_chair_eames_plastic_armchair_2004_gray.jpg,n03928116_0,n03001627_9,flexible,0.852953,n04405907_9,Stimuli/psy_flexible_rotation_30_objects_occ0.7_0.9s/images/train/n02933112_-2/n04405907_9/img_sink_base_white_wood_vray_004_2003-3_gray.png,random,flexible,n03928116_0,n02828884_4,Stimuli/canonical view 2/img_n03928116_0_gray.jpg,Stimuli/canonical view 2/img_n02828884_4_gray.jpg,random,left,Experiments/experiment_42/84.jpg,Experiments/experiment_42/85.jpg,Experiments/experiment_42/86.jpg,Experiments/experiment_42/87.jpg,923,1,2023-09-17_11h45.29.716,Occlusion_Psychophysics,2022.1.4,Win32,55.78489345,,,left,"[""left""]",[1.9907000000030166],False,,0.0,0.0,21.0,21.0,21.0,1.0,,,,,,
,,,,,,,,,,,,,,,,,,,,,0.025,,,,,,,,,,Stimuli/psy_fixed_rotation_30_objects_occ0.7_0.9s/images/train/n04256520_9/n02818832_0/img_napoleon_iii_sofa_b03_the_sofa_and_chair_company_-_stanley_bed_2014_2002_gray.jpg,n04256520_9,n02818832_0,fixed,0.71006,n02818832_0,Stimuli/psy_fixed_rotation_30_objects_occ0.7_0.9s/images/train/n04256520_9/n02818832_0/img_napoleon_iii_sofa_b03_the_sofa_and_chair_company_-_stanley_bed_2014_2002-3_gray.png,foreground,same as foreground,n04256520_9,n02818832_0,Stimuli/canonical view 2/img_n04256520_9_gray.jpg,Stimuli/canonical view 2/img_n02818832_0_gray.jpg,foreground,left,Experiments/experiment_42/88.jpg,Experiments/experiment_42/89.jpg,Experiments/experiment_42/90.jpg,Experiments/experiment_42/91.jpg,923,1,2023-09-17_11h45.29.716,Occlusion_Psychophysics,2022.1.4,Win32,55.78489345,,,right,"[""left""]",[1.1130000000000564],True,right,1.0,0.0,22.0,22.0,22.0,1.0,1.391,,,,,
,,,,,,,,,,,,,,,,,,,,,0.05,,,,,,,,,,Stimuli/psy_flexible_rotation_30_objects_occ0.7_0.9s/images/train/n04379243_8/n02933112_-18/img_glass_table_cgaxis_models_48_26_vray_composite_2006_gray.jpg,n04379243_8,n02933112_-18,flexible,0.812471,n02933112_-18,Stimuli/psy_flexible_rotation_30_objects_occ0.7_0.9s/images/train/n04379243_8/n02933112_-18/img_glass_table_cgaxis_models_48_26_vray_composite_2006-3_gray.png,foreground,same as foreground,n04379243_8,n04405907_9,Stimuli/canonical view 2/img_n04379243_8_gray.jpg,Stimuli/canonical view 2/img_n04405907_9_gray.jpg,random,left,Experiments/experiment_42/92.jpg,Experiments/experiment_42/93.jpg,Experiments/experiment_42/94.jpg,Experiments/experiment_42/95.jpg,923,1,2023-09-17_11h45.29.716,Occlusion_Psychophysics,2022.1.4,Win32,55.78489345,,,left,"[""left""]",[1.2297000000030494],False,,0.0,0.0,23.0,23.0,23.0,1.0,,,,,,
,,,,,,,,,,,,,,,,,,,,,0.025,,,,,,,,,,Stimuli/psy_flexible_rotation_30_objects_occ0.7_0.9s/images/train/n02818832_0/n03928116_0/img_b03_the_sofa_and_chair_company_-_stanley_bed_2014_b02_piano_2006_gray.jpg,n02818832_0,n03928116_0,flexible,0.737019,n03928116_0,Stimuli/psy_flexible_rotation_30_objects_occ0.7_0.9s/images/train/n02818832_0/n03928116_0/img_b03_the_sofa_and_chair_company_-_stanley_bed_2014_b02_piano_2006-3_gray.png,foreground,same as foreground,n02818832_0,n03928116_0,Stimuli/canonical view 2/img_n02818832_0_gray.jpg,Stimuli/canonical view 2/img_n03928116_0_gray.jpg,foreground,left,Experiments/experiment_42/96.jpg,Experiments/experiment_42/97.jpg,Experiments/experiment_42/98.jpg,Experiments/experiment_42/99.jpg,923,1,2023-09-17_11h45.29.716,Occlusion_Psychophysics,2022.1.4,Win32,55.78489345,,,right,"[""left""]",[1.1690000000000964],False,,0.0,0.0,24.0,24.0,24.0,1.0,,,,,,
,,,,,,,,,,,,,,,,,,,,,0.05,,,,,,,,,,Stimuli/psy_flexible_rotation_30_objects_occ0.7_0.9s/images/train/n04379243_0/n04405907_9/img_17th_c._monastery_dining_table_2010_vray_004_2012_gray.jpg,n04379243_0,n04405907_9,flexible,0.746527,n02883344_-1,Stimuli/psy_fixed_rotation_30_objects_occ0.7_0.9s/images/train/n03928116_10/n02883344_-1/img_ydp_103_r_2012__vray_woven_box_2001-3_gray.png,random,fixed,n04379243_0,n03001627_8,Stimuli/canonical view 2/img_n04379243_0_gray.jpg,Stimuli/canonical view 2/img_n03001627_8_gray.jpg,random,left,Experiments/experiment_42/100.jpg,Experiments/experiment_42/101.jpg,Experiments/experiment_42/102.jpg,Experiments/experiment_42/103.jpg,923,1,2023-09-17_11h45.29.716,Occlusion_Psychophysics,2022.1.4,Win32,55.78489345,,,left,"[""left""]",[1.301299999997127],False,,0.0,0.0,25.0,25.0,25.0,1.0,,,,,,
,,,,,,,,,,,,,,,,,,,,,0.025,,,,,,,,,,Stimuli/psy_flexible_rotation_30_objects_occ0.7_0.9s/images/train/n04379243_8/n02818832_0/img_glass_table_b03_the_sofa_and_chair_company_-_stanley_bed_2014_2001_gray.jpg,n04379243_8,n02818832_0,flexible,0.761621,n02818832_0,Stimuli/psy_flexible_rotation_30_objects_occ0.7_0.9s/images/train/n04379243_8/n02818832_0/img_glass_table_b03_the_sofa_and_chair_company_-_stanley_bed_2014_2001-3_gray.png,foreground,same as foreground,n04379243_8,n04256520_9,Stimuli/canonical view 2/img_n04379243_8_gray.jpg,Stimuli/canonical view 2/img_n04256520_9_gray.jpg,random,left,Experiments/experiment_42/104.jpg,Experiments/experiment_42/105.jpg,Experiments/experiment_42/106.jpg,Experiments/experiment_42/107.jpg,923,1,2023-09-17_11h45.29.716,Occlusion_Psychophysics,2022.1.4,Win32,55.78489345,,,left,"[""right""]",[1.1257000000030075],False,,0.0,0.0,26.0,26.0,26.0,1.0,,,,,,
,,,,,,,,,,,,,,,,,,,,,0.025,,,,,,,,,,Stimuli/psy_fixed_rotation_30_objects_occ0.7_0.9s/images/train/n04379243_0/n02828884_3/img_17th_c._monastery_dining_table_2010_b04_wood_metal_park_bench_2000_gray.jpg,n04379243_0,n02828884_3,fixed,0.711392,n04379243_8,Stimuli/psy_fixed_rotation_30_objects_occ0.7_0.9s/images/train/n02828884_4/n04379243_8/img_b05_c-5_classic_series_bench-2012_glass_table_2007-3_gray.png,random,fixed,n04379243_0,n03001627_8,Stimuli/canonical view 2/img_n04379243_0_gray.jpg,Stimuli/canonical view 2/img_n03001627_8_gray.jpg,random,left,Experiments/experiment_42/108.jpg,Experiments/experiment_42/109.jpg,Experiments/experiment_42/110.jpg,Experiments/experiment_42/111.jpg,923,1,2023-09-17_11h45.29.716,Occlusion_Psychophysics,2022.1.4,Win32,55.78489345,,,left,"[""left""]",[1.0332000000030348],False,,0.0,0.0,27.0,27.0,27.0,1.0,,,,,,
,,,,,,,,,,,,,,,,,,,,,0.05,,,,,,,,,,Stimuli/psy_fixed_rotation_30_objects_occ0.7_0.9s/images/train/n02818832_9/n03928116_10/img_bed01_blue_ydp_103_r_2012__vray_2006_gray.jpg,n02818832_9,n03928116_10,fixed,0.779633,n03928116_10,Stimuli/psy_fixed_rotation_30_objects_occ0.7_0.9s/images/train/n02818832_9/n03928116_10/img_bed01_blue_ydp_103_r_2012__vray_2006-3_gray.png,foreground,same as foreground,n02818832_9,n03928116_10,Stimuli/canonical view 2/img_n02818832_9_gray.jpg,Stimuli/canonical view 2/img_n03928116_10_gray.jpg,foreground,right,Experiments/experiment_42/112.jpg,Experiments/experiment_42/113.jpg,Experiments/experiment_42/114.jpg,Experiments/experiment_42/115.jpg,923,1,2023-09-17_11h45.29.716,Occlusion_Psychophysics,2022.1.4,Win32,55.78489345,,,left,"[""right""]",[1.0900999999939813],False,,0.0,0.0,28.0,28.0,28.0,1.0,,,,,,
,,,,,,,,,,,,,,,,,,,,,0.05,,,,,,,,,,Stimuli/psy_fixed_rotation_30_objects_occ0.7_0.9s/images/train/n02818832_9/n02933112_-18/img_bed01_blue_cgaxis_models_48_26_vray_composite_2008_gray.jpg,n02818832_9,n02933112_-18,fixed,0.760816,n03928116_10,Stimuli/psy_fixed_rotation_30_objects_occ0.7_0.9s/images/train/n04256520_4/n03928116_10/img_club_house_italia_nautilus_sofa_ydp_103_r_2012__vray_2001-3_gray.png,random,fixed,n02818832_9,n04256520_9,Stimuli/canonical view 2/img_n02818832_9_gray.jpg,Stimuli/canonical view 2/img_n04256520_9_gray.jpg,random,right,Experiments/experiment_42/116.jpg,Experiments/experiment_42/117.jpg,Experiments/experiment_42/118.jpg,Experiments/experiment_42/119.jpg,923,1,2023-09-17_11h45.29.716,Occlusion_Psychophysics,2022.1.4,Win32,55.78489345,,,left,"[""left""]",[1.7512000000031094],False,,0.0,0.0,29.0,29.0,29.0,1.0,,,,,,
,,,,,,,,,,,,,,,,,,,,,0.025,,,,,,,,,,Stimuli/psy_fixed_rotation_30_objects_occ0.7_0.9s/images/train/n02818832_0/n02828884_4/img_b03_the_sofa_and_chair_company_-_stanley_bed_2014_b05_c-5_classic_series_bench-2012_2003_gray.jpg,n02818832_0,n02828884_4,fixed,0.776052,n04379243_8,Stimuli/psy_fixed_rotation_30_objects_occ0.7_0.9s/images/train/n04379243_0/n04379243_8/img_17th_c._monastery_dining_table_2010_glass_table_2001-3_gray.png,random,fixed,n02818832_0,n02828884_4,Stimuli/canonical view 2/img_n02818832_0_gray.jpg,Stimuli/canonical view 2/img_n02828884_4_gray.jpg,foreground,right,Experiments/experiment_42/120.jpg,Experiments/experiment_42/121.jpg,Experiments/experiment_42/122.jpg,Experiments/experiment_42/123.jpg,923,1,2023-09-17_11h45.29.716,Occlusion_Psychophysics,2022.1.4,Win32,55.78489345,,,left,"[""right""]",[1.3467000000030112],False,,0.0,0.0,30.0,30.0,30.0,1.0,,,,,,
,,,,,,,,,,,,,,,,,,,,,0.025,,,,,,,,,,Stimuli/psy_flexible_rotation_30_objects_occ0.7_0.9s/images/train/n02828884_3/n04379243_8/img_b04_wood_metal_park_bench_glass_table_2004_gray.jpg,n02828884_3,n04379243_8,flexible,0.721844,n04379243_0,Stimuli/psy_fixed_rotation_30_objects_occ0.7_0.9s/images/train/n02933112_-18/n04379243_0/img_cgaxis_models_48_26_vray_composite_17th_c._monastery_dining_table_2010_2015-3_gray.png,random,fixed,n02828884_3,n04379243_8,Stimuli/canonical view 2/img_n02828884_3_gray.jpg,Stimuli/canonical view 2/img_n04379243_8_gray.jpg,foreground,right,Experiments/experiment_42/124.jpg,Experiments/experiment_42/125.jpg,Experiments/experiment_42/126.jpg,Experiments/experiment_42/127.jpg,923,1,2023-09-17_11h45.29.716,Occlusion_Psychophysics,2022.1.4,Win32,55.78489345,,,left,"[""right""]",[0.8913000000120519],False,,0.0,0.0,31.0,31.0,31.0,1.0,,,,,,
,,,,,,,,,,,,,,,,,,,,,0.025,,,,,,,,,,Stimuli/psy_fixed_rotation_30_objects_occ0.7_0.9s/images/train/n02933112_4/n04256520_9/img_buffet_napoleon_iii_sofa_2011_gray.jpg,n02933112_4,n04256520_9,fixed,0.725546,n02883344_15,Stimuli/psy_fixed_rotation_30_objects_occ0.7_0.9s/images/train/n04256520_9/n02883344_15/img_napoleon_iii_sofa_microwave_box_2010-3_gray.png,random,fixed,n02933112_4,n02818832_9,Stimuli/canonical view 2/img_n02933112_4_gray.jpg,Stimuli/canonical view 2/img_n02818832_9_gray.jpg,random,left,Experiments/experiment_42/128.jpg,Experiments/experiment_42/129.jpg,Experiments/experiment_42/130.jpg,Experiments/experiment_42/131.jpg,923,1,2023-09-17_11h45.29.716,Occlusion_Psychophysics,2022.1.4,Win32,55.78489345,,,right,"[""right""]",[1.7309000000061587],False,,0.0,0.0,32.0,32.0,32.0,1.0,,,,,,
,,,,,,,,,,,,,,,,,,,,,0.025,,,,,,,,,,Stimuli/psy_flexible_rotation_30_objects_occ0.7_0.9s/images/train/n04405907_8/n03001627_9/img_stylized_tv_chair_eames_plastic_armchair_2013_gray.jpg,n04405907_8,n03001627_9,flexible,0.844856,n04379243_0,Stimuli/psy_fixed_rotation_30_objects_occ0.7_0.9s/images/train/n02933112_4/n04379243_0/img_buffet_17th_c._monastery_dining_table_2010_2012-3_gray.png,random,fixed,n04405907_8,n03001627_9,Stimuli/canonical view 2/img_n04405907_8_gray.jpg,Stimuli/canonical view 2/img_n03001627_9_gray.jpg,foreground,left,Experiments/experiment_42/132.jpg,Experiments/experiment_42/133.jpg,Experiments/experiment_42/134.jpg,Experiments/experiment_42/135.jpg,923,1,2023-09-17_11h45.29.716,Occlusion_Psychophysics,2022.1.4,Win32,55.78489345,,,left,"[""right""]",[1.4701999999879263],False,,0.0,0.0,33.0,33.0,33.0,1.0,,,,,,
,,,,,,,,,,,,,,,,,,,,,0.05,,,,,,,,,,Stimuli/psy_fixed_rotation_30_objects_occ0.7_0.9s/images/train/n03001627_9/n02883344_-1/img_chair_eames_plastic_armchair_woven_box_2012_gray.jpg,n03001627_9,n02883344_-1,fixed,0.709669,n02818832_3,Stimuli/psy_fixed_rotation_30_objects_occ0.7_0.9s/images/train/n04070727_3/n02818832_3/img_b05_db_apps_tech_06_02_2_composite_b05_ccm_contemporary_bed_max2013_2006-3_gray.png,random,fixed,n03001627_9,n02883344_-1,Stimuli/canonical view 2/img_n03001627_9_gray.jpg,Stimuli/canonical view 2/img_n02883344_-1_gray.jpg,foreground,left,Experiments/experiment_42/136.jpg,Experiments/experiment_42/137.jpg,Experiments/experiment_42/138.jpg,Experiments/experiment_42/139.jpg,923,1,2023-09-17_11h45.29.716,Occlusion_Psychophysics,2022.1.4,Win32,55.78489345,,,right,"[""left""]",[1.4404000000058659],False,,0.0,0.0,34.0,34.0,34.0,1.0,,,,,,
,,,,,,,,,,,,,,,,,,,,,0.025,,,,,,,,,,Stimuli/psy_fixed_rotation_30_objects_occ0.7_0.9s/images/train/n04379243_-7/n04379243_0/img_quatre_dining_table_17th_c._monastery_dining_table_2010_2003_gray.jpg,n04379243_-7,n04379243_0,fixed,0.756384,n04379243_0,Stimuli/psy_fixed_rotation_30_objects_occ0.7_0.9s/images/train/n04379243_-7/n04379243_0/img_quatre_dining_table_17th_c._monastery_dining_table_2010_2003-3_gray.png,foreground,same as foreground,n04379243_-7,n02883344_0,Stimuli/canonical view 2/img_n04379243_-7_gray.jpg,Stimuli/canonical view 2/img_n02883344_0_gray.jpg,random,left,Experiments/experiment_42/140.jpg,Experiments/experiment_42/141.jpg,Experiments/experiment_42/142.jpg,Experiments/experiment_42/143.jpg,923,1,2023-09-17_11h45.29.716,Occlusion_Psychophysics,2022.1.4,Win32,55.78489345,,,right,"[""left""]",[1.7537000000029366],False,,0.0,0.0,35.0,35.0,35.0,1.0,,,,,,
,,,,,,,,,,,,,,,,,,,,,0.05,,,,,,,,,,Stimuli/psy_fixed_rotation_30_objects_occ0.7_0.9s/images/train/n04379243_0/n02828884_3/img_17th_c._monastery_dining_table_2010_b04_wood_metal_park_bench_2010_gray.jpg,n04379243_0,n02828884_3,fixed,0.854685,n04256520_9,Stimuli/psy_flexible_rotation_30_objects_occ0.7_0.9s/images/train/n02828884_4/n04256520_9/img_b05_c-5_classic_series_bench-2012_napoleon_iii_sofa_2001-3_gray.png,random,flexible,n04379243_0,n02828884_3,Stimuli/canonical view 2/img_n04379243_0_gray.jpg,Stimuli/canonical view 2/img_n02828884_3_gray.jpg,foreground,right,Experiments/experiment_42/144.jpg,Experiments/experiment_42/145.jpg,Experiments/experiment_42/146.jpg,Experiments/experiment_42/147.jpg,923,1,2023-09-17_11h45.29.716,Occlusion_Psychophysics,2022.1.4,Win32,55.78489345,,,right,"[""left""]",[1.1402000000030057],False,,0.0,0.0,36.0,36.0,36.0,1.0,,,,,,
,,,,,,,,,,,,,,,,,,,,,0.05,,,,,,,,,,Stimuli/psy_fixed_rotation_30_objects_occ0.7_0.9s/images/train/n02933112_4/n04256520_5/img_buffet_meridiani_belmondo_bench_sofa_2004_gray.jpg,n02933112_4,n04256520_5,fixed,0.799203,n04405907_9,Stimuli/psy_fixed_rotation_30_objects_occ0.7_0.9s/images/train/n04256520_9/n04405907_9/img_napoleon_iii_sofa_vray_004_2012-3_gray.png,random,fixed,n02933112_4,n04405907_8,Stimuli/canonical view 2/img_n02933112_4_gray.jpg,Stimuli/canonical view 2/img_n04405907_8_gray.jpg,random,right,Experiments/experiment_42/148.jpg,Experiments/experiment_42/149.jpg,Experiments/experiment_42/150.jpg,Experiments/experiment_42/151.jpg,923,1,2023-09-17_11h45.29.716,Occlusion_Psychophysics,2022.1.4,Win32,55.78489345,,,left,"[""left""]",[1.342599999994036],False,,0.0,0.0,37.0,37.0,37.0,1.0,,,,,,
,,,,,,,,,,,,,,,,,,,,,0.025,,,,,,,,,,Stimuli/psy_flexible_rotation_30_objects_occ0.7_0.9s/images/train/n02883344_-1/n03928116_0/img_woven_box_b02_piano_2005_gray.jpg,n02883344_-1,n03928116_0,flexible,0.714999,n04405907_5,Stimuli/psy_flexible_rotation_30_objects_occ0.7_0.9s/images/train/n04379243_8/n04405907_5/img_glass_table_samsung_40_uhd_smart_tv_2011_2012-3_gray.png,random,flexible,n02883344_-1,n03928116_0,Stimuli/canonical view 2/img_n02883344_-1_gray.jpg,Stimuli/canonical view 2/img_n03928116_0_gray.jpg,foreground,left,Experiments/experiment_42/152.jpg,Experiments/experiment_42/153.jpg,Experiments/experiment_42/154.jpg,Experiments/experiment_42/155.jpg,923,1,2023-09-17_11h45.29.716,Occlusion_Psychophysics,2022.1.4,Win32,55.78489345,,,right,"[""left""]",[1.094700000002831],False,,0.0,0.0,38.0,38.0,38.0,1.0,,,,,,
,,,,,,,,,,,,,,,,,,,,,0.05,,,,,,,,,,Stimuli/psy_fixed_rotation_30_objects_occ0.7_0.9s/images/train/n02883344_0/n02818832_9/img_b03_box_bed01_blue_2012_gray.jpg,n02883344_0,n02818832_9,fixed,0.769253,n04405907_8,Stimuli/psy_flexible_rotation_30_objects_occ0.7_0.9s/images/train/n02933112_-2/n04405907_8/img_sink_base_white_wood_stylized_tv_2009-3_gray.png,random,flexible,n02883344_0,n02818832_9,Stimuli/canonical view 2/img_n02883344_0_gray.jpg,Stimuli/canonical view 2/img_n02818832_9_gray.jpg,foreground,right,Experiments/experiment_42/156.jpg,Experiments/experiment_42/157.jpg,Experiments/experiment_42/158.jpg,Experiments/experiment_42/159.jpg,923,1,2023-09-17_11h45.29.716,Occlusion_Psychophysics,2022.1.4,Win32,55.78489345,,,right,"[""left""]",[1.128299999996898],False,,0.0,0.0,39.0,39.0,39.0,1.0,,,,,,
,,,,,,,,,,,,,,,,,,,,,0.025,,,,,,,,,,Stimuli/psy_fixed_rotation_30_objects_occ0.7_0.9s/images/train/n02933112_4/n02828884_3/img_buffet_b04_wood_metal_park_bench_2011_gray.jpg,n02933112_4,n02828884_3,fixed,0.74094,n02828884_3,Stimuli/psy_fixed_rotation_30_objects_occ0.7_0.9s/images/train/n02933112_4/n02828884_3/img_buffet_b04_wood_metal_park_bench_2011-3_gray.png,foreground,same as foreground,n02933112_4,n02828884_3,Stimuli/canonical view 2/img_n02933112_4_gray.jpg,Stimuli/canonical view 2/img_n02828884_3_gray.jpg,foreground,left,Experiments/experiment_42/160.jpg,Experiments/experiment_42/161.jpg,Experiments/experiment_42/162.jpg,Experiments/experiment_42/163.jpg,923,1,2023-09-17_11h45.29.716,Occlusion_Psychophysics,2022.1.4,Win32,55.78489345,,,left,"[""right""]",[1.1860000000001492],False,,0.0,0.0,40.0,40.0,40.0,1.0,,,,,,
,,,,,,,,,,,,,,,,,,,,,0.025,,,,,,,,,,Stimuli/psy_flexible_rotation_30_objects_occ0.7_0.9s/images/train/n03928116_10/n04379243_-7/img_ydp_103_r_2012__vray_quatre_dining_table_2001_gray.jpg,n03928116_10,n04379243_-7,flexible,0.769701,n03928116_10,Stimuli/psy_fixed_rotation_30_objects_occ0.7_0.9s/images/train/n02883344_0/n03928116_10/img_b03_box_ydp_103_r_2012__vray_2008-3_gray.png,random,fixed,n03928116_10,n04379243_-7,Stimuli/canonical view 2/img_n03928116_10_gray.jpg,Stimuli/canonical view 2/img_n04379243_-7_gray.jpg,foreground,right,Experiments/experiment_42/164.jpg,Experiments/experiment_42/165.jpg,Experiments/experiment_42/166.jpg,Experiments/experiment_42/167.jpg,923,1,2023-09-17_11h45.29.716,Occlusion_Psychophysics,2022.1.4,Win32,55.78489345,,,right,"[""right""]",[1.498099999993883],False,,0.0,0.0,41.0,41.0,41.0,1.0,,,,,,
,,,,,,,,,,,,,,,,,,,,,0.05,,,,,,,,,,Stimuli/psy_flexible_rotation_30_objects_occ0.7_0.9s/images/train/n04256520_9/n03928116_10/img_napoleon_iii_sofa_ydp_103_r_2012__vray_2000_gray.jpg,n04256520_9,n03928116_10,flexible,0.750169,n03928116_10,Stimuli/psy_flexible_rotation_30_objects_occ0.7_0.9s/images/train/n04256520_9/n03928116_10/img_napoleon_iii_sofa_ydp_103_r_2012__vray_2000-3_gray.png,foreground,same as foreground,n04256520_9,n03001627_-2,Stimuli/canonical view 2/img_n04256520_9_gray.jpg,Stimuli/canonical view 2/img_n03001627_-2_gray.jpg,random,right,Experiments/experiment_42/168.jpg,Experiments/experiment_42/169.jpg,Experiments/experiment_42/170.jpg,Experiments/experiment_42/171.jpg,923,1,2023-09-17_11h45.29.716,Occlusion_Psychophysics,2022.1.4,Win32,55.78489345,,,left,"[""left""]",[1.5416000000088843],False,,0.0,0.0,42.0,42.0,42.0,1.0,,,,,,
,,,,,,,,,,,,,,,,,,,,,0.05,,,,,,,,,,Stimuli/psy_flexible_rotation_30_objects_occ0.7_0.9s/images/train/n04405907_8/n02883344_-1/img_stylized_tv_woven_box_2003_gray.jpg,n04405907_8,n02883344_-1,flexible,0.762589,n03928116_0,Stimuli/psy_fixed_rotation_30_objects_occ0.7_0.9s/images/train/n04405907_8/n03928116_0/img_stylized_tv_b02_piano_2013-3_gray.png,random,fixed,n04405907_8,n04379243_8,Stimuli/canonical view 2/img_n04405907_8_gray.jpg,Stimuli/canonical view 2/img_n04379243_8_gray.jpg,random,right,Experiments/experiment_42/172.jpg,Experiments/experiment_42/173.jpg,Experiments/experiment_42/174.jpg,Experiments/experiment_42/175.jpg,923,1,2023-09-17_11h45.29.716,Occlusion_Psychophysics,2022.1.4,Win32,55.78489345,,,right,"[""left""]",[1.2730000000001382],False,,0.0,0.0,43.0,43.0,43.0,1.0,,,,,,
,,,,,,,,,,,,,,,,,,,,,0.05,,,,,,,,,,Stimuli/psy_flexible_rotation_30_objects_occ0.7_0.9s/images/train/n03001627_9/n03928116_10/img_chair_eames_plastic_armchair_ydp_103_r_2012__vray_2013_gray.jpg,n03001627_9,n03928116_10,flexible,0.738536,n03928116_10,Stimuli/psy_flexible_rotation_30_objects_occ0.7_0.9s/images/train/n03001627_9/n03928116_10/img_chair_eames_plastic_armchair_ydp_103_r_2012__vray_2013-3_gray.png,foreground,same as foreground,n03001627_9,n03928116_10,Stimuli/canonical view 2/img_n03001627_9_gray.jpg,Stimuli/canonical view 2/img_n03928116_10_gray.jpg,foreground,right,Experiments/experiment_42/176.jpg,Experiments/experiment_42/177.jpg,Experiments/experiment_42/178.jpg,Experiments/experiment_42/179.jpg,923,1,2023-09-17_11h45.29.716,Occlusion_Psychophysics,2022.1.4,Win32,55.78489345,,,left,"[""right""]",[1.1796999999880882],False,,0.0,0.0,44.0,44.0,44.0,1.0,,,,,,
,,,,,,,,,,,,,,,,,,,,,0.05,,,,,,,,,,Stimuli/psy_flexible_rotation_30_objects_occ0.7_0.9s/images/train/n03001627_-2/n02933112_-18/img_wood_chair_cgaxis_models_48_26_vray_composite_2006_gray.jpg,n03001627_-2,n02933112_-18,flexible,0.729661,n02933112_-18,Stimuli/psy_flexible_rotation_30_objects_occ0.7_0.9s/images/train/n03001627_-2/n02933112_-18/img_wood_chair_cgaxis_models_48_26_vray_composite_2006-3_gray.png,foreground,same as foreground,n03001627_-2,n04405907_9,Stimuli/canonical view 2/img_n03001627_-2_gray.jpg,Stimuli/canonical view 2/img_n04405907_9_gray.jpg,random,left,Experiments/experiment_42/180.jpg,Experiments/experiment_42/181.jpg,Experiments/experiment_42/182.jpg,Experiments/experiment_42/183.jpg,923,1,2023-09-17_11h45.29.716,Occlusion_Psychophysics,2022.1.4,Win32,55.78489345,,,left,"[""right""]",[2.357900000005884],True,left,1.0,0.0,45.0,45.0,45.0,1.0,1.3052,,,,,
,,,,,,,,,,,,,,,,,,,,,0.025,,,,,,,,,,Stimuli/psy_flexible_rotation_30_objects_occ0.7_0.9s/images/train/n02933112_-2/n04405907_9/img_sink_base_white_wood_vray_004_2000_gray.jpg,n02933112_-2,n04405907_9,flexible,0.720072,n02933112_-2,Stimuli/psy_flexible_rotation_30_objects_occ0.7_0.9s/images/train/n02818832_0/n02933112_-2/img_b03_the_sofa_and_chair_company_-_stanley_bed_2014_sink_base_white_wood_2007-3_gray.png,random,flexible,n02933112_-2,n04405907_9,Stimuli/canonical view 2/img_n02933112_-2_gray.jpg,Stimuli/canonical view 2/img_n04405907_9_gray.jpg,foreground,right,Experiments/experiment_42/184.jpg,Experiments/experiment_42/185.jpg,Experiments/experiment_42/186.jpg,Experiments/experiment_42/187.jpg,923,1,2023-09-17_11h45.29.716,Occlusion_Psychophysics,2022.1.4,Win32,55.78489345,,,right,"[""left""]",[0.9668999999910284],False,,0.0,0.0,46.0,46.0,46.0,1.0,,,,,,
,,,,,,,,,,,,,,,,,,,,,0.025,,,,,,,,,,Stimuli/psy_fixed_rotation_30_objects_occ0.7_0.9s/images/train/n03001627_-2/n02883344_-1/img_wood_chair_woven_box_2002_gray.jpg,n03001627_-2,n02883344_-1,fixed,0.705907,n02933112_-2,Stimuli/psy_flexible_rotation_30_objects_occ0.7_0.9s/images/train/n02818832_0/n02933112_-2/img_b03_the_sofa_and_chair_company_-_stanley_bed_2014_sink_base_white_wood_2013-3_gray.png,random,flexible,n03001627_-2,n02883344_15,Stimuli/canonical view 2/img_n03001627_-2_gray.jpg,Stimuli/canonical view 2/img_n02883344_15_gray.jpg,random,right,Experiments/experiment_42/188.jpg,Experiments/experiment_42/189.jpg,Experiments/experiment_42/190.jpg,Experiments/experiment_42/191.jpg,923,1,2023-09-17_11h45.29.716,Occlusion_Psychophysics,2022.1.4,Win32,55.78489345,,,right,"[""left""]",[1.2661000000089189],False,,0.0,0.0,47.0,47.0,47.0,1.0,,,,,,
,,,,,,,,,,,,,,,,,,,,,0.025,,,,,,,,,,Stimuli/psy_flexible_rotation_30_objects_occ0.7_0.9s/images/train/n02818832_0/n02933112_-18/img_b03_the_sofa_and_chair_company_-_stanley_bed_2014_cgaxis_models_48_26_vray_composite_2001_gray.jpg,n02818832_0,n02933112_-18,flexible,0.762607,n02828884_3,Stimuli/psy_fixed_rotation_30_objects_occ0.7_0.9s/images/train/n02883344_-1/n02828884_3/img_woven_box_b04_wood_metal_park_bench_2008-3_gray.png,random,fixed,n02818832_0,n03928116_10,Stimuli/canonical view 2/img_n02818832_0_gray.jpg,Stimuli/canonical view 2/img_n03928116_10_gray.jpg,random,right,Experiments/experiment_42/192.jpg,Experiments/experiment_42/193.jpg,Experiments/experiment_42/194.jpg,Experiments/experiment_42/195.jpg,923,1,2023-09-17_11h45.29.716,Occlusion_Psychophysics,2022.1.4,Win32,55.78489345,,,right,"[""left""]",[1.5987000000029639],False,,0.0,0.0,48.0,48.0,48.0,1.0,,,,,,
,,,,,,,,,,,,,,,,,,,,,0.025,,,,,,,,,,Stimuli/psy_flexible_rotation_30_objects_occ0.7_0.9s/images/train/n03001627_9/n03928116_10/img_chair_eames_plastic_armchair_ydp_103_r_2012__vray_2012_gray.jpg,n03001627_9,n03928116_10,flexible,0.787383,n03928116_10,Stimuli/psy_flexible_rotation_30_objects_occ0.7_0.9s/images/train/n03001627_9/n03928116_10/img_chair_eames_plastic_armchair_ydp_103_r_2012__vray_2012-3_gray.png,foreground,same as foreground,n03001627_9,n02933112_-2,Stimuli/canonical view 2/img_n03001627_9_gray.jpg,Stimuli/canonical view 2/img_n02933112_-2_gray.jpg,random,right,Experiments/experiment_42/196.jpg,Experiments/experiment_42/197.jpg,Experiments/experiment_42/198.jpg,Experiments/experiment_42/199.jpg,923,1,2023-09-17_11h45.29.716,Occlusion_Psychophysics,2022.1.4,Win32,55.78489345,,,left,"[""right""]",[1.6947000000029675],False,,0.0,0.0,49.0,49.0,49.0,1.0,,,,,,
,,,,,,,,,,,,,,,,,,,,,0.025,,,,,,,,,,Stimuli/psy_fixed_rotation_30_objects_occ0.7_0.9s/images/train/n04256520_4/n03928116_0/img_club_house_italia_nautilus_sofa_b02_piano_2011_gray.jpg,n04256520_4,n03928116_0,fixed,0.753804,n03928116_0,Stimuli/psy_fixed_rotation_30_objects_occ0.7_0.9s/images/train/n04256520_4/n03928116_0/img_club_house_italia_nautilus_sofa_b02_piano_2011-3_gray.png,foreground,same as foreground,n04256520_4,n02818832_9,Stimuli/canonical view 2/img_n04256520_4_gray.jpg,Stimuli/canonical view 2/img_n02818832_9_gray.jpg,random,left,Experiments/experiment_42/200.jpg,Experiments/experiment_42/201.jpg,Experiments/experiment_42/202.jpg,Experiments/experiment_42/203.jpg,923,1,2023-09-17_11h45.29.716,Occlusion_Psychophysics,2022.1.4,Win32,55.78489345,,,left,"[""right""]",[2.3541000000091117],False,,0.0,0.0,50.0,50.0,50.0,1.0,,,,,,
,,,,,,,,,,,,,,,,,,,,,0.05,,,,,,,,,,Stimuli/psy_fixed_rotation_30_objects_occ0.7_0.9s/images/train/n02933112_-18/n02883344_-1/img_cgaxis_models_48_26_vray_composite_woven_box_2008_gray.jpg,n02933112_-18,n02883344_-1,fixed,0.726123,n02883344_-1,Stimuli/psy_fixed_rotation_30_objects_occ0.7_0.9s/images/train/n02933112_-18/n02883344_-1/img_cgaxis_models_48_26_vray_composite_woven_box_2008-3_gray.png,foreground,same as foreground,n02933112_-18,n02933112_-2,Stimuli/canonical view 2/img_n02933112_-18_gray.jpg,Stimuli/canonical view 2/img_n02933112_-2_gray.jpg,random,left,Experiments/experiment_42/204.jpg,Experiments/experiment_42/205.jpg,Experiments/experiment_42/206.jpg,Experiments/experiment_42/207.jpg,923,1,2023-09-17_11h45.29.716,Occlusion_Psychophysics,2022.1.4,Win32,55.78489345,,,left,"[""left""]",[1.1260999999940395],False,,0.0,0.0,51.0,51.0,51.0,1.0,,,,,,
,,,,,,,,,,,,,,,,,,,,,0.025,,,,,,,,,,Stimuli/psy_flexible_rotation_30_objects_occ0.7_0.9s/images/train/n04256520_4/n02933112_-2/img_club_house_italia_nautilus_sofa_sink_base_white_wood_2010_gray.jpg,n04256520_4,n02933112_-2,flexible,0.767791,n02933112_-2,Stimuli/psy_flexible_rotation_30_objects_occ0.7_0.9s/images/train/n04256520_4/n02933112_-2/img_club_house_italia_nautilus_sofa_sink_base_white_wood_2010-3_gray.png,foreground,same as foreground,n04256520_4,n03001627_-2,Stimuli/canonical view 2/img_n04256520_4_gray.jpg,Stimuli/canonical view 2/img_n03001627_-2_gray.jpg,random,right,Experiments/experiment_42/208.jpg,Experiments/experiment_42/209.jpg,Experiments/experiment_42/210.jpg,Experiments/experiment_42/211.jpg,923,1,2023-09-17_11h45.29.716,Occlusion_Psychophysics,2022.1.4,Win32,55.78489345,,,right,"[""right""]",[1.6155999999941741],False,,0.0,0.0,52.0,52.0,52.0,1.0,,,,,,
,,,,,,,,,,,,,,,,,,,,,0.05,,,,,,,,,,Stimuli/psy_flexible_rotation_30_objects_occ0.7_0.9s/images/train/n03928116_0/n03001627_8/img_b02_piano_chair_billiani_doll_2005_gray.jpg,n03928116_0,n03001627_8,flexible,0.721843,n04405907_8,Stimuli/psy_flexible_rotation_30_objects_occ0.7_0.9s/images/train/n03001627_-2/n04405907_8/img_wood_chair_stylized_tv_2006-3_gray.png,random,flexible,n03928116_0,n02933112_-2,Stimuli/canonical view 2/img_n03928116_0_gray.jpg,Stimuli/canonical view 2/img_n02933112_-2_gray.jpg,random,right,Experiments/experiment_42/212.jpg,Experiments/experiment_42/213.jpg,Experiments/experiment_42/214.jpg,Experiments/experiment_42/215.jpg,923,1,2023-09-17_11h45.29.716,Occlusion_Psychophysics,2022.1.4,Win32,55.78489345,,,left,"[""left""]",[1.919700000003104],False,,0.0,0.0,53.0,53.0,53.0,1.0,,,,,,
,,,,,,,,,,,,,,,,,,,,,0.025,,,,,,,,,,Stimuli/psy_fixed_rotation_30_objects_occ0.7_0.9s/images/train/n02818832_3/n02933112_4/img_b05_ccm_contemporary_bed_max2013_buffet_2001_gray.jpg,n02818832_3,n02933112_4,fixed,0.747691,n03001627_8,Stimuli/psy_flexible_rotation_30_objects_occ0.7_0.9s/images/train/n03928116_0/n03001627_8/img_b02_piano_chair_billiani_doll_2011-3_gray.png,random,flexible,n02818832_3,n02933112_4,Stimuli/canonical view 2/img_n02818832_3_gray.jpg,Stimuli/canonical view 2/img_n02933112_4_gray.jpg,foreground,right,Experiments/experiment_42/216.jpg,Experiments/experiment_42/217.jpg,Experiments/experiment_42/218.jpg,Experiments/experiment_42/219.jpg,923,1,2023-09-17_11h45.29.716,Occlusion_Psychophysics,2022.1.4,Win32,55.78489345,,,left,"[""left""]",[1.3996000000088316],True,right,1.0,0.0,54.0,54.0,54.0,1.0,1.1067,,,,,
,,,,,,,,,,,,,,,,,,,,,0.025,,,,,,,,,,Stimuli/psy_fixed_rotation_30_objects_occ0.7_0.9s/images/train/n02933112_4/n04256520_9/img_buffet_napoleon_iii_sofa_2003_gray.jpg,n02933112_4,n04256520_9,fixed,0.844893,n04256520_9,Stimuli/psy_fixed_rotation_30_objects_occ0.7_0.9s/images/train/n02933112_4/n04256520_9/img_buffet_napoleon_iii_sofa_2003-3_gray.png,foreground,same as foreground,n02933112_4,n02828884_9,Stimuli/canonical view 2/img_n02933112_4_gray.jpg,Stimuli/canonical view 2/img_n02828884_9_gray.jpg,random,left,Experiments/experiment_42/220.jpg,Experiments/experiment_42/221.jpg,Experiments/experiment_42/222.jpg,Experiments/experiment_42/223.jpg,923,1,2023-09-17_11h45.29.716,Occlusion_Psychophysics,2022.1.4,Win32,55.78489345,,,right,"[""left""]",[1.0370999999940977],False,,0.0,0.0,55.0,55.0,55.0,1.0,,,,,,
,,,,,,,,,,,,,,,,,,,,,0.05,,,,,,,,,,Stimuli/psy_flexible_rotation_30_objects_occ0.7_0.9s/images/train/n04405907_9/n04256520_4/img_vray_004_club_house_italia_nautilus_sofa_2011_gray.jpg,n04405907_9,n04256520_4,flexible,0.836781,n04256520_4,Stimuli/psy_flexible_rotation_30_objects_occ0.7_0.9s/images/train/n04405907_9/n04256520_4/img_vray_004_club_house_italia_nautilus_sofa_2011-3_gray.png,foreground,same as foreground,n04405907_9,n02828884_4,Stimuli/canonical view 2/img_n04405907_9_gray.jpg,Stimuli/canonical view 2/img_n02828884_4_gray.jpg,random,left,Experiments/experiment_42/224.jpg,Experiments/experiment_42/225.jpg,Experiments/experiment_42/226.jpg,Experiments/experiment_42/227.jpg,923,1,2023-09-17_11h45.29.716,Occlusion_Psychophysics,2022.1.4,Win32,55.78489345,,,right,"[""left""]",[1.4426999999880081],False,,0.0,0.0,56.0,56.0,56.0,1.0,,,,,,
,,,,,,,,,,,,,,,,,,,,,0.025,,,,,,,,,,Stimuli/psy_fixed_rotation_30_objects_occ0.7_0.9s/images/train/n03001627_-2/n04379243_0/img_wood_chair_17th_c._monastery_dining_table_2010_2012_gray.jpg,n03001627_-2,n04379243_0,fixed,0.704095,n04379243_0,Stimuli/psy_fixed_rotation_30_objects_occ0.7_0.9s/images/train/n03001627_-2/n04379243_0/img_wood_chair_17th_c._monastery_dining_table_2010_2012-3_gray.png,foreground,same as foreground,n03001627_-2,n04379243_0,Stimuli/canonical view 2/img_n03001627_-2_gray.jpg,Stimuli/canonical view 2/img_n04379243_0_gray.jpg,foreground,right,Experiments/experiment_42/228.jpg,Experiments/experiment_42/229.jpg,Experiments/experiment_42/230.jpg,Experiments/experiment_42/231.jpg,923,1,2023-09-17_11h45.29.716,Occlusion_Psychophysics,2022.1.4,Win32,55.78489345,,,left,"[""right""]",[1.1034000000058768],False,,0.0,0.0,57.0,57.0,57.0,1.0,,,,,,
,,,,,,,,,,,,,,,,,,,,,0.05,,,,,,,,,,Stimuli/psy_flexible_rotation_30_objects_occ0.7_0.9s/images/train/n02883344_0/n04405907_9/img_b03_box_vray_004_2003_gray.jpg,n02883344_0,n04405907_9,flexible,0.704417,n04405907_9,Stimuli/psy_flexible_rotation_30_objects_occ0.7_0.9s/images/train/n02883344_0/n04405907_9/img_b03_box_vray_004_2003-3_gray.png,foreground,same as foreground,n02883344_0,n04405907_9,Stimuli/canonical view 2/img_n02883344_0_gray.jpg,Stimuli/canonical view 2/img_n04405907_9_gray.jpg,foreground,right,Experiments/experiment_42/232.jpg,Experiments/experiment_42/233.jpg,Experiments/experiment_42/234.jpg,Experiments/experiment_42/235.jpg,923,1,2023-09-17_11h45.29.716,Occlusion_Psychophysics,2022.1.4,Win32,55.78489345,,,left,"[""right""]",[0.9945999999940796],False,,0.0,0.0,58.0,58.0,58.0,1.0,,,,,,
,,,,,,,,,,,,,,,,,,,,,0.05,,,,,,,,,,Stimuli/psy_fixed_rotation_30_objects_occ0.7_0.9s/images/train/n03928116_0/n04256520_4/img_b02_piano_club_house_italia_nautilus_sofa_2014_gray.jpg,n03928116_0,n04256520_4,fixed,0.700747,n03928116_0,Stimuli/psy_flexible_rotation_30_objects_occ0.7_0.9s/images/train/n03928116_4/n03928116_0/img_dp_33_b_2013__vray_b02_piano_2000-3_gray.png,random,flexible,n03928116_0,n04256520_4,Stimuli/canonical view 2/img_n03928116_0_gray.jpg,Stimuli/canonical view 2/img_n04256520_4_gray.jpg,foreground,right,Experiments/experiment_42/236.jpg,Experiments/experiment_42/237.jpg,Experiments/experiment_42/238.jpg,Experiments/experiment_42/239.jpg,923,1,2023-09-17_11h45.29.716,Occlusion_Psychophysics,2022.1.4,Win32,55.78489345,,,left,"[""right""]",[1.0703000000119118],False,,0.0,0.0,59.0,59.0,59.0,1.0,,,,,,
,,,,,,,,,,,,,,,,,,,,,0.025,,,,,,,,,,Stimuli/psy_fixed_rotation_30_objects_occ0.7_0.9s/images/train/n02933112_-18/n04379243_-7/img_cgaxis_models_48_26_vray_composite_quatre_dining_table_2015_gray.jpg,n02933112_-18,n04379243_-7,fixed,0.771738,n04379243_-7,Stimuli/psy_fixed_rotation_30_objects_occ0.7_0.9s/images/train/n02933112_-18/n04379243_-7/img_cgaxis_models_48_26_vray_composite_quatre_dining_table_2015-3_gray.png,foreground,same as foreground,n02933112_-18,n02828884_4,Stimuli/canonical view 2/img_n02933112_-18_gray.jpg,Stimuli/canonical view 2/img_n02828884_4_gray.jpg,random,left,Experiments/experiment_42/240.jpg,Experiments/experiment_42/241.jpg,Experiments/experiment_42/242.jpg,Experiments/experiment_42/243.jpg,923,1,2023-09-17_11h45.29.716,Occlusion_Psychophysics,2022.1.4,Win32,55.78489345,,,left,,,False,,0.0,0.0,60.0,60.0,60.0,1.0,,,,,,
,,,,,,,,,,,,,,,,,,,,,0.025,,,,,,,,,,Stimuli/psy_flexible_rotation_30_objects_occ0.7_0.9s/images/train/n02933112_-2/n04256520_4/img_sink_base_white_wood_club_house_italia_nautilus_sofa_2014_gray.jpg,n02933112_-2,n04256520_4,flexible,0.767748,n04256520_4,Stimuli/psy_flexible_rotation_30_objects_occ0.7_0.9s/images/train/n02933112_-2/n04256520_4/img_sink_base_white_wood_club_house_italia_nautilus_sofa_2014-3_gray.png,foreground,same as foreground,n02933112_-2,n04256520_4,Stimuli/canonical view 2/img_n02933112_-2_gray.jpg,Stimuli/canonical view 2/img_n04256520_4_gray.jpg,foreground,right,Experiments/experiment_42/244.jpg,Experiments/experiment_42/245.jpg,Experiments/experiment_42/246.jpg,Experiments/experiment_42/247.jpg,923,1,2023-09-17_11h45.29.716,Occlusion_Psychophysics,2022.1.4,Win32,55.78489345,,,right,"[""left""]",[0.8982000000028165],False,,0.0,0.0,61.0,61.0,61.0,1.0,,,,,,
,,,,,,,,,,,,,,,,,,,,,0.05,,,,,,,,,,Stimuli/psy_fixed_rotation_30_objects_occ0.7_0.9s/images/train/n04256520_9/n02818832_0/img_napoleon_iii_sofa_b03_the_sofa_and_chair_company_-_stanley_bed_2014_2004_gray.jpg,n04256520_9,n02818832_0,fixed,0.730518,n02883344_-1,Stimuli/psy_flexible_rotation_30_objects_occ0.7_0.9s/images/train/n04070727_0/n02883344_-1/img_b03_ka90ivi20r_2013__vray_woven_box_2001-3_gray.png,random,flexible,n04256520_9,n02828884_4,Stimuli/canonical view 2/img_n04256520_9_gray.jpg,Stimuli/canonical view 2/img_n02828884_4_gray.jpg,random,right,Experiments/experiment_42/248.jpg,Experiments/experiment_42/249.jpg,Experiments/experiment_42/250.jpg,Experiments/experiment_42/251.jpg,923,1,2023-09-17_11h45.29.716,Occlusion_Psychophysics,2022.1.4,Win32,55.78489345,,,right,"[""right""]",[1.079399999990983],False,,0.0,0.0,62.0,62.0,62.0,1.0,,,,,,
,,,,,,,,,,,,,,,,,,,,,0.025,,,,,,,,,,Stimuli/psy_flexible_rotation_30_objects_occ0.7_0.9s/images/train/n04379243_8/n02818832_3/img_glass_table_b05_ccm_contemporary_bed_max2013_2000_gray.jpg,n04379243_8,n02818832_3,flexible,0.723342,n03928116_4,Stimuli/psy_flexible_rotation_30_objects_occ0.7_0.9s/images/train/n04379243_8/n03928116_4/img_glass_table_dp_33_b_2013__vray_2010-3_gray.png,random,flexible,n04379243_8,n03001627_-2,Stimuli/canonical view 2/img_n04379243_8_gray.jpg,Stimuli/canonical view 2/img_n03001627_-2_gray.jpg,random,left,Experiments/experiment_42/252.jpg,Experiments/experiment_42/253.jpg,Experiments/experiment_42/254.jpg,Experiments/experiment_42/255.jpg,923,1,2023-09-17_11h45.29.716,Occlusion_Psychophysics,2022.1.4,Win32,55.78489345,,,left,"[""left""]",[1.49149999999986],False,,0.0,0.0,63.0,63.0,63.0,1.0,,,,,,
,,,,,,,,,,,,,,,,,,,,,0.05,,,,,,,,,,Stimuli/psy_flexible_rotation_30_objects_occ0.7_0.9s/images/train/n03928116_10/n02933112_4/img_ydp_103_r_2012__vray_buffet_2008_gray.jpg,n03928116_10,n02933112_4,flexible,0.747192,n02933112_4,Stimuli/psy_flexible_rotation_30_objects_occ0.7_0.9s/images/train/n03928116_10/n02933112_4/img_ydp_103_r_2012__vray_buffet_2008-3_gray.png,foreground,same as foreground,n03928116_10,n04256520_9,Stimuli/canonical view 2/img_n03928116_10_gray.jpg,Stimuli/canonical view 2/img_n04256520_9_gray.jpg,random,left,Experiments/experiment_42/256.jpg,Experiments/experiment_42/257.jpg,Experiments/experiment_42/258.jpg,Experiments/experiment_42/259.jpg,923,1,2023-09-17_11h45.29.716,Occlusion_Psychophysics,2022.1.4,Win32,55.78489345,,,left,"[""left""]",[1.060700000002953],True,right,1.0,0.0,64.0,64.0,64.0,1.0,1.2231,,,,,
,,,,,,,,,,,,,,,,,,,,,0.05,,,,,,,,,,Stimuli/psy_fixed_rotation_30_objects_occ0.7_0.9s/images/train/n04405907_5/n04379243_0/img_samsung_40_uhd_smart_tv_2011_17th_c._monastery_dining_table_2010_2009_gray.jpg,n04405907_5,n04379243_0,fixed,0.706104,n04379243_0,Stimuli/psy_fixed_rotation_30_objects_occ0.7_0.9s/images/train/n04405907_5/n04379243_0/img_samsung_40_uhd_smart_tv_2011_17th_c._monastery_dining_table_2010_2009-3_gray.png,foreground,same as foreground,n04405907_5,n02933112_-2,Stimuli/canonical view 2/img_n04405907_5_gray.jpg,Stimuli/canonical view 2/img_n02933112_-2_gray.jpg,random,right,Experiments/experiment_42/260.jpg,Experiments/experiment_42/261.jpg,Experiments/experiment_42/262.jpg,Experiments/experiment_42/263.jpg,923,1,2023-09-17_11h45.29.716,Occlusion_Psychophysics,2022.1.4,Win32,55.78489345,,,left,"[""left""]",[1.3345999999939977],True,right,1.0,0.0,65.0,65.0,65.0,1.0,1.4338,,,,,
,,,,,,,,,,,,,,,,,,,,,0.025,,,,,,,,,,Stimuli/psy_flexible_rotation_30_objects_occ0.7_0.9s/images/train/n04379243_0/n02818832_9/img_17th_c._monastery_dining_table_2010_bed01_blue_2002_gray.jpg,n04379243_0,n02818832_9,flexible,0.75224,n02883344_0,Stimuli/psy_flexible_rotation_30_objects_occ0.7_0.9s/images/train/n04405907_5/n02883344_0/img_samsung_40_uhd_smart_tv_2011_b03_box_2010-3_gray.png,random,flexible,n04379243_0,n04256520_4,Stimuli/canonical view 2/img_n04379243_0_gray.jpg,Stimuli/canonical view 2/img_n04256520_4_gray.jpg,random,left,Experiments/experiment_42/264.jpg,Experiments/experiment_42/265.jpg,Experiments/experiment_42/266.jpg,Experiments/experiment_42/267.jpg,923,1,2023-09-17_11h45.29.716,Occlusion_Psychophysics,2022.1.4,Win32,55.78489345,,,right,"[""right""]",[1.3532999999970343],False,,0.0,0.0,66.0,66.0,66.0,1.0,,,,,,
,,,,,,,,,,,,,,,,,,,,,0.05,,,,,,,,,,Stimuli/psy_fixed_rotation_30_objects_occ0.7_0.9s/images/train/n02818832_3/n03928116_0/img_b05_ccm_contemporary_bed_max2013_b02_piano_2006_gray.jpg,n02818832_3,n03928116_0,fixed,0.857803,n02933112_-18,Stimuli/psy_flexible_rotation_30_objects_occ0.7_0.9s/images/train/n03001627_9/n02933112_-18/img_chair_eames_plastic_armchair_cgaxis_models_48_26_vray_composite_2000-3_gray.png,random,flexible,n02818832_3,n02883344_15,Stimuli/canonical view 2/img_n02818832_3_gray.jpg,Stimuli/canonical view 2/img_n02883344_15_gray.jpg,random,right,Experiments/experiment_42/268.jpg,Experiments/experiment_42/269.jpg,Experiments/experiment_42/270.jpg,Experiments/experiment_42/271.jpg,923,1,2023-09-17_11h45.29.716,Occlusion_Psychophysics,2022.1.4,Win32,55.78489345,,,left,"[""right""]",[1.1421999999881791],False,,0.0,0.0,67.0,67.0,67.0,1.0,,,,,,
,,,,,,,,,,,,,,,,,,,,,0.025,,,,,,,,,,Stimuli/psy_flexible_rotation_30_objects_occ0.7_0.9s/images/train/n04405907_8/n04256520_9/img_stylized_tv_napoleon_iii_sofa_2011_gray.jpg,n04405907_8,n04256520_9,flexible,0.719677,n03928116_4,Stimuli/psy_flexible_rotation_30_objects_occ0.7_0.9s/images/train/n02883344_0/n03928116_4/img_b03_box_dp_33_b_2013__vray_2011-3_gray.png,random,flexible,n04405907_8,n04256520_9,Stimuli/canonical view 2/img_n04405907_8_gray.jpg,Stimuli/canonical view 2/img_n04256520_9_gray.jpg,foreground,right,Experiments/experiment_42/272.jpg,Experiments/experiment_42/273.jpg,Experiments/experiment_42/274.jpg,Experiments/experiment_42/275.jpg,923,1,2023-09-17_11h45.29.716,Occlusion_Psychophysics,2022.1.4,Win32,55.78489345,,,left,"[""right""]",[1.1287000000029366],False,,0.0,0.0,68.0,68.0,68.0,1.0,,,,,,
,,,,,,,,,,,,,,,,,,,,,0.05,,,,,,,,,,Stimuli/psy_fixed_rotation_30_objects_occ0.7_0.9s/images/train/n02828884_3/n04405907_5/img_b04_wood_metal_park_bench_samsung_40_uhd_smart_tv_2011_2001_gray.jpg,n02828884_3,n04405907_5,fixed,0.84376,n04379243_-7,Stimuli/psy_fixed_rotation_30_objects_occ0.7_0.9s/images/train/n03928116_10/n04379243_-7/img_ydp_103_r_2012__vray_quatre_dining_table_2001-3_gray.png,random,fixed,n02828884_3,n04379243_0,Stimuli/canonical view 2/img_n02828884_3_gray.jpg,Stimuli/canonical view 2/img_n04379243_0_gray.jpg,random,left,Experiments/experiment_42/276.jpg,Experiments/experiment_42/277.jpg,Experiments/experiment_42/278.jpg,Experiments/experiment_42/279.jpg,923,1,2023-09-17_11h45.29.716,Occlusion_Psychophysics,2022.1.4,Win32,55.78489345,,,left,"[""right""]",[1.2999000000058913],False,,0.0,0.0,69.0,69.0,69.0,1.0,,,,,,
,,,,,,,,,,,,,,,,,,,,,0.05,,,,,,,,,,Stimuli/psy_flexible_rotation_30_objects_occ0.7_0.9s/images/train/n02933112_-2/n02818832_3/img_sink_base_white_wood_b05_ccm_contemporary_bed_max2013_2007_gray.jpg,n02933112_-2,n02818832_3,flexible,0.811728,n04256520_5,Stimuli/psy_fixed_rotation_30_objects_occ0.7_0.9s/images/train/n04256520_4/n04256520_5/img_club_house_italia_nautilus_sofa_meridiani_belmondo_bench_sofa_2004-3_gray.png,random,fixed,n02933112_-2,n02818832_3,Stimuli/canonical view 2/img_n02933112_-2_gray.jpg,Stimuli/canonical view 2/img_n02818832_3_gray.jpg,foreground,right,Experiments/experiment_42/280.jpg,Experiments/experiment_42/281.jpg,Experiments/experiment_42/282.jpg,Experiments/experiment_42/283.jpg,923,1,2023-09-17_11h45.29.716,Occlusion_Psychophysics,2022.1.4,Win32,55.78489345,,,left,"[""right""]",[0.9667999999969652],False,,0.0,0.0,70.0,70.0,70.0,1.0,,,,,,
,,,,,,,,,,,,,,,,,,,,,0.05,,,,,,,,,,Stimuli/psy_flexible_rotation_30_objects_occ0.7_0.9s/images/train/n04256520_4/n04405907_9/img_club_house_italia_nautilus_sofa_vray_004_2007_gray.jpg,n04256520_4,n04405907_9,flexible,0.708075,n04405907_9,Stimuli/psy_flexible_rotation_30_objects_occ0.7_0.9s/images/train/n04256520_4/n04405907_9/img_club_house_italia_nautilus_sofa_vray_004_2007-3_gray.png,foreground,same as foreground,n04256520_4,n04405907_9,Stimuli/canonical view 2/img_n04256520_4_gray.jpg,Stimuli/canonical view 2/img_n04405907_9_gray.jpg,foreground,right,Experiments/experiment_42/284.jpg,Experiments/experiment_42/285.jpg,Experiments/experiment_42/286.jpg,Experiments/experiment_42/287.jpg,923,1,2023-09-17_11h45.29.716,Occlusion_Psychophysics,2022.1.4,Win32,55.78489345,,,right,"[""right""]",[1.2371000000089225],False,,0.0,0.0,71.0,71.0,71.0,1.0,,,,,,
,,,,,,,,,,,,,,,,,,,,,0.025,,,,,,,,,,Stimuli/psy_fixed_rotation_30_objects_occ0.7_0.9s/images/train/n04405907_9/n02883344_-1/img_vray_004_woven_box_2001_gray.jpg,n04405907_9,n02883344_-1,fixed,0.780481,n02883344_-1,Stimuli/psy_fixed_rotation_30_objects_occ0.7_0.9s/images/train/n04405907_9/n02883344_-1/img_vray_004_woven_box_2001-3_gray.png,foreground,same as foreground,n04405907_9,n02883344_-1,Stimuli/canonical view 2/img_n04405907_9_gray.jpg,Stimuli/canonical view 2/img_n02883344_-1_gray.jpg,foreground,right,Experiments/experiment_42/288.jpg,Experiments/experiment_42/289.jpg,Experiments/experiment_42/290.jpg,Experiments/experiment_42/291.jpg,923,1,2023-09-17_11h45.29.716,Occlusion_Psychophysics,2022.1.4,Win32,55.78489345,,,left,"[""right""]",[0.9587000000028638],True,right,1.0,0.0,72.0,72.0,72.0,1.0,1.1306,,,,,
,,,,,,,,,,,,,,,,,,,,,0.025,,,,,,,,,,Stimuli/psy_fixed_rotation_30_objects_occ0.7_0.9s/images/train/n04405907_9/n04256520_9/img_vray_004_napoleon_iii_sofa_2009_gray.jpg,n04405907_9,n04256520_9,fixed,0.711644,n02828884_3,Stimuli/psy_flexible_rotation_30_objects_occ0.7_0.9s/images/train/n02883344_15/n02828884_3/img_microwave_box_b04_wood_metal_park_bench_2007-3_gray.png,random,flexible,n04405907_9,n04256520_9,Stimuli/canonical view 2/img_n04405907_9_gray.jpg,Stimuli/canonical view 2/img_n04256520_9_gray.jpg,foreground,left,Experiments/experiment_42/292.jpg,Experiments/experiment_42/293.jpg,Experiments/experiment_42/294.jpg,Experiments/experiment_42/295.jpg,923,1,2023-09-17_11h45.29.716,Occlusion_Psychophysics,2022.1.4,Win32,55.78489345,,,left,"[""right""]",[0.9357999999970161],False,,0.0,0.0,73.0,73.0,73.0,1.0,,,,,,
,,,,,,,,,,,,,,,,,,,,,0.025,,,,,,,,,,Stimuli/psy_fixed_rotation_30_objects_occ0.7_0.9s/images/train/n02933112_-18/n02933112_-2/img_cgaxis_models_48_26_vray_composite_sink_base_white_wood_2014_gray.jpg,n02933112_-18,n02933112_-2,fixed,0.825935,n02883344_15,Stimuli/psy_fixed_rotation_30_objects_occ0.7_0.9s/images/train/n04405907_9/n02883344_15/img_vray_004_microwave_box_2012-3_gray.png,random,fixed,n02933112_-18,n02883344_15,Stimuli/canonical view 2/img_n02933112_-18_gray.jpg,Stimuli/canonical view 2/img_n02883344_15_gray.jpg,random,left,Experiments/experiment_42/296.jpg,Experiments/experiment_42/297.jpg,Experiments/experiment_42/298.jpg,Experiments/experiment_42/299.jpg,923,1,2023-09-17_11h45.29.716,Occlusion_Psychophysics,2022.1.4,Win32,55.78489345,,,left,"[""right""]",[0.9442999999969288],False,,0.0,0.0,74.0,74.0,74.0,1.0,,,,,,
,,,,,,,,,,,,,,,,,,,,,0.05,,,,,,,,,,Stimuli/psy_flexible_rotation_30_objects_occ0.7_0.9s/images/train/n03928116_4/n02933112_4/img_dp_33_b_2013__vray_buffet_2010_gray.jpg,n03928116_4,n02933112_4,flexible,0.751814,n02933112_4,Stimuli/psy_flexible_rotation_30_objects_occ0.7_0.9s/images/train/n03928116_4/n02933112_4/img_dp_33_b_2013__vray_buffet_2010-3_gray.png,foreground,same as foreground,n03928116_4,n02883344_0,Stimuli/canonical view 2/img_n03928116_4_gray.jpg,Stimuli/canonical view 2/img_n02883344_0_gray.jpg,random,left,Experiments/experiment_42/300.jpg,Experiments/experiment_42/301.jpg,Experiments/experiment_42/302.jpg,Experiments/experiment_42/303.jpg,923,1,2023-09-17_11h45.29.716,Occlusion_Psychophysics,2022.1.4,Win32,55.78489345,,,left,"[""right""]",[0.9390000000000782],False,,0.0,0.0,75.0,75.0,75.0,1.0,,,,,,
,,,,,,,,,,,,,,,,,,,,,0.05,,,,,,,,,,Stimuli/psy_fixed_rotation_30_objects_occ0.7_0.9s/images/train/n03001627_-2/n03928116_0/img_wood_chair_b02_piano_2001_gray.jpg,n03001627_-2,n03928116_0,fixed,0.813159,n04379243_-7,Stimuli/psy_fixed_rotation_30_objects_occ0.7_0.9s/images/train/n04070727_5/n04379243_-7/img_b05_db_apps_tech_06_13_composite_quatre_dining_table_2011-3_gray.png,random,fixed,n03001627_-2,n03928116_4,Stimuli/canonical view 2/img_n03001627_-2_gray.jpg,Stimuli/canonical view 2/img_n03928116_4_gray.jpg,random,left,Experiments/experiment_42/304.jpg,Experiments/experiment_42/305.jpg,Experiments/experiment_42/306.jpg,Experiments/experiment_42/307.jpg,923,1,2023-09-17_11h45.29.716,Occlusion_Psychophysics,2022.1.4,Win32,55.78489345,,,left,"[""right""]",[1.373599999993985],False,,0.0,0.0,76.0,76.0,76.0,1.0,,,,,,
,,,,,,,,,,,,,,,,,,,,,0.025,,,,,,,,,,Stimuli/psy_flexible_rotation_30_objects_occ0.7_0.9s/images/train/n04405907_5/n02883344_15/img_samsung_40_uhd_smart_tv_2011_microwave_box_2004_gray.jpg,n04405907_5,n02883344_15,flexible,0.819773,n04405907_9,Stimuli/psy_flexible_rotation_30_objects_occ0.7_0.9s/images/train/n02828884_3/n04405907_9/img_b04_wood_metal_park_bench_vray_004_2010-3_gray.png,random,flexible,n04405907_5,n02883344_15,Stimuli/canonical view 2/img_n04405907_5_gray.jpg,Stimuli/canonical view 2/img_n02883344_15_gray.jpg,foreground,left,Experiments/experiment_42/308.jpg,Experiments/experiment_42/309.jpg,Experiments/experiment_42/310.jpg,Experiments/experiment_42/311.jpg,923,1,2023-09-17_11h45.29.716,Occlusion_Psychophysics,2022.1.4,Win32,55.78489345,,,right,"[""left""]",[1.2002999999970143],False,,0.0,0.0,77.0,77.0,77.0,1.0,,,,,,
,,,,,,,,,,,,,,,,,,,,,0.025,,,,,,,,,,Stimuli/psy_flexible_rotation_30_objects_occ0.7_0.9s/images/train/n02828884_9/n02883344_-1/img_cr-96_bench_woven_box_2015_gray.jpg,n02828884_9,n02883344_-1,flexible,0.789949,n02883344_-1,Stimuli/psy_flexible_rotation_30_objects_occ0.7_0.9s/images/train/n02828884_9/n02883344_-1/img_cr-96_bench_woven_box_2015-3_gray.png,foreground,same as foreground,n02828884_9,n02883344_-1,Stimuli/canonical view 2/img_n02828884_9_gray.jpg,Stimuli/canonical view 2/img_n02883344_-1_gray.jpg,foreground,left,Experiments/experiment_42/312.jpg,Experiments/experiment_42/313.jpg,Experiments/experiment_42/314.jpg,Experiments/experiment_42/315.jpg,923,1,2023-09-17_11h45.29.716,Occlusion_Psychophysics,2022.1.4,Win32,55.78489345,,,right,"[""left""]",[0.9961999999879936],False,,0.0,0.0,78.0,78.0,78.0,1.0,,,,,,
,,,,,,,,,,,,,,,,,,,,,0.025,,,,,,,,,,Stimuli/psy_flexible_rotation_30_objects_occ0.7_0.9s/images/train/n02828884_4/n04405907_8/img_b05_c-5_classic_series_bench-2012_stylized_tv_2012_gray.jpg,n02828884_4,n04405907_8,flexible,0.743312,n03928116_0,Stimuli/psy_flexible_rotation_30_objects_occ0.7_0.9s/images/train/n02828884_4/n03928116_0/img_b05_c-5_classic_series_bench-2012_b02_piano_2002-3_gray.png,random,flexible,n02828884_4,n04405907_8,Stimuli/canonical view 2/img_n02828884_4_gray.jpg,Stimuli/canonical view 2/img_n04405907_8_gray.jpg,foreground,left,Experiments/experiment_42/316.jpg,Experiments/experiment_42/317.jpg,Experiments/experiment_42/318.jpg,Experiments/experiment_42/319.jpg,923,1,2023-09-17_11h45.29.716,Occlusion_Psychophysics,2022.1.4,Win32,55.78489345,,,right,"[""right""]",[1.059700000003204],False,,0.0,0.0,79.0,79.0,79.0,1.0,,,,,,
,,,,,,,,,,,,,,,,,,,,,0.05,,,,,,,,,,Stimuli/psy_flexible_rotation_30_objects_occ0.7_0.9s/images/train/n02933112_-18/n02933112_4/img_cgaxis_models_48_26_vray_composite_buffet_2001_gray.jpg,n02933112_-18,n02933112_4,flexible,0.763402,n02933112_4,Stimuli/psy_flexible_rotation_30_objects_occ0.7_0.9s/images/train/n02933112_-18/n02933112_4/img_cgaxis_models_48_26_vray_composite_buffet_2001-3_gray.png,foreground,same as foreground,n02933112_-18,n02933112_4,Stimuli/canonical view 2/img_n02933112_-18_gray.jpg,Stimuli/canonical view 2/img_n02933112_4_gray.jpg,foreground,left,Experiments/experiment_42/320.jpg,Experiments/experiment_42/321.jpg,Experiments/experiment_42/322.jpg,Experiments/experiment_42/323.jpg,923,1,2023-09-17_11h45.29.716,Occlusion_Psychophysics,2022.1.4,Win32,55.78489345,,,left,"[""right""]",[1.2147000000031767],False,,0.0,0.0,80.0,80.0,80.0,1.0,,,,,,
,,,,,,,,,,,,,,,,,,,,,0.05,,,,,,,,,,Stimuli/psy_fixed_rotation_30_objects_occ0.7_0.9s/images/train/n02883344_15/n02933112_4/img_microwave_box_buffet_2005_gray.jpg,n02883344_15,n02933112_4,fixed,0.808676,n02933112_4,Stimuli/psy_fixed_rotation_30_objects_occ0.7_0.9s/images/train/n02883344_15/n02933112_4/img_microwave_box_buffet_2005-3_gray.png,foreground,same as foreground,n02883344_15,n02933112_4,Stimuli/canonical view 2/img_n02883344_15_gray.jpg,Stimuli/canonical view 2/img_n02933112_4_gray.jpg,foreground,left,Experiments/experiment_42/324.jpg,Experiments/experiment_42/325.jpg,Experiments/experiment_42/326.jpg,Experiments/experiment_42/327.jpg,923,1,2023-09-17_11h45.29.716,Occlusion_Psychophysics,2022.1.4,Win32,55.78489345,,,right,"[""left""]",[0.9234000000060405],True,right,1.0,0.0,81.0,81.0,81.0,1.0,0.8862,,,,,
,,,,,,,,,,,,,,,,,,,,,0.05,,,,,,,,,,Stimuli/psy_fixed_rotation_30_objects_occ0.7_0.9s/images/train/n02883344_-1/n02818832_3/img_woven_box_b05_ccm_contemporary_bed_max2013_2007_gray.jpg,n02883344_-1,n02818832_3,fixed,0.738203,n03928116_4,Stimuli/psy_flexible_rotation_30_objects_occ0.7_0.9s/images/train/n02883344_0/n03928116_4/img_b03_box_dp_33_b_2013__vray_2009-3_gray.png,random,flexible,n02883344_-1,n02818832_3,Stimuli/canonical view 2/img_n02883344_-1_gray.jpg,Stimuli/canonical view 2/img_n02818832_3_gray.jpg,foreground,left,Experiments/experiment_42/328.jpg,Experiments/experiment_42/329.jpg,Experiments/experiment_42/330.jpg,Experiments/experiment_42/331.jpg,923,1,2023-09-17_11h45.29.716,Occlusion_Psychophysics,2022.1.4,Win32,55.78489345,,,left,"[""left""]",[1.5541000000089298],False,,0.0,0.0,82.0,82.0,82.0,1.0,,,,,,
,,,,,,,,,,,,,,,,,,,,,0.05,,,,,,,,,,Stimuli/psy_flexible_rotation_30_objects_occ0.7_0.9s/images/train/n04256520_9/n02883344_15/img_napoleon_iii_sofa_microwave_box_2012_gray.jpg,n04256520_9,n02883344_15,flexible,0.752941,n02883344_15,Stimuli/psy_flexible_rotation_30_objects_occ0.7_0.9s/images/train/n04256520_9/n02883344_15/img_napoleon_iii_sofa_microwave_box_2012-3_gray.png,foreground,same as foreground,n04256520_9,n02933112_4,Stimuli/canonical view 2/img_n04256520_9_gray.jpg,Stimuli/canonical view 2/img_n02933112_4_gray.jpg,random,left,Experiments/experiment_42/332.jpg,Experiments/experiment_42/333.jpg,Experiments/experiment_42/334.jpg,Experiments/experiment_42/335.jpg,923,1,2023-09-17_11h45.29.716,Occlusion_Psychophysics,2022.1.4,Win32,55.78489345,,,right,"[""left""]",[1.2110000000000127],False,,0.0,0.0,83.0,83.0,83.0,1.0,,,,,,
,,,,,,,,,,,,,,,,,,,,,0.025,,,,,,,,,,Stimuli/psy_flexible_rotation_30_objects_occ0.7_0.9s/images/train/n04379243_8/n04256520_5/img_glass_table_meridiani_belmondo_bench_sofa_2004_gray.jpg,n04379243_8,n04256520_5,flexible,0.793372,n02818832_3,Stimuli/psy_flexible_rotation_30_objects_occ0.7_0.9s/images/train/n02818832_9/n02818832_3/img_bed01_blue_b05_ccm_contemporary_bed_max2013_2007-3_gray.png,random,flexible,n04379243_8,n03001627_-2,Stimuli/canonical view 2/img_n04379243_8_gray.jpg,Stimuli/canonical view 2/img_n03001627_-2_gray.jpg,random,right,Experiments/experiment_42/336.jpg,Experiments/experiment_42/337.jpg,Experiments/experiment_42/338.jpg,Experiments/experiment_42/339.jpg,923,1,2023-09-17_11h45.29.716,Occlusion_Psychophysics,2022.1.4,Win32,55.78489345,,,right,"[""right""]",[1.2325999999939086],False,,0.0,0.0,84.0,84.0,84.0,1.0,,,,,,
,,,,,,,,,,,,,,,,,,,,,0.025,,,,,,,,,,Stimuli/psy_fixed_rotation_30_objects_occ0.7_0.9s/images/train/n02818832_3/n04379243_-7/img_b05_ccm_contemporary_bed_max2013_quatre_dining_table_2013_gray.jpg,n02818832_3,n04379243_-7,fixed,0.896731,n04379243_-7,Stimuli/psy_fixed_rotation_30_objects_occ0.7_0.9s/images/train/n02818832_3/n04379243_-7/img_b05_ccm_contemporary_bed_max2013_quatre_dining_table_2013-3_gray.png,foreground,same as foreground,n02818832_3,n04379243_-7,Stimuli/canonical view 2/img_n02818832_3_gray.jpg,Stimuli/canonical view 2/img_n04379243_-7_gray.jpg,foreground,left,Experiments/experiment_42/340.jpg,Experiments/experiment_42/341.jpg,Experiments/experiment_42/342.jpg,Experiments/experiment_42/343.jpg,923,1,2023-09-17_11h45.29.716,Occlusion_Psychophysics,2022.1.4,Win32,55.78489345,,,left,"[""right""]",[0.9556000000088716],False,,0.0,0.0,85.0,85.0,85.0,1.0,,,,,,
,,,,,,,,,,,,,,,,,,,,,0.05,,,,,,,,,,Stimuli/psy_flexible_rotation_30_objects_occ0.7_0.9s/images/train/n04256520_9/n04405907_9/img_napoleon_iii_sofa_vray_004_2008_gray.jpg,n04256520_9,n04405907_9,flexible,0.710712,n04405907_9,Stimuli/psy_flexible_rotation_30_objects_occ0.7_0.9s/images/train/n04256520_9/n04405907_9/img_napoleon_iii_sofa_vray_004_2008-3_gray.png,foreground,same as foreground,n04256520_9,n03001627_8,Stimuli/canonical view 2/img_n04256520_9_gray.jpg,Stimuli/canonical view 2/img_n03001627_8_gray.jpg,random,right,Experiments/experiment_42/344.jpg,Experiments/experiment_42/345.jpg,Experiments/experiment_42/346.jpg,Experiments/experiment_42/347.jpg,923,1,2023-09-17_11h45.29.716,Occlusion_Psychophysics,2022.1.4,Win32,55.78489345,,,left,"[""right""]",[1.3753000000117481],False,,0.0,0.0,86.0,86.0,86.0,1.0,,,,,,
,,,,,,,,,,,,,,,,,,,,,0.05,,,,,,,,,,Stimuli/psy_fixed_rotation_30_objects_occ0.7_0.9s/images/train/n02883344_0/n02933112_-18/img_b03_box_cgaxis_models_48_26_vray_composite_2003_gray.jpg,n02883344_0,n02933112_-18,fixed,0.797458,n02933112_4,Stimuli/psy_flexible_rotation_30_objects_occ0.7_0.9s/images/train/n02883344_15/n02933112_4/img_microwave_box_buffet_2004-3_gray.png,random,flexible,n02883344_0,n03001627_-2,Stimuli/canonical view 2/img_n02883344_0_gray.jpg,Stimuli/canonical view 2/img_n03001627_-2_gray.jpg,random,left,Experiments/experiment_42/348.jpg,Experiments/experiment_42/349.jpg,Experiments/experiment_42/350.jpg,Experiments/experiment_42/351.jpg,923,1,2023-09-17_11h45.29.716,Occlusion_Psychophysics,2022.1.4,Win32,55.78489345,,,right,"[""right""]",[0.9693000000117991],False,,0.0,0.0,87.0,87.0,87.0,1.0,,,,,,
,,,,,,,,,,,,,,,,,,,,,0.025,,,,,,,,,,Stimuli/psy_flexible_rotation_30_objects_occ0.7_0.9s/images/train/n02933112_-18/n02933112_4/img_cgaxis_models_48_26_vray_composite_buffet_2014_gray.jpg,n02933112_-18,n02933112_4,flexible,0.751415,n02933112_4,Stimuli/psy_flexible_rotation_30_objects_occ0.7_0.9s/images/train/n02933112_-18/n02933112_4/img_cgaxis_models_48_26_vray_composite_buffet_2014-3_gray.png,foreground,same as foreground,n02933112_-18,n02933112_4,Stimuli/canonical view 2/img_n02933112_-18_gray.jpg,Stimuli/canonical view 2/img_n02933112_4_gray.jpg,foreground,left,Experiments/experiment_42/352.jpg,Experiments/experiment_42/353.jpg,Experiments/experiment_42/354.jpg,Experiments/experiment_42/355.jpg,923,1,2023-09-17_11h45.29.716,Occlusion_Psychophysics,2022.1.4,Win32,55.78489345,,,left,"[""right""]",[0.9249999999999545],False,,0.0,0.0,88.0,88.0,88.0,1.0,,,,,,
,,,,,,,,,,,,,,,,,,,,,0.025,,,,,,,,,,Stimuli/psy_fixed_rotation_30_objects_occ0.7_0.9s/images/train/n04256520_5/n02883344_0/img_meridiani_belmondo_bench_sofa_b03_box_2012_gray.jpg,n04256520_5,n02883344_0,fixed,0.73275,n02883344_0,Stimuli/psy_fixed_rotation_30_objects_occ0.7_0.9s/images/train/n04256520_5/n02883344_0/img_meridiani_belmondo_bench_sofa_b03_box_2012-3_gray.png,foreground,same as foreground,n04256520_5,n02818832_0,Stimuli/canonical view 2/img_n04256520_5_gray.jpg,Stimuli/canonical view 2/img_n02818832_0_gray.jpg,random,left,Experiments/experiment_42/356.jpg,Experiments/experiment_42/357.jpg,Experiments/experiment_42/358.jpg,Experiments/experiment_42/359.jpg,923,1,2023-09-17_11h45.29.716,Occlusion_Psychophysics,2022.1.4,Win32,55.78489345,,,right,"[""right""]",[1.2428999999910957],False,,0.0,0.0,89.0,89.0,89.0,1.0,,,,,,
,,,,,,,,,,,,,,,,,,,,,0.05,,,,,,,,,,Stimuli/psy_fixed_rotation_30_objects_occ0.7_0.9s/images/train/n04405907_8/n02818832_9/img_stylized_tv_bed01_blue_2003_gray.jpg,n04405907_8,n02818832_9,fixed,0.761627,n02818832_9,Stimuli/psy_fixed_rotation_30_objects_occ0.7_0.9s/images/train/n04405907_8/n02818832_9/img_stylized_tv_bed01_blue_2003-3_gray.png,foreground,same as foreground,n04405907_8,n02818832_9,Stimuli/canonical view 2/img_n04405907_8_gray.jpg,Stimuli/canonical view 2/img_n02818832_9_gray.jpg,foreground,right,Experiments/experiment_42/360.jpg,Experiments/experiment_42/361.jpg,Experiments/experiment_42/362.jpg,Experiments/experiment_42/363.jpg,923,1,2023-09-17_11h45.29.716,Occlusion_Psychophysics,2022.1.4,Win32,55.78489345,,,right,"[""left""]",[0.9815000000000964],False,,0.0,0.0,90.0,90.0,90.0,1.0,,,,,,
,,,,,,,,,,,,,,,,,,,,,0.025,,,,,,,,,,Stimuli/psy_flexible_rotation_30_objects_occ0.7_0.9s/images/train/n02818832_3/n02883344_0/img_b05_ccm_contemporary_bed_max2013_b03_box_2010_gray.jpg,n02818832_3,n02883344_0,flexible,0.856594,n02883344_0,Stimuli/psy_flexible_rotation_30_objects_occ0.7_0.9s/images/train/n02818832_3/n02883344_0/img_b05_ccm_contemporary_bed_max2013_b03_box_2010-3_gray.png,foreground,same as foreground,n02818832_3,n02883344_0,Stimuli/canonical view 2/img_n02818832_3_gray.jpg,Stimuli/canonical view 2/img_n02883344_0_gray.jpg,foreground,right,Experiments/experiment_42/364.jpg,Experiments/experiment_42/365.jpg,Experiments/experiment_42/366.jpg,Experiments/experiment_42/367.jpg,923,1,2023-09-17_11h45.29.716,Occlusion_Psychophysics,2022.1.4,Win32,55.78489345,,,left,"[""right""]",[0.9654000000059568],False,,0.0,0.0,91.0,91.0,91.0,1.0,,,,,,
,,,,,,,,,,,,,,,,,,,,,0.025,,,,,,,,,,Stimuli/psy_flexible_rotation_30_objects_occ0.7_0.9s/images/train/n02883344_15/n02883344_-1/img_microwave_box_woven_box_2008_gray.jpg,n02883344_15,n02883344_-1,flexible,0.868366,n04256520_5,Stimuli/psy_fixed_rotation_30_objects_occ0.7_0.9s/images/train/n02818832_0/n04256520_5/img_b03_the_sofa_and_chair_company_-_stanley_bed_2014_meridiani_belmondo_bench_sofa_2006-3_gray.png,random,fixed,n02883344_15,n02883344_-1,Stimuli/canonical view 2/img_n02883344_15_gray.jpg,Stimuli/canonical view 2/img_n02883344_-1_gray.jpg,foreground,right,Experiments/experiment_42/368.jpg,Experiments/experiment_42/369.jpg,Experiments/experiment_42/370.jpg,Experiments/experiment_42/371.jpg,923,1,2023-09-17_11h45.29.716,Occlusion_Psychophysics,2022.1.4,Win32,55.78489345,,,left,"[""right""]",[1.3884000000059586],False,,0.0,0.0,92.0,92.0,92.0,1.0,,,,,,
,,,,,,,,,,,,,,,,,,,,,0.05,,,,,,,,,,Stimuli/psy_flexible_rotation_30_objects_occ0.7_0.9s/images/train/n04405907_9/n04256520_4/img_vray_004_club_house_italia_nautilus_sofa_2008_gray.jpg,n04405907_9,n04256520_4,flexible,0.771991,n04256520_4,Stimuli/psy_flexible_rotation_30_objects_occ0.7_0.9s/images/train/n04405907_9/n04256520_4/img_vray_004_club_house_italia_nautilus_sofa_2008-3_gray.png,foreground,same as foreground,n04405907_9,n04379243_-7,Stimuli/canonical view 2/img_n04405907_9_gray.jpg,Stimuli/canonical view 2/img_n04379243_-7_gray.jpg,random,left,Experiments/experiment_42/372.jpg,Experiments/experiment_42/373.jpg,Experiments/experiment_42/374.jpg,Experiments/experiment_42/375.jpg,923,1,2023-09-17_11h45.29.716,Occlusion_Psychophysics,2022.1.4,Win32,55.78489345,,,left,"[""left""]",[1.4815000000000964],False,,0.0,0.0,93.0,93.0,93.0,1.0,,,,,,
,,,,,,,,,,,,,,,,,,,,,0.025,,,,,,,,,,Stimuli/psy_fixed_rotation_30_objects_occ0.7_0.9s/images/train/n03928116_0/n04379243_0/img_b02_piano_17th_c._monastery_dining_table_2010_2011_gray.jpg,n03928116_0,n04379243_0,fixed,0.872594,n04379243_0,Stimuli/psy_fixed_rotation_30_objects_occ0.7_0.9s/images/train/n03928116_0/n04379243_0/img_b02_piano_17th_c._monastery_dining_table_2010_2011-3_gray.png,foreground,same as foreground,n03928116_0,n04405907_5,Stimuli/canonical view 2/img_n03928116_0_gray.jpg,Stimuli/canonical view 2/img_n04405907_5_gray.jpg,random,right,Experiments/experiment_42/376.jpg,Experiments/experiment_42/377.jpg,Experiments/experiment_42/378.jpg,Experiments/experiment_42/379.jpg,923,1,2023-09-17_11h45.29.716,Occlusion_Psychophysics,2022.1.4,Win32,55.78489345,,,right,"[""right""]",[1.3582999999971435],False,,0.0,0.0,94.0,94.0,94.0,1.0,,,,,,
,,,,,,,,,,,,,,,,,,,,,0.025,,,,,,,,,,Stimuli/psy_flexible_rotation_30_objects_occ0.7_0.9s/images/train/n04256520_5/n03928116_0/img_meridiani_belmondo_bench_sofa_b02_piano_2013_gray.jpg,n04256520_5,n03928116_0,flexible,0.735601,n02883344_15,Stimuli/psy_flexible_rotation_30_objects_occ0.7_0.9s/images/train/n02933112_4/n02883344_15/img_buffet_microwave_box_2001-3_gray.png,random,flexible,n04256520_5,n02933112_4,Stimuli/canonical view 2/img_n04256520_5_gray.jpg,Stimuli/canonical view 2/img_n02933112_4_gray.jpg,random,left,Experiments/experiment_42/380.jpg,Experiments/experiment_42/381.jpg,Experiments/experiment_42/382.jpg,Experiments/experiment_42/383.jpg,923,1,2023-09-17_11h45.29.716,Occlusion_Psychophysics,2022.1.4,Win32,55.78489345,,,left,"[""left""]",[1.1872000000030312],False,,0.0,0.0,95.0,95.0,95.0,1.0,,,,,,
,,,,,,,,,,,,,,,,,,,,,0.025,,,,,,,,,,Stimuli/psy_fixed_rotation_30_objects_occ0.7_0.9s/images/train/n04405907_9/n04405907_5/img_vray_004_samsung_40_uhd_smart_tv_2011_2015_gray.jpg,n04405907_9,n04405907_5,fixed,0.769593,n04405907_5,Stimuli/psy_fixed_rotation_30_objects_occ0.7_0.9s/images/train/n04405907_9/n04405907_5/img_vray_004_samsung_40_uhd_smart_tv_2011_2015-3_gray.png,foreground,same as foreground,n04405907_9,n04405907_5,Stimuli/canonical view 2/img_n04405907_9_gray.jpg,Stimuli/canonical view 2/img_n04405907_5_gray.jpg,foreground,left,Experiments/experiment_42/384.jpg,Experiments/experiment_42/385.jpg,Experiments/experiment_42/386.jpg,Experiments/experiment_42/387.jpg,923,1,2023-09-17_11h45.29.716,Occlusion_Psychophysics,2022.1.4,Win32,55.78489345,,,left,"[""left""]",[1.8274000000060369],False,,0.0,0.0,96.0,96.0,96.0,1.0,,,,,,
,,,,,,,,,,,,,,,,,,,,,0.05,,,,,,,,,,Stimuli/psy_fixed_rotation_30_objects_occ0.7_0.9s/images/train/n02818832_9/n03928116_10/img_bed01_blue_ydp_103_r_2012__vray_2008_gray.jpg,n02818832_9,n03928116_10,fixed,0.714658,n03928116_0,Stimuli/psy_fixed_rotation_30_objects_occ0.7_0.9s/images/train/n04405907_5/n03928116_0/img_samsung_40_uhd_smart_tv_2011_b02_piano_2011-3_gray.png,random,fixed,n02818832_9,n03928116_10,Stimuli/canonical view 2/img_n02818832_9_gray.jpg,Stimuli/canonical view 2/img_n03928116_10_gray.jpg,foreground,left,Experiments/experiment_42/388.jpg,Experiments/experiment_42/389.jpg,Experiments/experiment_42/390.jpg,Experiments/experiment_42/391.jpg,923,1,2023-09-17_11h45.29.716,Occlusion_Psychophysics,2022.1.4,Win32,55.78489345,,,right,"[""left""]",[0.9202000000029784],False,,0.0,0.0,97.0,97.0,97.0,1.0,,,,,,
,,,,,,,,,,,,,,,,,,,,,0.025,,,,,,,,,,Stimuli/psy_flexible_rotation_30_objects_occ0.7_0.9s/images/train/n02828884_4/n04256520_9/img_b05_c-5_classic_series_bench-2012_napoleon_iii_sofa_2004_gray.jpg,n02828884_4,n04256520_9,flexible,0.730486,n03001627_8,Stimuli/psy_fixed_rotation_30_objects_occ0.7_0.9s/images/train/n03928116_0/n03001627_8/img_b02_piano_chair_billiani_doll_2014-3_gray.png,random,fixed,n02828884_4,n04256520_9,Stimuli/canonical view 2/img_n02828884_4_gray.jpg,Stimuli/canonical view 2/img_n04256520_9_gray.jpg,foreground,right,Experiments/experiment_42/392.jpg,Experiments/experiment_42/393.jpg,Experiments/experiment_42/394.jpg,Experiments/experiment_42/395.jpg,923,1,2023-09-17_11h45.29.716,Occlusion_Psychophysics,2022.1.4,Win32,55.78489345,,,left,"[""right""]",[1.050700000002962],False,,0.0,0.0,98.0,98.0,98.0,1.0,,,,,,
,,,,,,,,,,,,,,,,,,,,,0.05,,,,,,,,,,Stimuli/psy_flexible_rotation_30_objects_occ0.7_0.9s/images/train/n02818832_3/n04379243_0/img_b05_ccm_contemporary_bed_max2013_17th_c._monastery_dining_table_2010_2000_gray.jpg,n02818832_3,n04379243_0,flexible,0.707164,n02828884_3,Stimuli/psy_flexible_rotation_30_objects_occ0.7_0.9s/images/train/n02883344_15/n02828884_3/img_microwave_box_b04_wood_metal_park_bench_2000-3_gray.png,random,flexible,n02818832_3,n03001627_-2,Stimuli/canonical view 2/img_n02818832_3_gray.jpg,Stimuli/canonical view 2/img_n03001627_-2_gray.jpg,random,right,Experiments/experiment_42/396.jpg,Experiments/experiment_42/397.jpg,Experiments/experiment_42/398.jpg,Experiments/experiment_42/399.jpg,923,1,2023-09-17_11h45.29.716,Occlusion_Psychophysics,2022.1.4,Win32,55.78489345,,,left,"[""right""]",[1.405099999994036],False,,0.0,0.0,99.0,99.0,99.0,1.0,,,,,,
,,,,,,,,,,,,,,,,,,,,,,,,,,,,,,,,,,,,,,,,,,,,,,,,,,923,1,2023-09-17_11h45.29.716,Occlusion_Psychophysics,2022.1.4,Win32,55.78489345,,,,,,,,,,,,,,,0.0,0.0,0.0,0.0,1.0
,,,,,,,,,,,,,,,,,,,,,0.05,,,,,,,,,,Stimuli/psy_flexible_rotation_30_objects_occ0.7_0.9s/images/train/n02818832_3/n03928116_4/img_b05_ccm_contemporary_bed_max2013_dp_33_b_2013__vray_2005_gray.jpg,n02818832_3,n03928116_4,flexible,0.767728,n03928116_4,Stimuli/psy_flexible_rotation_30_objects_occ0.7_0.9s/images/train/n02818832_3/n03928116_4/img_b05_ccm_contemporary_bed_max2013_dp_33_b_2013__vray_2005-3_gray.png,foreground,same as foreground,n02818832_3,n02828884_9,Stimuli/canonical view 2/img_n02818832_3_gray.jpg,Stimuli/canonical view 2/img_n02828884_9_gray.jpg,random,left,Experiments/experiment_42/400.jpg,Experiments/experiment_42/401.jpg,Experiments/experiment_42/402.jpg,Experiments/experiment_42/403.jpg,923,1,2023-09-17_11h45.29.716,Occlusion_Psychophysics,2022.1.4,Win32,55.78489345,,,right,"[""left""]",[0.8426999999880991],False,,0.0,0.0,0.0,0.0,0.0,1.0,,,,,,
,,,,,,,,,,,,,,,,,,,,,0.05,,,,,,,,,,Stimuli/psy_flexible_rotation_30_objects_occ0.7_0.9s/images/train/n04405907_5/n02818832_9/img_samsung_40_uhd_smart_tv_2011_bed01_blue_2012_gray.jpg,n04405907_5,n02818832_9,flexible,0.800536,n04256520_5,Stimuli/psy_fixed_rotation_30_objects_occ0.7_0.9s/images/train/n02818832_9/n04256520_5/img_bed01_blue_meridiani_belmondo_bench_sofa_2004-3_gray.png,random,fixed,n04405907_5,n02818832_9,Stimuli/canonical view 2/img_n04405907_5_gray.jpg,Stimuli/canonical view 2/img_n02818832_9_gray.jpg,foreground,left,Experiments/experiment_42/404.jpg,Experiments/experiment_42/405.jpg,Experiments/experiment_42/406.jpg,Experiments/experiment_42/407.jpg,923,1,2023-09-17_11h45.29.716,Occlusion_Psychophysics,2022.1.4,Win32,55.78489345,,,right,"[""left""]",[0.9230000000000018],False,,0.0,0.0,1.0,1.0,1.0,1.0,,,,,,
,,,,,,,,,,,,,,,,,,,,,0.05,,,,,,,,,,Stimuli/psy_flexible_rotation_30_objects_occ0.7_0.9s/images/train/n04256520_9/n04256520_4/img_napoleon_iii_sofa_club_house_italia_nautilus_sofa_2004_gray.jpg,n04256520_9,n04256520_4,flexible,0.742212,n02828884_4,Stimuli/psy_fixed_rotation_30_objects_occ0.7_0.9s/images/train/n04379243_8/n02828884_4/img_glass_table_b05_c-5_classic_series_bench-2012_2009-3_gray.png,random,fixed,n04256520_9,n04379243_0,Stimuli/canonical view 2/img_n04256520_9_gray.jpg,Stimuli/canonical view 2/img_n04379243_0_gray.jpg,random,right,Experiments/experiment_42/408.jpg,Experiments/experiment_42/409.jpg,Experiments/experiment_42/410.jpg,Experiments/experiment_42/411.jpg,923,1,2023-09-17_11h45.29.716,Occlusion_Psychophysics,2022.1.4,Win32,55.78489345,,,left,"[""right""]",[1.3775999999938904],False,,0.0,0.0,2.0,2.0,2.0,1.0,,,,,,
,,,,,,,,,,,,,,,,,,,,,0.025,,,,,,,,,,Stimuli/psy_flexible_rotation_30_objects_occ0.7_0.9s/images/train/n04256520_4/n02883344_0/img_club_house_italia_nautilus_sofa_b03_box_2008_gray.jpg,n04256520_4,n02883344_0,flexible,0.737197,n02883344_15,Stimuli/psy_fixed_rotation_30_objects_occ0.7_0.9s/images/train/n02828884_9/n02883344_15/img_cr-96_bench_microwave_box_2006-3_gray.png,random,fixed,n04256520_4,n02883344_0,Stimuli/canonical view 2/img_n04256520_4_gray.jpg,Stimuli/canonical view 2/img_n02883344_0_gray.jpg,foreground,left,Experiments/experiment_42/412.jpg,Experiments/experiment_42/413.jpg,Experiments/experiment_42/414.jpg,Experiments/experiment_42/415.jpg,923,1,2023-09-17_11h45.29.716,Occlusion_Psychophysics,2022.1.4,Win32,55.78489345,,,right,"[""left""]",[0.9269999999999072],False,,0.0,0.0,3.0,3.0,3.0,1.0,,,,,,
,,,,,,,,,,,,,,,,,,,,,0.025,,,,,,,,,,Stimuli/psy_fixed_rotation_30_objects_occ0.7_0.9s/images/train/n02818832_0/n04379243_0/img_b03_the_sofa_and_chair_company_-_stanley_bed_2014_17th_c._monastery_dining_table_2010_2000_gray.jpg,n02818832_0,n04379243_0,fixed,0.832323,n03928116_10,Stimuli/psy_fixed_rotation_30_objects_occ0.7_0.9s/images/train/n02883344_0/n03928116_10/img_b03_box_ydp_103_r_2012__vray_2015-3_gray.png,random,fixed,n02818832_0,n04379243_0,Stimuli/canonical view 2/img_n02818832_0_gray.jpg,Stimuli/canonical view 2/img_n04379243_0_gray.jpg,foreground,left,Experiments/experiment_42/416.jpg,Experiments/experiment_42/417.jpg,Experiments/experiment_42/418.jpg,Experiments/experiment_42/419.jpg,923,1,2023-09-17_11h45.29.716,Occlusion_Psychophysics,2022.1.4,Win32,55.78489345,,,left,"[""right""]",[0.8540000000000418],False,,0.0,0.0,4.0,4.0,4.0,1.0,,,,,,
,,,,,,,,,,,,,,,,,,,,,0.05,,,,,,,,,,Stimuli/psy_flexible_rotation_30_objects_occ0.7_0.9s/images/train/n04405907_8/n04256520_4/img_stylized_tv_club_house_italia_nautilus_sofa_2002_gray.jpg,n04405907_8,n04256520_4,flexible,0.719151,n04256520_4,Stimuli/psy_flexible_rotation_30_objects_occ0.7_0.9s/images/train/n04405907_8/n04256520_4/img_stylized_tv_club_house_italia_nautilus_sofa_2002-3_gray.png,foreground,same as foreground,n04405907_8,n02883344_0,Stimuli/canonical view 2/img_n04405907_8_gray.jpg,Stimuli/canonical view 2/img_n02883344_0_gray.jpg,random,right,Experiments/experiment_42/420.jpg,Experiments/experiment_42/421.jpg,Experiments/experiment_42/422.jpg,Experiments/experiment_42/423.jpg,923,1,2023-09-17_11h45.29.716,Occlusion_Psychophysics,2022.1.4,Win32,55.78489345,,,left,"[""right""]",[1.3090999999940323],True,left,1.0,0.0,5.0,5.0,5.0,1.0,1.5355,,,,,
,,,,,,,,,,,,,,,,,,,,,0.05,,,,,,,,,,Stimuli/psy_fixed_rotation_30_objects_occ0.7_0.9s/images/train/n04405907_8/n02818832_0/img_stylized_tv_b03_the_sofa_and_chair_company_-_stanley_bed_2014_2015_gray.jpg,n04405907_8,n02818832_0,fixed,0.734653,n02818832_0,Stimuli/psy_fixed_rotation_30_objects_occ0.7_0.9s/images/train/n04405907_8/n02818832_0/img_stylized_tv_b03_the_sofa_and_chair_company_-_stanley_bed_2014_2015-3_gray.png,foreground,same as foreground,n04405907_8,n04379243_0,Stimuli/canonical view 2/img_n04405907_8_gray.jpg,Stimuli/canonical view 2/img_n04379243_0_gray.jpg,random,left,Experiments/experiment_42/424.jpg,Experiments/experiment_42/425.jpg,Experiments/experiment_42/426.jpg,Experiments/experiment_42/427.jpg,923,1,2023-09-17_11h45.29.716,Occlusion_Psychophysics,2022.1.4,Win32,55.78489345,,,left,"[""right""]",[1.2370999999941432],False,,0.0,0.0,6.0,6.0,6.0,1.0,,,,,,
,,,,,,,,,,,,,,,,,,,,,0.025,,,,,,,,,,Stimuli/psy_fixed_rotation_30_objects_occ0.7_0.9s/images/train/n02883344_15/n02818832_9/img_microwave_box_bed01_blue_2006_gray.jpg,n02883344_15,n02818832_9,fixed,0.737948,n02818832_9,Stimuli/psy_fixed_rotation_30_objects_occ0.7_0.9s/images/train/n02883344_15/n02818832_9/img_microwave_box_bed01_blue_2006-3_gray.png,foreground,same as foreground,n02883344_15,n04405907_9,Stimuli/canonical view 2/img_n02883344_15_gray.jpg,Stimuli/canonical view 2/img_n04405907_9_gray.jpg,random,right,Experiments/experiment_42/428.jpg,Experiments/experiment_42/429.jpg,Experiments/experiment_42/430.jpg,Experiments/experiment_42/431.jpg,923,1,2023-09-17_11h45.29.716,Occlusion_Psychophysics,2022.1.4,Win32,55.78489345,,,right,"[""left""]",[1.9809000000059314],False,,0.0,0.0,7.0,7.0,7.0,1.0,,,,,,
,,,,,,,,,,,,,,,,,,,,,0.025,,,,,,,,,,Stimuli/psy_fixed_rotation_30_objects_occ0.7_0.9s/images/train/n02818832_9/n02818832_0/img_bed01_blue_b03_the_sofa_and_chair_company_-_stanley_bed_2014_2005_gray.jpg,n02818832_9,n02818832_0,fixed,0.885405,n02818832_0,Stimuli/psy_fixed_rotation_30_objects_occ0.7_0.9s/images/train/n02818832_9/n02818832_0/img_bed01_blue_b03_the_sofa_and_chair_company_-_stanley_bed_2014_2005-3_gray.png,foreground,same as foreground,n02818832_9,n02933112_4,Stimuli/canonical view 2/img_n02818832_9_gray.jpg,Stimuli/canonical view 2/img_n02933112_4_gray.jpg,random,left,Experiments/experiment_42/432.jpg,Experiments/experiment_42/433.jpg,Experiments/experiment_42/434.jpg,Experiments/experiment_42/435.jpg,923,1,2023-09-17_11h45.29.716,Occlusion_Psychophysics,2022.1.4,Win32,55.78489345,,,left,"[""left""]",[2.417799999996987],False,,0.0,0.0,8.0,8.0,8.0,1.0,,,,,,
,,,,,,,,,,,,,,,,,,,,,0.025,,,,,,,,,,Stimuli/psy_fixed_rotation_30_objects_occ0.7_0.9s/images/train/n02933112_-2/n04405907_9/img_sink_base_white_wood_vray_004_2009_gray.jpg,n02933112_-2,n04405907_9,fixed,0.720181,n02883344_15,Stimuli/psy_fixed_rotation_30_objects_occ0.7_0.9s/images/train/n04405907_5/n02883344_15/img_samsung_40_uhd_smart_tv_2011_microwave_box_2009-3_gray.png,random,fixed,n02933112_-2,n04405907_9,Stimuli/canonical view 2/img_n02933112_-2_gray.jpg,Stimuli/canonical view 2/img_n04405907_9_gray.jpg,foreground,left,Experiments/experiment_42/436.jpg,Experiments/experiment_42/437.jpg,Experiments/experiment_42/438.jpg,Experiments/experiment_42/439.jpg,923,1,2023-09-17_11h45.29.716,Occlusion_Psychophysics,2022.1.4,Win32,55.78489345,,,left,"[""right""]",[1.4281000000089534],False,,0.0,0.0,9.0,9.0,9.0,1.0,,,,,,
,,,,,,,,,,,,,,,,,,,,,0.05,,,,,,,,,,Stimuli/psy_flexible_rotation_30_objects_occ0.7_0.9s/images/train/n04405907_8/n02883344_0/img_stylized_tv_b03_box_2006_gray.jpg,n04405907_8,n02883344_0,flexible,0.857162,n04405907_5,Stimuli/psy_fixed_rotation_30_objects_occ0.7_0.9s/images/train/n02883344_-1/n04405907_5/img_woven_box_samsung_40_uhd_smart_tv_2011_2013-3_gray.png,random,fixed,n04405907_8,n03001627_-2,Stimuli/canonical view 2/img_n04405907_8_gray.jpg,Stimuli/canonical view 2/img_n03001627_-2_gray.jpg,random,left,Experiments/experiment_42/440.jpg,Experiments/experiment_42/441.jpg,Experiments/experiment_42/442.jpg,Experiments/experiment_42/443.jpg,923,1,2023-09-17_11h45.29.716,Occlusion_Psychophysics,2022.1.4,Win32,55.78489345,,,right,"[""right""]",[1.4435999999941487],False,,0.0,0.0,10.0,10.0,10.0,1.0,,,,,,
,,,,,,,,,,,,,,,,,,,,,0.025,,,,,,,,,,Stimuli/psy_fixed_rotation_30_objects_occ0.7_0.9s/images/train/n04379243_8/n04405907_8/img_glass_table_stylized_tv_2005_gray.jpg,n04379243_8,n04405907_8,fixed,0.793595,n04405907_9,Stimuli/psy_flexible_rotation_30_objects_occ0.7_0.9s/images/train/n02883344_-1/n04405907_9/img_woven_box_vray_004_2004-3_gray.png,random,flexible,n04379243_8,n02818832_3,Stimuli/canonical view 2/img_n04379243_8_gray.jpg,Stimuli/canonical view 2/img_n02818832_3_gray.jpg,random,left,Experiments/experiment_42/444.jpg,Experiments/experiment_42/445.jpg,Experiments/experiment_42/446.jpg,Experiments/experiment_42/447.jpg,923,1,2023-09-17_11h45.29.716,Occlusion_Psychophysics,2022.1.4,Win32,55.78489345,,,left,"[""left""]",[1.4540000000001783],False,,0.0,0.0,11.0,11.0,11.0,1.0,,,,,,
,,,,,,,,,,,,,,,,,,,,,0.05,,,,,,,,,,Stimuli/psy_fixed_rotation_30_objects_occ0.7_0.9s/images/train/n03928116_10/n04256520_4/img_ydp_103_r_2012__vray_club_house_italia_nautilus_sofa_2012_gray.jpg,n03928116_10,n04256520_4,fixed,0.720559,n04256520_4,Stimuli/psy_fixed_rotation_30_objects_occ0.7_0.9s/images/train/n03928116_10/n04256520_4/img_ydp_103_r_2012__vray_club_house_italia_nautilus_sofa_2012-3_gray.png,foreground,same as foreground,n03928116_10,n04256520_4,Stimuli/canonical view 2/img_n03928116_10_gray.jpg,Stimuli/canonical view 2/img_n04256520_4_gray.jpg,foreground,right,Experiments/experiment_42/448.jpg,Experiments/experiment_42/449.jpg,Experiments/experiment_42/450.jpg,Experiments/experiment_42/451.jpg,923,1,2023-09-17_11h45.29.716,Occlusion_Psychophysics,2022.1.4,Win32,55.78489345,,,left,"[""left""]",[1.8312000000030366],False,,0.0,0.0,12.0,12.0,12.0,1.0,,,,,,
,,,,,,,,,,,,,,,,,,,,,0.025,,,,,,,,,,Stimuli/psy_fixed_rotation_30_objects_occ0.7_0.9s/images/train/n04379243_8/n02933112_-2/img_glass_table_sink_base_white_wood_2010_gray.jpg,n04379243_8,n02933112_-2,fixed,0.731847,n02933112_-2,Stimuli/psy_fixed_rotation_30_objects_occ0.7_0.9s/images/train/n04379243_8/n02933112_-2/img_glass_table_sink_base_white_wood_2010-3_gray.png,foreground,same as foreground,n04379243_8,n04405907_8,Stimuli/canonical view 2/img_n04379243_8_gray.jpg,Stimuli/canonical view 2/img_n04405907_8_gray.jpg,random,right,Experiments/experiment_42/452.jpg,Experiments/experiment_42/453.jpg,Experiments/experiment_42/454.jpg,Experiments/experiment_42/455.jpg,923,1,2023-09-17_11h45.29.716,Occlusion_Psychophysics,2022.1.4,Win32,55.78489345,,,left,"[""left""]",[1.5305000000000746],False,,0.0,0.0,13.0,13.0,13.0,1.0,,,,,,
