in_color,Instructions_key.keys,Instructions_key.rt,Tutorial_instruction_key.keys,Tutorial_instruction_key.rt,Tutorial_fixation_ley.keys,Tutorial_fixation_ley.rt,Tutorial_single_img_key.keys,Tutorial_single_img_key.rt,Tutorial_intra_trial_fixation_key.keys,Tutorial_intra_trial_fixation_key.rt,Tutorial_stimulus_key.keys,Tutorial_stimulus_key.rt,Tutorial_response_key.keys,Tutorial_response_key.rt,Tutorial_attention_check_key.keys,Tutorial_attention_check_key.rt,advance_or_repeat.keys,advance_or_repeat.rt,Practice_instructions_key.keys,Practice_instructions_key.rt,intra_trial_duration,Practice_key_response.keys,Practice_key_response.rt,Practice_react_key.keys,Practice_react_key.rt,Practice_loop.thisRepN,Practice_loop.thisTrialN,Practice_loop.thisN,Practice_loop.thisIndex,Practice_loop.ran,multi_object_filepath,background_id,foreground_id,multi_object_rotation,occlusion_level,single_object_id,single_object_filepath,single_is_foreground_or_random,single_object_rotation,background_choice_id,alt_choice_id,background_option_filepath,alternative_option_filepath,alternative_is_foreground_or_random,location_of_correct_answer,multi_object_exp_filename,single_object_exp_filename,background_option_exp_filename,alternative_option_exp_filename,participant,session,date,expName,psychopyVersion,OS,frameRate,Practice_end_key.keys,Practice_end_key.rt,correct_answer,Input_selection.keys,Input_selection.rt,Was_attention_check,Attention_check.keys,Attention_check.corr,Each_session_loop.thisRepN,Each_session_loop.thisTrialN,Each_session_loop.thisN,Each_session_loop.thisIndex,Each_session_loop.ran,Attention_check.rt,Num_sessions.thisRepN,Num_sessions.thisTrialN,Num_sessions.thisN,Num_sessions.thisIndex,Num_sessions.ran
False,space,98.4125,space,6.5466,right,6.0387,right,6.4579,right,5.767,right,16.3885,right,15.9214,right,15.0352,a,9.3069,right,10.6954,0.05,right,1.3827,r,5.1729,0.0,0.0,0.0,0.0,1.0,Stimuli/psy_fixed_rotation_30_objects_occ0.7_0.9s/images/train/n02933112_-18/n04405907_9/img_cgaxis_models_48_26_vray_composite_vray_004_2003_gray.jpg,n02933112_-18,n04405907_9,fixed,0.746017,n04405907_9,Stimuli/psy_fixed_rotation_30_objects_occ0.7_0.9s/images/train/n02933112_-18/n04405907_9/img_cgaxis_models_48_26_vray_composite_vray_004_2003-3_gray.png,foreground,same as foreground,n02933112_-18,n03001627_9,Stimuli/canonical view 2/img_n02933112_-18_gray.jpg,Stimuli/canonical view 2/img_n03001627_9_gray.jpg,random,left,Experiments/experiment_11/1000.jpg,Experiments/experiment_11/1001.jpg,Experiments/experiment_11/1002.jpg,Experiments/experiment_11/1003.jpg,970,1,2023-09-17_11h40.11.446,Occlusion_Psychophysics,2022.1.4,Win32,60.11060351,,,,,,,,,,,,,,,,,,,
,,,,,,,,,,,,,,,,,,,,,0.025,right,0.6519,r,2.0856,0.0,1.0,1.0,1.0,1.0,Stimuli/psy_fixed_rotation_30_objects_occ0.7_0.9s/images/train/n04379243_8/n04379243_-7/img_glass_table_quatre_dining_table_2005_gray.jpg,n04379243_8,n04379243_-7,fixed,0.753837,n04379243_-7,Stimuli/psy_fixed_rotation_30_objects_occ0.7_0.9s/images/train/n04379243_8/n04379243_-7/img_glass_table_quatre_dining_table_2005-3_gray.png,foreground,same as foreground,n04379243_8,n02933112_4,Stimuli/canonical view 2/img_n04379243_8_gray.jpg,Stimuli/canonical view 2/img_n02933112_4_gray.jpg,random,right,Experiments/experiment_11/1004.jpg,Experiments/experiment_11/1005.jpg,Experiments/experiment_11/1006.jpg,Experiments/experiment_11/1007.jpg,970,1,2023-09-17_11h40.11.446,Occlusion_Psychophysics,2022.1.4,Win32,60.11060351,,,,,,,,,,,,,,,,,,,
,,,,,,,,,,,,,,,,,,,,,0.025,right,1.1481,r,3.9876,0.0,2.0,2.0,2.0,1.0,Stimuli/psy_fixed_rotation_30_objects_occ0.7_0.9s/images/train/n04379243_-7/n02818832_0/img_quatre_dining_table_b03_the_sofa_and_chair_company_-_stanley_bed_2014_2005_gray.jpg,n04379243_-7,n02818832_0,fixed,0.795272,n04256520_9,Stimuli/psy_flexible_rotation_30_objects_occ0.7_0.9s/images/train/n04256520_9/n04256520_9/img_napoleon_iii_sofa_napoleon_iii_sofa_2011-3_gray.png,random,flexible,n04379243_-7,n02818832_0,Stimuli/canonical view 2/img_n04379243_-7_gray.jpg,Stimuli/canonical view 2/img_n02818832_0_gray.jpg,foreground,left,Experiments/experiment_11/1008.jpg,Experiments/experiment_11/1009.jpg,Experiments/experiment_11/1010.jpg,Experiments/experiment_11/1011.jpg,970,1,2023-09-17_11h40.11.446,Occlusion_Psychophysics,2022.1.4,Win32,60.11060351,,,,,,,,,,,,,,,,,,,
,,,,,,,,,,,,,,,,,,,,,0.025,right,1.8203,r,2.1328,0.0,3.0,3.0,3.0,1.0,Stimuli/psy_flexible_rotation_30_objects_occ0.7_0.9s/images/train/n02818832_3/n02933112_4/img_b05_ccm_contemporary_bed_max2013_buffet_2007_gray.jpg,n02818832_3,n02933112_4,flexible,0.802849,n02933112_4,Stimuli/psy_flexible_rotation_30_objects_occ0.7_0.9s/images/train/n02818832_3/n02933112_4/img_b05_ccm_contemporary_bed_max2013_buffet_2007-3_gray.png,foreground,same as foreground,n02818832_3,n04405907_8,Stimuli/canonical view 2/img_n02818832_3_gray.jpg,Stimuli/canonical view 2/img_n04405907_8_gray.jpg,random,left,Experiments/experiment_11/1012.jpg,Experiments/experiment_11/1013.jpg,Experiments/experiment_11/1014.jpg,Experiments/experiment_11/1015.jpg,970,1,2023-09-17_11h40.11.446,Occlusion_Psychophysics,2022.1.4,Win32,60.11060351,,,,,,,,,,,,,,,,,,,
,,,,,,,,,,,,,,,,,,,,,0.025,right,0.7755,a,3.145,0.0,4.0,4.0,4.0,1.0,Stimuli/psy_fixed_rotation_30_objects_occ0.7_0.9s/images/train/n04256520_4/n02828884_4/img_club_house_italia_nautilus_sofa_b05_c-5_classic_series_bench-2012_2010_gray.jpg,n04256520_4,n02828884_4,fixed,0.731976,n02828884_4,Stimuli/psy_fixed_rotation_30_objects_occ0.7_0.9s/images/train/n04256520_4/n02828884_4/img_club_house_italia_nautilus_sofa_b05_c-5_classic_series_bench-2012_2010-3_gray.png,foreground,same as foreground,n04256520_4,n02828884_4,Stimuli/canonical view 2/img_n04256520_4_gray.jpg,Stimuli/canonical view 2/img_n02828884_4_gray.jpg,foreground,right,Experiments/experiment_11/1016.jpg,Experiments/experiment_11/1017.jpg,Experiments/experiment_11/1018.jpg,Experiments/experiment_11/1019.jpg,970,1,2023-09-17_11h40.11.446,Occlusion_Psychophysics,2022.1.4,Win32,60.11060351,,,,,,,,,,,,,,,,,,,
,,,,,,,,,,,,,,,,,,,,,0.05,,,,,,,,,,Stimuli/psy_fixed_rotation_30_objects_occ0.7_0.9s/images/train/n04256520_9/n03928116_4/img_napoleon_iii_sofa_dp_33_b_2013__vray_2007_gray.jpg,n04256520_9,n03928116_4,fixed,0.739255,n03928116_4,Stimuli/psy_fixed_rotation_30_objects_occ0.7_0.9s/images/train/n04256520_9/n03928116_4/img_napoleon_iii_sofa_dp_33_b_2013__vray_2007-3_gray.png,foreground,same as foreground,n04256520_9,n02933112_-2,Stimuli/canonical view 2/img_n04256520_9_gray.jpg,Stimuli/canonical view 2/img_n02933112_-2_gray.jpg,random,right,Experiments/experiment_11/0.jpg,Experiments/experiment_11/1.jpg,Experiments/experiment_11/2.jpg,Experiments/experiment_11/3.jpg,970,1,2023-09-17_11h40.11.446,Occlusion_Psychophysics,2022.1.4,Win32,60.11060351,space,2.9881,right,"[""right""]",[1.3134999999999195],False,,0.0,0.0,0.0,0.0,0.0,1.0,,,,,,
,,,,,,,,,,,,,,,,,,,,,0.05,,,,,,,,,,Stimuli/psy_fixed_rotation_30_objects_occ0.7_0.9s/images/train/n03928116_0/n04405907_9/img_b02_piano_vray_004_2005_gray.jpg,n03928116_0,n04405907_9,fixed,0.708589,n02818832_0,Stimuli/psy_flexible_rotation_30_objects_occ0.7_0.9s/images/train/n04256520_9/n02818832_0/img_napoleon_iii_sofa_b03_the_sofa_and_chair_company_-_stanley_bed_2014_2014-3_gray.png,random,flexible,n03928116_0,n03001627_9,Stimuli/canonical view 2/img_n03928116_0_gray.jpg,Stimuli/canonical view 2/img_n03001627_9_gray.jpg,random,right,Experiments/experiment_11/4.jpg,Experiments/experiment_11/5.jpg,Experiments/experiment_11/6.jpg,Experiments/experiment_11/7.jpg,970,1,2023-09-17_11h40.11.446,Occlusion_Psychophysics,2022.1.4,Win32,60.11060351,,,right,"[""right""]",[0.7149000000002843],False,,0.0,0.0,1.0,1.0,1.0,1.0,,,,,,
,,,,,,,,,,,,,,,,,,,,,0.025,,,,,,,,,,Stimuli/psy_flexible_rotation_30_objects_occ0.7_0.9s/images/train/n02933112_-18/n02818832_3/img_cgaxis_models_48_26_vray_composite_b05_ccm_contemporary_bed_max2013_2008_gray.jpg,n02933112_-18,n02818832_3,flexible,0.805468,n02818832_3,Stimuli/psy_flexible_rotation_30_objects_occ0.7_0.9s/images/train/n02933112_-18/n02818832_3/img_cgaxis_models_48_26_vray_composite_b05_ccm_contemporary_bed_max2013_2008-3_gray.png,foreground,same as foreground,n02933112_-18,n04256520_9,Stimuli/canonical view 2/img_n02933112_-18_gray.jpg,Stimuli/canonical view 2/img_n04256520_9_gray.jpg,random,left,Experiments/experiment_11/8.jpg,Experiments/experiment_11/9.jpg,Experiments/experiment_11/10.jpg,Experiments/experiment_11/11.jpg,970,1,2023-09-17_11h40.11.446,Occlusion_Psychophysics,2022.1.4,Win32,60.11060351,,,left,"[""left""]",[0.7155999999996538],False,,0.0,0.0,2.0,2.0,2.0,1.0,,,,,,
,,,,,,,,,,,,,,,,,,,,,0.05,,,,,,,,,,Stimuli/psy_fixed_rotation_30_objects_occ0.7_0.9s/images/train/n02818832_9/n03928116_10/img_bed01_blue_ydp_103_r_2012__vray_2000_gray.jpg,n02818832_9,n03928116_10,fixed,0.761038,n04405907_9,Stimuli/psy_fixed_rotation_30_objects_occ0.7_0.9s/images/train/n02933112_-18/n04405907_9/img_cgaxis_models_48_26_vray_composite_vray_004_2000-3_gray.png,random,fixed,n02818832_9,n03928116_10,Stimuli/canonical view 2/img_n02818832_9_gray.jpg,Stimuli/canonical view 2/img_n03928116_10_gray.jpg,foreground,right,Experiments/experiment_11/12.jpg,Experiments/experiment_11/13.jpg,Experiments/experiment_11/14.jpg,Experiments/experiment_11/15.jpg,970,1,2023-09-17_11h40.11.446,Occlusion_Psychophysics,2022.1.4,Win32,60.11060351,,,right,"[""left""]",[0.7799999999999727],False,,0.0,0.0,3.0,3.0,3.0,1.0,,,,,,
,,,,,,,,,,,,,,,,,,,,,0.025,,,,,,,,,,Stimuli/psy_flexible_rotation_30_objects_occ0.7_0.9s/images/train/n04379243_0/n04405907_9/img_17th_c._monastery_dining_table_2010_vray_004_2004_gray.jpg,n04379243_0,n04405907_9,flexible,0.803315,n02883344_0,Stimuli/psy_fixed_rotation_30_objects_occ0.7_0.9s/images/train/n03928116_0/n02883344_0/img_b02_piano_b03_box_2014-3_gray.png,random,fixed,n04379243_0,n04405907_9,Stimuli/canonical view 2/img_n04379243_0_gray.jpg,Stimuli/canonical view 2/img_n04405907_9_gray.jpg,foreground,right,Experiments/experiment_11/16.jpg,Experiments/experiment_11/17.jpg,Experiments/experiment_11/18.jpg,Experiments/experiment_11/19.jpg,970,1,2023-09-17_11h40.11.446,Occlusion_Psychophysics,2022.1.4,Win32,60.11060351,,,right,"[""right""]",[0.730099999999652],False,,0.0,0.0,4.0,4.0,4.0,1.0,,,,,,
,,,,,,,,,,,,,,,,,,,,,0.05,,,,,,,,,,Stimuli/psy_fixed_rotation_30_objects_occ0.7_0.9s/images/train/n04256520_9/n02818832_9/img_napoleon_iii_sofa_bed01_blue_2006_gray.jpg,n04256520_9,n02818832_9,fixed,0.808427,n02818832_9,Stimuli/psy_fixed_rotation_30_objects_occ0.7_0.9s/images/train/n04256520_9/n02818832_9/img_napoleon_iii_sofa_bed01_blue_2006-3_gray.png,foreground,same as foreground,n04256520_9,n02818832_9,Stimuli/canonical view 2/img_n04256520_9_gray.jpg,Stimuli/canonical view 2/img_n02818832_9_gray.jpg,foreground,left,Experiments/experiment_11/20.jpg,Experiments/experiment_11/21.jpg,Experiments/experiment_11/22.jpg,Experiments/experiment_11/23.jpg,970,1,2023-09-17_11h40.11.446,Occlusion_Psychophysics,2022.1.4,Win32,60.11060351,,,left,"[""right""]",[0.7344000000003916],False,,0.0,0.0,5.0,5.0,5.0,1.0,,,,,,
,,,,,,,,,,,,,,,,,,,,,0.05,,,,,,,,,,Stimuli/psy_flexible_rotation_30_objects_occ0.7_0.9s/images/train/n04405907_8/n02818832_3/img_stylized_tv_b05_ccm_contemporary_bed_max2013_2012_gray.jpg,n04405907_8,n02818832_3,flexible,0.811747,n02818832_3,Stimuli/psy_flexible_rotation_30_objects_occ0.7_0.9s/images/train/n04405907_8/n02818832_3/img_stylized_tv_b05_ccm_contemporary_bed_max2013_2012-3_gray.png,foreground,same as foreground,n04405907_8,n02818832_3,Stimuli/canonical view 2/img_n04405907_8_gray.jpg,Stimuli/canonical view 2/img_n02818832_3_gray.jpg,foreground,right,Experiments/experiment_11/24.jpg,Experiments/experiment_11/25.jpg,Experiments/experiment_11/26.jpg,Experiments/experiment_11/27.jpg,970,1,2023-09-17_11h40.11.446,Occlusion_Psychophysics,2022.1.4,Win32,60.11060351,,,right,"[""right""]",[0.8157000000010157],True,left,1.0,0.0,6.0,6.0,6.0,1.0,1.1506,,,,,
,,,,,,,,,,,,,,,,,,,,,0.05,,,,,,,,,,Stimuli/psy_fixed_rotation_30_objects_occ0.7_0.9s/images/train/n02828884_4/n04379243_8/img_b05_c-5_classic_series_bench-2012_glass_table_2015_gray.jpg,n02828884_4,n04379243_8,fixed,0.715589,n02818832_0,Stimuli/psy_fixed_rotation_30_objects_occ0.7_0.9s/images/train/n02828884_3/n02818832_0/img_b04_wood_metal_park_bench_b03_the_sofa_and_chair_company_-_stanley_bed_2014_2013-3_gray.png,random,fixed,n02828884_4,n04379243_8,Stimuli/canonical view 2/img_n02828884_4_gray.jpg,Stimuli/canonical view 2/img_n04379243_8_gray.jpg,foreground,right,Experiments/experiment_11/28.jpg,Experiments/experiment_11/29.jpg,Experiments/experiment_11/30.jpg,Experiments/experiment_11/31.jpg,970,1,2023-09-17_11h40.11.446,Occlusion_Psychophysics,2022.1.4,Win32,60.11060351,,,left,"[""left""]",[1.0434000000003607],False,,0.0,0.0,7.0,7.0,7.0,1.0,,,,,,
,,,,,,,,,,,,,,,,,,,,,0.05,,,,,,,,,,Stimuli/psy_flexible_rotation_30_objects_occ0.7_0.9s/images/train/n02828884_9/n02933112_-2/img_cr-96_bench_sink_base_white_wood_2009_gray.jpg,n02828884_9,n02933112_-2,flexible,0.748345,n02883344_-1,Stimuli/psy_flexible_rotation_30_objects_occ0.7_0.9s/images/train/n03001627_8/n02883344_-1/img_chair_billiani_doll_woven_box_2006-3_gray.png,random,flexible,n02828884_9,n03928116_4,Stimuli/canonical view 2/img_n02828884_9_gray.jpg,Stimuli/canonical view 2/img_n03928116_4_gray.jpg,random,right,Experiments/experiment_11/32.jpg,Experiments/experiment_11/33.jpg,Experiments/experiment_11/34.jpg,Experiments/experiment_11/35.jpg,970,1,2023-09-17_11h40.11.446,Occlusion_Psychophysics,2022.1.4,Win32,60.11060351,,,right,"[""right""]",[1.150099999999611],False,,0.0,0.0,8.0,8.0,8.0,1.0,,,,,,
,,,,,,,,,,,,,,,,,,,,,0.05,,,,,,,,,,Stimuli/psy_flexible_rotation_30_objects_occ0.7_0.9s/images/train/n03928116_4/n02818832_0/img_dp_33_b_2013__vray_b03_the_sofa_and_chair_company_-_stanley_bed_2014_2012_gray.jpg,n03928116_4,n02818832_0,flexible,0.75162,n04405907_5,Stimuli/psy_flexible_rotation_30_objects_occ0.7_0.9s/images/train/n02828884_3/n04405907_5/img_b04_wood_metal_park_bench_samsung_40_uhd_smart_tv_2011_2010-3_gray.png,random,flexible,n03928116_4,n02818832_0,Stimuli/canonical view 2/img_n03928116_4_gray.jpg,Stimuli/canonical view 2/img_n02818832_0_gray.jpg,foreground,left,Experiments/experiment_11/36.jpg,Experiments/experiment_11/37.jpg,Experiments/experiment_11/38.jpg,Experiments/experiment_11/39.jpg,970,1,2023-09-17_11h40.11.446,Occlusion_Psychophysics,2022.1.4,Win32,60.11060351,,,left,"[""right""]",[1.146099999999592],False,,0.0,0.0,9.0,9.0,9.0,1.0,,,,,,
,,,,,,,,,,,,,,,,,,,,,0.05,,,,,,,,,,Stimuli/psy_fixed_rotation_30_objects_occ0.7_0.9s/images/train/n03928116_10/n03928116_4/img_ydp_103_r_2012__vray_dp_33_b_2013__vray_2010_gray.jpg,n03928116_10,n03928116_4,fixed,0.759887,n03928116_0,Stimuli/psy_fixed_rotation_30_objects_occ0.7_0.9s/images/train/n03001627_9/n03928116_0/img_chair_eames_plastic_armchair_b02_piano_2010-3_gray.png,random,fixed,n03928116_10,n02828884_3,Stimuli/canonical view 2/img_n03928116_10_gray.jpg,Stimuli/canonical view 2/img_n02828884_3_gray.jpg,random,right,Experiments/experiment_11/40.jpg,Experiments/experiment_11/41.jpg,Experiments/experiment_11/42.jpg,Experiments/experiment_11/43.jpg,970,1,2023-09-17_11h40.11.446,Occlusion_Psychophysics,2022.1.4,Win32,60.11060351,,,right,"[""right""]",[0.8971999999992022],False,,0.0,0.0,10.0,10.0,10.0,1.0,,,,,,
,,,,,,,,,,,,,,,,,,,,,0.05,,,,,,,,,,Stimuli/psy_fixed_rotation_30_objects_occ0.7_0.9s/images/train/n03928116_4/n03928116_10/img_dp_33_b_2013__vray_ydp_103_r_2012__vray_2007_gray.jpg,n03928116_4,n03928116_10,fixed,0.718016,n02818832_3,Stimuli/psy_flexible_rotation_30_objects_occ0.7_0.9s/images/train/n02828884_4/n02818832_3/img_b05_c-5_classic_series_bench-2012_b05_ccm_contemporary_bed_max2013_2003-3_gray.png,random,flexible,n03928116_4,n03001627_8,Stimuli/canonical view 2/img_n03928116_4_gray.jpg,Stimuli/canonical view 2/img_n03001627_8_gray.jpg,random,right,Experiments/experiment_11/44.jpg,Experiments/experiment_11/45.jpg,Experiments/experiment_11/46.jpg,Experiments/experiment_11/47.jpg,970,1,2023-09-17_11h40.11.446,Occlusion_Psychophysics,2022.1.4,Win32,60.11060351,,,right,"[""right""]",[0.9458999999984599],False,,0.0,0.0,11.0,11.0,11.0,1.0,,,,,,
,,,,,,,,,,,,,,,,,,,,,0.025,,,,,,,,,,Stimuli/psy_flexible_rotation_30_objects_occ0.7_0.9s/images/train/n02883344_15/n02883344_-1/img_microwave_box_woven_box_2006_gray.jpg,n02883344_15,n02883344_-1,flexible,0.787709,n02883344_-1,Stimuli/psy_flexible_rotation_30_objects_occ0.7_0.9s/images/train/n02883344_15/n02883344_-1/img_microwave_box_woven_box_2006-3_gray.png,foreground,same as foreground,n02883344_15,n02883344_-1,Stimuli/canonical view 2/img_n02883344_15_gray.jpg,Stimuli/canonical view 2/img_n02883344_-1_gray.jpg,foreground,left,Experiments/experiment_11/48.jpg,Experiments/experiment_11/49.jpg,Experiments/experiment_11/50.jpg,Experiments/experiment_11/51.jpg,970,1,2023-09-17_11h40.11.446,Occlusion_Psychophysics,2022.1.4,Win32,60.11060351,,,right,"[""right""]",[1.2964000000002898],False,,0.0,0.0,12.0,12.0,12.0,1.0,,,,,,
,,,,,,,,,,,,,,,,,,,,,0.05,,,,,,,,,,Stimuli/psy_flexible_rotation_30_objects_occ0.7_0.9s/images/train/n02883344_15/n03001627_-2/img_microwave_box_wood_chair_2003_gray.jpg,n02883344_15,n03001627_-2,flexible,0.849104,n02828884_3,Stimuli/psy_fixed_rotation_30_objects_occ0.7_0.9s/images/train/n04256520_9/n02828884_3/img_napoleon_iii_sofa_b04_wood_metal_park_bench_2004-3_gray.png,random,fixed,n02883344_15,n04405907_5,Stimuli/canonical view 2/img_n02883344_15_gray.jpg,Stimuli/canonical view 2/img_n04405907_5_gray.jpg,random,left,Experiments/experiment_11/52.jpg,Experiments/experiment_11/53.jpg,Experiments/experiment_11/54.jpg,Experiments/experiment_11/55.jpg,970,1,2023-09-17_11h40.11.446,Occlusion_Psychophysics,2022.1.4,Win32,60.11060351,,,right,"[""left""]",[1.1365000000000691],False,,0.0,0.0,13.0,13.0,13.0,1.0,,,,,,
,,,,,,,,,,,,,,,,,,,,,0.025,,,,,,,,,,Stimuli/psy_flexible_rotation_30_objects_occ0.7_0.9s/images/train/n02818832_0/n04405907_9/img_b03_the_sofa_and_chair_company_-_stanley_bed_2014_vray_004_2015_gray.jpg,n02818832_0,n04405907_9,flexible,0.735024,n03928116_10,Stimuli/psy_flexible_rotation_30_objects_occ0.7_0.9s/images/train/n04379243_-7/n03928116_10/img_quatre_dining_table_ydp_103_r_2012__vray_2008-3_gray.png,random,flexible,n02818832_0,n03928116_4,Stimuli/canonical view 2/img_n02818832_0_gray.jpg,Stimuli/canonical view 2/img_n03928116_4_gray.jpg,random,left,Experiments/experiment_11/56.jpg,Experiments/experiment_11/57.jpg,Experiments/experiment_11/58.jpg,Experiments/experiment_11/59.jpg,970,1,2023-09-17_11h40.11.446,Occlusion_Psychophysics,2022.1.4,Win32,60.11060351,,,left,"[""left""]",[1.0960000000000036],False,,0.0,0.0,14.0,14.0,14.0,1.0,,,,,,
,,,,,,,,,,,,,,,,,,,,,0.05,,,,,,,,,,Stimuli/psy_flexible_rotation_30_objects_occ0.7_0.9s/images/train/n02818832_0/n04379243_8/img_b03_the_sofa_and_chair_company_-_stanley_bed_2014_glass_table_2002_gray.jpg,n02818832_0,n04379243_8,flexible,0.705131,n02818832_3,Stimuli/psy_fixed_rotation_30_objects_occ0.7_0.9s/images/train/n02933112_-18/n02818832_3/img_cgaxis_models_48_26_vray_composite_b05_ccm_contemporary_bed_max2013_2009-3_gray.png,random,fixed,n02818832_0,n04379243_8,Stimuli/canonical view 2/img_n02818832_0_gray.jpg,Stimuli/canonical view 2/img_n04379243_8_gray.jpg,foreground,left,Experiments/experiment_11/60.jpg,Experiments/experiment_11/61.jpg,Experiments/experiment_11/62.jpg,Experiments/experiment_11/63.jpg,970,1,2023-09-17_11h40.11.446,Occlusion_Psychophysics,2022.1.4,Win32,60.11060351,,,left,"[""left""]",[1.1811000000014928],False,,0.0,0.0,15.0,15.0,15.0,1.0,,,,,,
,,,,,,,,,,,,,,,,,,,,,0.05,,,,,,,,,,Stimuli/psy_flexible_rotation_30_objects_occ0.7_0.9s/images/train/n04379243_-7/n02828884_3/img_quatre_dining_table_b04_wood_metal_park_bench_2015_gray.jpg,n04379243_-7,n02828884_3,flexible,0.765716,n04379243_-7,Stimuli/psy_flexible_rotation_30_objects_occ0.7_0.9s/images/train/n02818832_3/n04379243_-7/img_b05_ccm_contemporary_bed_max2013_quatre_dining_table_2014-3_gray.png,random,flexible,n04379243_-7,n02828884_3,Stimuli/canonical view 2/img_n04379243_-7_gray.jpg,Stimuli/canonical view 2/img_n02828884_3_gray.jpg,foreground,left,Experiments/experiment_11/64.jpg,Experiments/experiment_11/65.jpg,Experiments/experiment_11/66.jpg,Experiments/experiment_11/67.jpg,970,1,2023-09-17_11h40.11.446,Occlusion_Psychophysics,2022.1.4,Win32,60.11060351,,,right,"[""left""]",[1.0802000000011276],False,,0.0,0.0,16.0,16.0,16.0,1.0,,,,,,
,,,,,,,,,,,,,,,,,,,,,0.05,,,,,,,,,,Stimuli/psy_flexible_rotation_30_objects_occ0.7_0.9s/images/train/n02818832_0/n03928116_0/img_b03_the_sofa_and_chair_company_-_stanley_bed_2014_b02_piano_2006_gray.jpg,n02818832_0,n03928116_0,flexible,0.737019,n03928116_0,Stimuli/psy_flexible_rotation_30_objects_occ0.7_0.9s/images/train/n02818832_0/n03928116_0/img_b03_the_sofa_and_chair_company_-_stanley_bed_2014_b02_piano_2006-3_gray.png,foreground,same as foreground,n02818832_0,n02933112_4,Stimuli/canonical view 2/img_n02818832_0_gray.jpg,Stimuli/canonical view 2/img_n02933112_4_gray.jpg,random,left,Experiments/experiment_11/68.jpg,Experiments/experiment_11/69.jpg,Experiments/experiment_11/70.jpg,Experiments/experiment_11/71.jpg,970,1,2023-09-17_11h40.11.446,Occlusion_Psychophysics,2022.1.4,Win32,60.11060351,,,left,"[""left""]",[0.8479999999999563],False,,0.0,0.0,17.0,17.0,17.0,1.0,,,,,,
,,,,,,,,,,,,,,,,,,,,,0.05,,,,,,,,,,Stimuli/psy_flexible_rotation_30_objects_occ0.7_0.9s/images/train/n02883344_-1/n04379243_-7/img_woven_box_quatre_dining_table_2015_gray.jpg,n02883344_-1,n04379243_-7,flexible,0.776499,n04405907_8,Stimuli/psy_fixed_rotation_30_objects_occ0.7_0.9s/images/train/n02933112_-2/n04405907_8/img_sink_base_white_wood_stylized_tv_2008-3_gray.png,random,fixed,n02883344_-1,n04379243_-7,Stimuli/canonical view 2/img_n02883344_-1_gray.jpg,Stimuli/canonical view 2/img_n04379243_-7_gray.jpg,foreground,left,Experiments/experiment_11/72.jpg,Experiments/experiment_11/73.jpg,Experiments/experiment_11/74.jpg,Experiments/experiment_11/75.jpg,970,1,2023-09-17_11h40.11.446,Occlusion_Psychophysics,2022.1.4,Win32,60.11060351,,,left,"[""left""]",[0.7955999999995811],False,,0.0,0.0,18.0,18.0,18.0,1.0,,,,,,
,,,,,,,,,,,,,,,,,,,,,0.025,,,,,,,,,,Stimuli/psy_flexible_rotation_30_objects_occ0.7_0.9s/images/train/n03928116_4/n02818832_9/img_dp_33_b_2013__vray_bed01_blue_2006_gray.jpg,n03928116_4,n02818832_9,flexible,0.736413,n02818832_9,Stimuli/psy_flexible_rotation_30_objects_occ0.7_0.9s/images/train/n03928116_4/n02818832_9/img_dp_33_b_2013__vray_bed01_blue_2006-3_gray.png,foreground,same as foreground,n03928116_4,n04379243_0,Stimuli/canonical view 2/img_n03928116_4_gray.jpg,Stimuli/canonical view 2/img_n04379243_0_gray.jpg,random,right,Experiments/experiment_11/76.jpg,Experiments/experiment_11/77.jpg,Experiments/experiment_11/78.jpg,Experiments/experiment_11/79.jpg,970,1,2023-09-17_11h40.11.446,Occlusion_Psychophysics,2022.1.4,Win32,60.11060351,,,left,"[""right""]",[1.81149999999991],False,,0.0,0.0,19.0,19.0,19.0,1.0,,,,,,
,,,,,,,,,,,,,,,,,,,,,0.025,,,,,,,,,,Stimuli/psy_flexible_rotation_30_objects_occ0.7_0.9s/images/train/n02933112_4/n04256520_5/img_buffet_meridiani_belmondo_bench_sofa_2002_gray.jpg,n02933112_4,n04256520_5,flexible,0.79637,n02883344_-1,Stimuli/psy_flexible_rotation_30_objects_occ0.7_0.9s/images/train/n03001627_-2/n02883344_-1/img_wood_chair_woven_box_2011-3_gray.png,random,flexible,n02933112_4,n02883344_15,Stimuli/canonical view 2/img_n02933112_4_gray.jpg,Stimuli/canonical view 2/img_n02883344_15_gray.jpg,random,right,Experiments/experiment_11/80.jpg,Experiments/experiment_11/81.jpg,Experiments/experiment_11/82.jpg,Experiments/experiment_11/83.jpg,970,1,2023-09-17_11h40.11.446,Occlusion_Psychophysics,2022.1.4,Win32,60.11060351,,,left,"[""left""]",[1.1825000000000045],False,,0.0,0.0,20.0,20.0,20.0,1.0,,,,,,
,,,,,,,,,,,,,,,,,,,,,0.025,,,,,,,,,,Stimuli/psy_fixed_rotation_30_objects_occ0.7_0.9s/images/train/n02828884_3/n04405907_5/img_b04_wood_metal_park_bench_samsung_40_uhd_smart_tv_2011_2009_gray.jpg,n02828884_3,n04405907_5,fixed,0.720289,n04405907_5,Stimuli/psy_fixed_rotation_30_objects_occ0.7_0.9s/images/train/n02828884_3/n04405907_5/img_b04_wood_metal_park_bench_samsung_40_uhd_smart_tv_2011_2009-3_gray.png,foreground,same as foreground,n02828884_3,n03928116_0,Stimuli/canonical view 2/img_n02828884_3_gray.jpg,Stimuli/canonical view 2/img_n03928116_0_gray.jpg,random,right,Experiments/experiment_11/84.jpg,Experiments/experiment_11/85.jpg,Experiments/experiment_11/86.jpg,Experiments/experiment_11/87.jpg,970,1,2023-09-17_11h40.11.446,Occlusion_Psychophysics,2022.1.4,Win32,60.11060351,,,left,"[""left""]",[0.7955999999996948],False,,0.0,0.0,21.0,21.0,21.0,1.0,,,,,,
,,,,,,,,,,,,,,,,,,,,,0.025,,,,,,,,,,Stimuli/psy_fixed_rotation_30_objects_occ0.7_0.9s/images/train/n03928116_10/n02933112_4/img_ydp_103_r_2012__vray_buffet_2011_gray.jpg,n03928116_10,n02933112_4,fixed,0.730159,n02883344_0,Stimuli/psy_fixed_rotation_30_objects_occ0.7_0.9s/images/train/n03928116_0/n02883344_0/img_b02_piano_b03_box_2008-3_gray.png,random,fixed,n03928116_10,n04405907_8,Stimuli/canonical view 2/img_n03928116_10_gray.jpg,Stimuli/canonical view 2/img_n04405907_8_gray.jpg,random,right,Experiments/experiment_11/88.jpg,Experiments/experiment_11/89.jpg,Experiments/experiment_11/90.jpg,Experiments/experiment_11/91.jpg,970,1,2023-09-17_11h40.11.446,Occlusion_Psychophysics,2022.1.4,Win32,60.11060351,,,left,"[""right""]",[1.3978000000007569],False,,0.0,0.0,22.0,22.0,22.0,1.0,,,,,,
,,,,,,,,,,,,,,,,,,,,,0.025,,,,,,,,,,Stimuli/psy_fixed_rotation_30_objects_occ0.7_0.9s/images/train/n02818832_9/n02883344_15/img_bed01_blue_microwave_box_2005_gray.jpg,n02818832_9,n02883344_15,fixed,0.799632,n04405907_5,Stimuli/psy_flexible_rotation_30_objects_occ0.7_0.9s/images/train/n02933112_-2/n04405907_5/img_sink_base_white_wood_samsung_40_uhd_smart_tv_2011_2005-3_gray.png,random,flexible,n02818832_9,n03928116_10,Stimuli/canonical view 2/img_n02818832_9_gray.jpg,Stimuli/canonical view 2/img_n03928116_10_gray.jpg,random,left,Experiments/experiment_11/92.jpg,Experiments/experiment_11/93.jpg,Experiments/experiment_11/94.jpg,Experiments/experiment_11/95.jpg,970,1,2023-09-17_11h40.11.446,Occlusion_Psychophysics,2022.1.4,Win32,60.11060351,,,left,"[""left""]",[0.9871000000014192],False,,0.0,0.0,23.0,23.0,23.0,1.0,,,,,,
,,,,,,,,,,,,,,,,,,,,,0.05,,,,,,,,,,Stimuli/psy_flexible_rotation_30_objects_occ0.7_0.9s/images/train/n04379243_0/n04405907_8/img_17th_c._monastery_dining_table_2010_stylized_tv_2008_gray.jpg,n04379243_0,n04405907_8,flexible,0.714744,n04405907_8,Stimuli/psy_flexible_rotation_30_objects_occ0.7_0.9s/images/train/n04379243_0/n04405907_8/img_17th_c._monastery_dining_table_2010_stylized_tv_2008-3_gray.png,foreground,same as foreground,n04379243_0,n03928116_10,Stimuli/canonical view 2/img_n04379243_0_gray.jpg,Stimuli/canonical view 2/img_n03928116_10_gray.jpg,random,left,Experiments/experiment_11/96.jpg,Experiments/experiment_11/97.jpg,Experiments/experiment_11/98.jpg,Experiments/experiment_11/99.jpg,970,1,2023-09-17_11h40.11.446,Occlusion_Psychophysics,2022.1.4,Win32,60.11060351,,,right,"[""right""]",[0.617900000000418],False,,0.0,0.0,24.0,24.0,24.0,1.0,,,,,,
,,,,,,,,,,,,,,,,,,,,,0.05,,,,,,,,,,Stimuli/psy_flexible_rotation_30_objects_occ0.7_0.9s/images/train/n03001627_9/n02828884_3/img_chair_eames_plastic_armchair_b04_wood_metal_park_bench_2013_gray.jpg,n03001627_9,n02828884_3,flexible,0.721775,n02828884_3,Stimuli/psy_flexible_rotation_30_objects_occ0.7_0.9s/images/train/n03001627_9/n02828884_3/img_chair_eames_plastic_armchair_b04_wood_metal_park_bench_2013-3_gray.png,foreground,same as foreground,n03001627_9,n02883344_15,Stimuli/canonical view 2/img_n03001627_9_gray.jpg,Stimuli/canonical view 2/img_n02883344_15_gray.jpg,random,left,Experiments/experiment_11/100.jpg,Experiments/experiment_11/101.jpg,Experiments/experiment_11/102.jpg,Experiments/experiment_11/103.jpg,970,1,2023-09-17_11h40.11.446,Occlusion_Psychophysics,2022.1.4,Win32,60.11060351,,,right,"[""right""]",[0.8325999999997293],True,left,1.0,0.0,25.0,25.0,25.0,1.0,0.9455,,,,,
,,,,,,,,,,,,,,,,,,,,,0.05,,,,,,,,,,Stimuli/psy_flexible_rotation_30_objects_occ0.7_0.9s/images/train/n02883344_0/n02828884_3/img_b03_box_b04_wood_metal_park_bench_2004_gray.jpg,n02883344_0,n02828884_3,flexible,0.822167,n02828884_3,Stimuli/psy_flexible_rotation_30_objects_occ0.7_0.9s/images/train/n02883344_0/n02828884_3/img_b03_box_b04_wood_metal_park_bench_2004-3_gray.png,foreground,same as foreground,n02883344_0,n02818832_9,Stimuli/canonical view 2/img_n02883344_0_gray.jpg,Stimuli/canonical view 2/img_n02818832_9_gray.jpg,random,left,Experiments/experiment_11/104.jpg,Experiments/experiment_11/105.jpg,Experiments/experiment_11/106.jpg,Experiments/experiment_11/107.jpg,970,1,2023-09-17_11h40.11.446,Occlusion_Psychophysics,2022.1.4,Win32,60.11060351,,,left,"[""left""]",[0.849200000001133],False,,0.0,0.0,26.0,26.0,26.0,1.0,,,,,,
,,,,,,,,,,,,,,,,,,,,,0.025,,,,,,,,,,Stimuli/psy_flexible_rotation_30_objects_occ0.7_0.9s/images/train/n02933112_-18/n02933112_-2/img_cgaxis_models_48_26_vray_composite_sink_base_white_wood_2006_gray.jpg,n02933112_-18,n02933112_-2,flexible,0.862918,n02933112_-2,Stimuli/psy_flexible_rotation_30_objects_occ0.7_0.9s/images/train/n02933112_-18/n02933112_-2/img_cgaxis_models_48_26_vray_composite_sink_base_white_wood_2006-3_gray.png,foreground,same as foreground,n02933112_-18,n02933112_-2,Stimuli/canonical view 2/img_n02933112_-18_gray.jpg,Stimuli/canonical view 2/img_n02933112_-2_gray.jpg,foreground,right,Experiments/experiment_11/108.jpg,Experiments/experiment_11/109.jpg,Experiments/experiment_11/110.jpg,Experiments/experiment_11/111.jpg,970,1,2023-09-17_11h40.11.446,Occlusion_Psychophysics,2022.1.4,Win32,60.11060351,,,left,"[""right""]",[0.9320000000000164],False,,0.0,0.0,27.0,27.0,27.0,1.0,,,,,,
,,,,,,,,,,,,,,,,,,,,,0.025,,,,,,,,,,Stimuli/psy_flexible_rotation_30_objects_occ0.7_0.9s/images/train/n02828884_4/n04379243_-7/img_b05_c-5_classic_series_bench-2012_quatre_dining_table_2008_gray.jpg,n02828884_4,n04379243_-7,flexible,0.729489,n04379243_-7,Stimuli/psy_flexible_rotation_30_objects_occ0.7_0.9s/images/train/n02828884_4/n04379243_-7/img_b05_c-5_classic_series_bench-2012_quatre_dining_table_2008-3_gray.png,foreground,same as foreground,n02828884_4,n02883344_15,Stimuli/canonical view 2/img_n02828884_4_gray.jpg,Stimuli/canonical view 2/img_n02883344_15_gray.jpg,random,left,Experiments/experiment_11/112.jpg,Experiments/experiment_11/113.jpg,Experiments/experiment_11/114.jpg,Experiments/experiment_11/115.jpg,970,1,2023-09-17_11h40.11.446,Occlusion_Psychophysics,2022.1.4,Win32,60.11060351,,,right,"[""right""]",[1.335299999998938],False,,0.0,0.0,28.0,28.0,28.0,1.0,,,,,,
,,,,,,,,,,,,,,,,,,,,,0.05,,,,,,,,,,Stimuli/psy_fixed_rotation_30_objects_occ0.7_0.9s/images/train/n03928116_10/n04379243_-7/img_ydp_103_r_2012__vray_quatre_dining_table_2000_gray.jpg,n03928116_10,n04379243_-7,fixed,0.792488,n03928116_4,Stimuli/psy_flexible_rotation_30_objects_occ0.7_0.9s/images/train/n04256520_9/n03928116_4/img_napoleon_iii_sofa_dp_33_b_2013__vray_2005-3_gray.png,random,flexible,n03928116_10,n04379243_-7,Stimuli/canonical view 2/img_n03928116_10_gray.jpg,Stimuli/canonical view 2/img_n04379243_-7_gray.jpg,foreground,right,Experiments/experiment_11/116.jpg,Experiments/experiment_11/117.jpg,Experiments/experiment_11/118.jpg,Experiments/experiment_11/119.jpg,970,1,2023-09-17_11h40.11.446,Occlusion_Psychophysics,2022.1.4,Win32,60.11060351,,,left,"[""left""]",[0.6844000000003234],False,,0.0,0.0,29.0,29.0,29.0,1.0,,,,,,
,,,,,,,,,,,,,,,,,,,,,0.025,,,,,,,,,,Stimuli/psy_fixed_rotation_30_objects_occ0.7_0.9s/images/train/n02828884_4/n02883344_15/img_b05_c-5_classic_series_bench-2012_microwave_box_2013_gray.jpg,n02828884_4,n02883344_15,fixed,0.701196,n02883344_15,Stimuli/psy_fixed_rotation_30_objects_occ0.7_0.9s/images/train/n02828884_4/n02883344_15/img_b05_c-5_classic_series_bench-2012_microwave_box_2013-3_gray.png,foreground,same as foreground,n02828884_4,n02933112_-2,Stimuli/canonical view 2/img_n02828884_4_gray.jpg,Stimuli/canonical view 2/img_n02933112_-2_gray.jpg,random,left,Experiments/experiment_11/120.jpg,Experiments/experiment_11/121.jpg,Experiments/experiment_11/122.jpg,Experiments/experiment_11/123.jpg,970,1,2023-09-17_11h40.11.446,Occlusion_Psychophysics,2022.1.4,Win32,60.11060351,,,right,"[""right""]",[0.654799999998886],True,left,1.0,0.0,30.0,30.0,30.0,1.0,0.8005,,,,,
,,,,,,,,,,,,,,,,,,,,,0.05,,,,,,,,,,Stimuli/psy_flexible_rotation_30_objects_occ0.7_0.9s/images/train/n02883344_0/n04256520_4/img_b03_box_club_house_italia_nautilus_sofa_2013_gray.jpg,n02883344_0,n04256520_4,flexible,0.816271,n02818832_3,Stimuli/psy_flexible_rotation_30_objects_occ0.7_0.9s/images/train/n04070727_3/n02818832_3/img_b05_db_apps_tech_06_02_2_composite_b05_ccm_contemporary_bed_max2013_2015-3_gray.png,random,flexible,n02883344_0,n02828884_4,Stimuli/canonical view 2/img_n02883344_0_gray.jpg,Stimuli/canonical view 2/img_n02828884_4_gray.jpg,random,right,Experiments/experiment_11/124.jpg,Experiments/experiment_11/125.jpg,Experiments/experiment_11/126.jpg,Experiments/experiment_11/127.jpg,970,1,2023-09-17_11h40.11.446,Occlusion_Psychophysics,2022.1.4,Win32,60.11060351,,,left,"[""left""]",[0.9472000000010894],False,,0.0,0.0,31.0,31.0,31.0,1.0,,,,,,
,,,,,,,,,,,,,,,,,,,,,0.05,,,,,,,,,,Stimuli/psy_flexible_rotation_30_objects_occ0.7_0.9s/images/train/n02818832_0/n04379243_0/img_b03_the_sofa_and_chair_company_-_stanley_bed_2014_17th_c._monastery_dining_table_2010_2010_gray.jpg,n02818832_0,n04379243_0,flexible,0.776833,n03928116_0,Stimuli/psy_fixed_rotation_30_objects_occ0.7_0.9s/images/train/n04070727_0/n03928116_0/img_b03_ka90ivi20r_2013__vray_b02_piano_2006-3_gray.png,random,fixed,n02818832_0,n04379243_0,Stimuli/canonical view 2/img_n02818832_0_gray.jpg,Stimuli/canonical view 2/img_n04379243_0_gray.jpg,foreground,right,Experiments/experiment_11/128.jpg,Experiments/experiment_11/129.jpg,Experiments/experiment_11/130.jpg,Experiments/experiment_11/131.jpg,970,1,2023-09-17_11h40.11.446,Occlusion_Psychophysics,2022.1.4,Win32,60.11060351,,,right,"[""right""]",[0.8029999999999973],False,,0.0,0.0,32.0,32.0,32.0,1.0,,,,,,
,,,,,,,,,,,,,,,,,,,,,0.025,,,,,,,,,,Stimuli/psy_fixed_rotation_30_objects_occ0.7_0.9s/images/train/n04379243_0/n04256520_9/img_17th_c._monastery_dining_table_2010_napoleon_iii_sofa_2013_gray.jpg,n04379243_0,n04256520_9,fixed,0.813298,n04256520_9,Stimuli/psy_fixed_rotation_30_objects_occ0.7_0.9s/images/train/n04379243_0/n04256520_9/img_17th_c._monastery_dining_table_2010_napoleon_iii_sofa_2013-3_gray.png,foreground,same as foreground,n04379243_0,n03001627_-2,Stimuli/canonical view 2/img_n04379243_0_gray.jpg,Stimuli/canonical view 2/img_n03001627_-2_gray.jpg,random,right,Experiments/experiment_11/132.jpg,Experiments/experiment_11/133.jpg,Experiments/experiment_11/134.jpg,Experiments/experiment_11/135.jpg,970,1,2023-09-17_11h40.11.446,Occlusion_Psychophysics,2022.1.4,Win32,60.11060351,,,right,"[""left""]",[0.9143000000007078],False,,0.0,0.0,33.0,33.0,33.0,1.0,,,,,,
,,,,,,,,,,,,,,,,,,,,,0.05,,,,,,,,,,Stimuli/psy_flexible_rotation_30_objects_occ0.7_0.9s/images/train/n04256520_9/n03928116_10/img_napoleon_iii_sofa_ydp_103_r_2012__vray_2014_gray.jpg,n04256520_9,n03928116_10,flexible,0.716797,n04256520_9,Stimuli/psy_fixed_rotation_30_objects_occ0.7_0.9s/images/train/n02883344_0/n04256520_9/img_b03_box_napoleon_iii_sofa_2012-3_gray.png,random,fixed,n04256520_9,n02933112_-2,Stimuli/canonical view 2/img_n04256520_9_gray.jpg,Stimuli/canonical view 2/img_n02933112_-2_gray.jpg,random,left,Experiments/experiment_11/136.jpg,Experiments/experiment_11/137.jpg,Experiments/experiment_11/138.jpg,Experiments/experiment_11/139.jpg,970,1,2023-09-17_11h40.11.446,Occlusion_Psychophysics,2022.1.4,Win32,60.11060351,,,left,"[""left""]",[0.7170999999996184],False,,0.0,0.0,34.0,34.0,34.0,1.0,,,,,,
,,,,,,,,,,,,,,,,,,,,,0.05,,,,,,,,,,Stimuli/psy_fixed_rotation_30_objects_occ0.7_0.9s/images/train/n04405907_9/n04256520_4/img_vray_004_club_house_italia_nautilus_sofa_2000_gray.jpg,n04405907_9,n04256520_4,fixed,0.848836,n02883344_15,Stimuli/psy_flexible_rotation_30_objects_occ0.7_0.9s/images/train/n02933112_-2/n02883344_15/img_sink_base_white_wood_microwave_box_2014-3_gray.png,random,flexible,n04405907_9,n04256520_9,Stimuli/canonical view 2/img_n04405907_9_gray.jpg,Stimuli/canonical view 2/img_n04256520_9_gray.jpg,random,right,Experiments/experiment_11/140.jpg,Experiments/experiment_11/141.jpg,Experiments/experiment_11/142.jpg,Experiments/experiment_11/143.jpg,970,1,2023-09-17_11h40.11.446,Occlusion_Psychophysics,2022.1.4,Win32,60.11060351,,,left,"[""right""]",[0.630300000000716],False,,0.0,0.0,35.0,35.0,35.0,1.0,,,,,,
,,,,,,,,,,,,,,,,,,,,,0.025,,,,,,,,,,Stimuli/psy_flexible_rotation_30_objects_occ0.7_0.9s/images/train/n02828884_9/n04405907_8/img_cr-96_bench_stylized_tv_2001_gray.jpg,n02828884_9,n04405907_8,flexible,0.744051,n04405907_8,Stimuli/psy_flexible_rotation_30_objects_occ0.7_0.9s/images/train/n02828884_9/n04405907_8/img_cr-96_bench_stylized_tv_2001-3_gray.png,foreground,same as foreground,n02828884_9,n04405907_8,Stimuli/canonical view 2/img_n02828884_9_gray.jpg,Stimuli/canonical view 2/img_n04405907_8_gray.jpg,foreground,right,Experiments/experiment_11/144.jpg,Experiments/experiment_11/145.jpg,Experiments/experiment_11/146.jpg,Experiments/experiment_11/147.jpg,970,1,2023-09-17_11h40.11.446,Occlusion_Psychophysics,2022.1.4,Win32,60.11060351,,,left,"[""left""]",[0.5644000000004326],False,,0.0,0.0,36.0,36.0,36.0,1.0,,,,,,
,,,,,,,,,,,,,,,,,,,,,0.05,,,,,,,,,,Stimuli/psy_flexible_rotation_30_objects_occ0.7_0.9s/images/train/n04379243_-7/n04256520_5/img_quatre_dining_table_meridiani_belmondo_bench_sofa_2005_gray.jpg,n04379243_-7,n04256520_5,flexible,0.757065,n03928116_0,Stimuli/psy_flexible_rotation_30_objects_occ0.7_0.9s/images/train/n04256520_4/n03928116_0/img_club_house_italia_nautilus_sofa_b02_piano_2008-3_gray.png,random,flexible,n04379243_-7,n04256520_4,Stimuli/canonical view 2/img_n04379243_-7_gray.jpg,Stimuli/canonical view 2/img_n04256520_4_gray.jpg,random,right,Experiments/experiment_11/148.jpg,Experiments/experiment_11/149.jpg,Experiments/experiment_11/150.jpg,Experiments/experiment_11/151.jpg,970,1,2023-09-17_11h40.11.446,Occlusion_Psychophysics,2022.1.4,Win32,60.11060351,,,right,"[""right""]",[0.846400000000358],True,right,1.0,0.0,37.0,37.0,37.0,1.0,0.8343,,,,,
,,,,,,,,,,,,,,,,,,,,,0.05,,,,,,,,,,Stimuli/psy_flexible_rotation_30_objects_occ0.7_0.9s/images/train/n04405907_9/n03928116_4/img_vray_004_dp_33_b_2013__vray_2014_gray.jpg,n04405907_9,n03928116_4,flexible,0.708729,n04405907_9,Stimuli/psy_fixed_rotation_30_objects_occ0.7_0.9s/images/train/n03928116_0/n04405907_9/img_b02_piano_vray_004_2003-3_gray.png,random,fixed,n04405907_9,n03928116_4,Stimuli/canonical view 2/img_n04405907_9_gray.jpg,Stimuli/canonical view 2/img_n03928116_4_gray.jpg,foreground,left,Experiments/experiment_11/152.jpg,Experiments/experiment_11/153.jpg,Experiments/experiment_11/154.jpg,Experiments/experiment_11/155.jpg,970,1,2023-09-17_11h40.11.446,Occlusion_Psychophysics,2022.1.4,Win32,60.11060351,,,right,"[""left""]",[1.4999000000003662],False,,0.0,0.0,38.0,38.0,38.0,1.0,,,,,,
,,,,,,,,,,,,,,,,,,,,,0.05,,,,,,,,,,Stimuli/psy_fixed_rotation_30_objects_occ0.7_0.9s/images/train/n03928116_0/n04405907_8/img_b02_piano_stylized_tv_2003_gray.jpg,n03928116_0,n04405907_8,fixed,0.848101,n04405907_8,Stimuli/psy_fixed_rotation_30_objects_occ0.7_0.9s/images/train/n03928116_0/n04405907_8/img_b02_piano_stylized_tv_2003-3_gray.png,foreground,same as foreground,n03928116_0,n02818832_9,Stimuli/canonical view 2/img_n03928116_0_gray.jpg,Stimuli/canonical view 2/img_n02818832_9_gray.jpg,random,left,Experiments/experiment_11/156.jpg,Experiments/experiment_11/157.jpg,Experiments/experiment_11/158.jpg,Experiments/experiment_11/159.jpg,970,1,2023-09-17_11h40.11.446,Occlusion_Psychophysics,2022.1.4,Win32,60.11060351,,,right,"[""right""]",[0.8362999999989142],False,,0.0,0.0,39.0,39.0,39.0,1.0,,,,,,
,,,,,,,,,,,,,,,,,,,,,0.05,,,,,,,,,,Stimuli/psy_fixed_rotation_30_objects_occ0.7_0.9s/images/train/n04405907_5/n02818832_9/img_samsung_40_uhd_smart_tv_2011_bed01_blue_2010_gray.jpg,n04405907_5,n02818832_9,fixed,0.755954,n02818832_9,Stimuli/psy_fixed_rotation_30_objects_occ0.7_0.9s/images/train/n04405907_5/n02818832_9/img_samsung_40_uhd_smart_tv_2011_bed01_blue_2010-3_gray.png,foreground,same as foreground,n04405907_5,n02818832_9,Stimuli/canonical view 2/img_n04405907_5_gray.jpg,Stimuli/canonical view 2/img_n02818832_9_gray.jpg,foreground,right,Experiments/experiment_11/160.jpg,Experiments/experiment_11/161.jpg,Experiments/experiment_11/162.jpg,Experiments/experiment_11/163.jpg,970,1,2023-09-17_11h40.11.446,Occlusion_Psychophysics,2022.1.4,Win32,60.11060351,,,left,"[""left""]",[0.6704000000003134],False,,0.0,0.0,40.0,40.0,40.0,1.0,,,,,,
,,,,,,,,,,,,,,,,,,,,,0.025,,,,,,,,,,Stimuli/psy_fixed_rotation_30_objects_occ0.7_0.9s/images/train/n02818832_3/n02828884_3/img_b05_ccm_contemporary_bed_max2013_b04_wood_metal_park_bench_2007_gray.jpg,n02818832_3,n02828884_3,fixed,0.719412,n02828884_3,Stimuli/psy_fixed_rotation_30_objects_occ0.7_0.9s/images/train/n02818832_3/n02828884_3/img_b05_ccm_contemporary_bed_max2013_b04_wood_metal_park_bench_2007-3_gray.png,foreground,same as foreground,n02818832_3,n04256520_4,Stimuli/canonical view 2/img_n02818832_3_gray.jpg,Stimuli/canonical view 2/img_n04256520_4_gray.jpg,random,right,Experiments/experiment_11/164.jpg,Experiments/experiment_11/165.jpg,Experiments/experiment_11/166.jpg,Experiments/experiment_11/167.jpg,970,1,2023-09-17_11h40.11.446,Occlusion_Psychophysics,2022.1.4,Win32,60.11060351,,,right,"[""right""]",[0.9678000000008069],False,,0.0,0.0,41.0,41.0,41.0,1.0,,,,,,
,,,,,,,,,,,,,,,,,,,,,0.025,,,,,,,,,,Stimuli/psy_fixed_rotation_30_objects_occ0.7_0.9s/images/train/n04379243_8/n02933112_-2/img_glass_table_sink_base_white_wood_2003_gray.jpg,n04379243_8,n02933112_-2,fixed,0.729648,n02828884_3,Stimuli/psy_fixed_rotation_30_objects_occ0.7_0.9s/images/train/n02818832_0/n02828884_3/img_b03_the_sofa_and_chair_company_-_stanley_bed_2014_b04_wood_metal_park_bench_2008-3_gray.png,random,fixed,n04379243_8,n02933112_-2,Stimuli/canonical view 2/img_n04379243_8_gray.jpg,Stimuli/canonical view 2/img_n02933112_-2_gray.jpg,foreground,left,Experiments/experiment_11/168.jpg,Experiments/experiment_11/169.jpg,Experiments/experiment_11/170.jpg,Experiments/experiment_11/171.jpg,970,1,2023-09-17_11h40.11.446,Occlusion_Psychophysics,2022.1.4,Win32,60.11060351,,,left,"[""left""]",[0.6209999999999809],True,left,1.0,0.0,42.0,42.0,42.0,1.0,0.7351,,,,,
,,,,,,,,,,,,,,,,,,,,,0.05,,,,,,,,,,Stimuli/psy_fixed_rotation_30_objects_occ0.7_0.9s/images/train/n02883344_15/n04379243_0/img_microwave_box_17th_c._monastery_dining_table_2010_2012_gray.jpg,n02883344_15,n04379243_0,fixed,0.710445,n04379243_0,Stimuli/psy_fixed_rotation_30_objects_occ0.7_0.9s/images/train/n02883344_15/n04379243_0/img_microwave_box_17th_c._monastery_dining_table_2010_2012-3_gray.png,foreground,same as foreground,n02883344_15,n04405907_5,Stimuli/canonical view 2/img_n02883344_15_gray.jpg,Stimuli/canonical view 2/img_n04405907_5_gray.jpg,random,right,Experiments/experiment_11/172.jpg,Experiments/experiment_11/173.jpg,Experiments/experiment_11/174.jpg,Experiments/experiment_11/175.jpg,970,1,2023-09-17_11h40.11.446,Occlusion_Psychophysics,2022.1.4,Win32,60.11060351,,,right,"[""right""]",[0.7850999999997157],False,,0.0,0.0,43.0,43.0,43.0,1.0,,,,,,
,,,,,,,,,,,,,,,,,,,,,0.025,,,,,,,,,,Stimuli/psy_flexible_rotation_30_objects_occ0.7_0.9s/images/train/n02818832_0/n04256520_9/img_b03_the_sofa_and_chair_company_-_stanley_bed_2014_napoleon_iii_sofa_2012_gray.jpg,n02818832_0,n04256520_9,flexible,0.726649,n04256520_9,Stimuli/psy_flexible_rotation_30_objects_occ0.7_0.9s/images/train/n02818832_0/n04256520_9/img_b03_the_sofa_and_chair_company_-_stanley_bed_2014_napoleon_iii_sofa_2012-3_gray.png,foreground,same as foreground,n02818832_0,n02828884_9,Stimuli/canonical view 2/img_n02818832_0_gray.jpg,Stimuli/canonical view 2/img_n02828884_9_gray.jpg,random,right,Experiments/experiment_11/176.jpg,Experiments/experiment_11/177.jpg,Experiments/experiment_11/178.jpg,Experiments/experiment_11/179.jpg,970,1,2023-09-17_11h40.11.446,Occlusion_Psychophysics,2022.1.4,Win32,60.11060351,,,left,"[""left""]",[0.6101999999992813],False,,0.0,0.0,44.0,44.0,44.0,1.0,,,,,,
,,,,,,,,,,,,,,,,,,,,,0.05,,,,,,,,,,Stimuli/psy_fixed_rotation_30_objects_occ0.7_0.9s/images/train/n03001627_-2/n02933112_-18/img_wood_chair_cgaxis_models_48_26_vray_composite_2011_gray.jpg,n03001627_-2,n02933112_-18,fixed,0.704044,n04405907_5,Stimuli/psy_flexible_rotation_30_objects_occ0.7_0.9s/images/train/n04379243_-7/n04405907_5/img_quatre_dining_table_samsung_40_uhd_smart_tv_2011_2011-3_gray.png,random,flexible,n03001627_-2,n03001627_8,Stimuli/canonical view 2/img_n03001627_-2_gray.jpg,Stimuli/canonical view 2/img_n03001627_8_gray.jpg,random,left,Experiments/experiment_11/180.jpg,Experiments/experiment_11/181.jpg,Experiments/experiment_11/182.jpg,Experiments/experiment_11/183.jpg,970,1,2023-09-17_11h40.11.446,Occlusion_Psychophysics,2022.1.4,Win32,60.11060351,,,left,"[""right""]",[0.9248999999986154],False,,0.0,0.0,45.0,45.0,45.0,1.0,,,,,,
,,,,,,,,,,,,,,,,,,,,,0.05,,,,,,,,,,Stimuli/psy_fixed_rotation_30_objects_occ0.7_0.9s/images/train/n04256520_5/n04405907_5/img_meridiani_belmondo_bench_sofa_samsung_40_uhd_smart_tv_2011_2012_gray.jpg,n04256520_5,n04405907_5,fixed,0.792529,n02933112_-2,Stimuli/psy_flexible_rotation_30_objects_occ0.7_0.9s/images/train/n02933112_-18/n02933112_-2/img_cgaxis_models_48_26_vray_composite_sink_base_white_wood_2010-3_gray.png,random,flexible,n04256520_5,n02883344_15,Stimuli/canonical view 2/img_n04256520_5_gray.jpg,Stimuli/canonical view 2/img_n02883344_15_gray.jpg,random,left,Experiments/experiment_11/184.jpg,Experiments/experiment_11/185.jpg,Experiments/experiment_11/186.jpg,Experiments/experiment_11/187.jpg,970,1,2023-09-17_11h40.11.446,Occlusion_Psychophysics,2022.1.4,Win32,60.11060351,,,right,"[""right""]",[0.9277999999989106],False,,0.0,0.0,46.0,46.0,46.0,1.0,,,,,,
,,,,,,,,,,,,,,,,,,,,,0.05,,,,,,,,,,Stimuli/psy_fixed_rotation_30_objects_occ0.7_0.9s/images/train/n04256520_9/n04379243_0/img_napoleon_iii_sofa_17th_c._monastery_dining_table_2010_2012_gray.jpg,n04256520_9,n04379243_0,fixed,0.743483,n02883344_15,Stimuli/psy_flexible_rotation_30_objects_occ0.7_0.9s/images/train/n02828884_9/n02883344_15/img_cr-96_bench_microwave_box_2010-3_gray.png,random,flexible,n04256520_9,n03928116_10,Stimuli/canonical view 2/img_n04256520_9_gray.jpg,Stimuli/canonical view 2/img_n03928116_10_gray.jpg,random,left,Experiments/experiment_11/188.jpg,Experiments/experiment_11/189.jpg,Experiments/experiment_11/190.jpg,Experiments/experiment_11/191.jpg,970,1,2023-09-17_11h40.11.446,Occlusion_Psychophysics,2022.1.4,Win32,60.11060351,,,left,"[""left""]",[0.7192999999988388],False,,0.0,0.0,47.0,47.0,47.0,1.0,,,,,,
,,,,,,,,,,,,,,,,,,,,,0.025,,,,,,,,,,Stimuli/psy_fixed_rotation_30_objects_occ0.7_0.9s/images/train/n03928116_4/n02818832_0/img_dp_33_b_2013__vray_b03_the_sofa_and_chair_company_-_stanley_bed_2014_2006_gray.jpg,n03928116_4,n02818832_0,fixed,0.708162,n02818832_0,Stimuli/psy_fixed_rotation_30_objects_occ0.7_0.9s/images/train/n03928116_4/n02818832_0/img_dp_33_b_2013__vray_b03_the_sofa_and_chair_company_-_stanley_bed_2014_2006-3_gray.png,foreground,same as foreground,n03928116_4,n03001627_-2,Stimuli/canonical view 2/img_n03928116_4_gray.jpg,Stimuli/canonical view 2/img_n03001627_-2_gray.jpg,random,right,Experiments/experiment_11/192.jpg,Experiments/experiment_11/193.jpg,Experiments/experiment_11/194.jpg,Experiments/experiment_11/195.jpg,970,1,2023-09-17_11h40.11.446,Occlusion_Psychophysics,2022.1.4,Win32,60.11060351,,,right,"[""right""]",[1.3184999999999718],False,,0.0,0.0,48.0,48.0,48.0,1.0,,,,,,
,,,,,,,,,,,,,,,,,,,,,0.025,,,,,,,,,,Stimuli/psy_flexible_rotation_30_objects_occ0.7_0.9s/images/train/n04256520_5/n04379243_8/img_meridiani_belmondo_bench_sofa_glass_table_2003_gray.jpg,n04256520_5,n04379243_8,flexible,0.748689,n04405907_9,Stimuli/psy_fixed_rotation_30_objects_occ0.7_0.9s/images/train/n02818832_3/n04405907_9/img_b05_ccm_contemporary_bed_max2013_vray_004_2002-3_gray.png,random,fixed,n04256520_5,n03928116_4,Stimuli/canonical view 2/img_n04256520_5_gray.jpg,Stimuli/canonical view 2/img_n03928116_4_gray.jpg,random,right,Experiments/experiment_11/196.jpg,Experiments/experiment_11/197.jpg,Experiments/experiment_11/198.jpg,Experiments/experiment_11/199.jpg,970,1,2023-09-17_11h40.11.446,Occlusion_Psychophysics,2022.1.4,Win32,60.11060351,,,left,"[""left""]",[0.8170000000000073],False,,0.0,0.0,49.0,49.0,49.0,1.0,,,,,,
,,,,,,,,,,,,,,,,,,,,,0.05,,,,,,,,,,Stimuli/psy_fixed_rotation_30_objects_occ0.7_0.9s/images/train/n04405907_8/n04405907_5/img_stylized_tv_samsung_40_uhd_smart_tv_2011_2013_gray.jpg,n04405907_8,n04405907_5,fixed,0.732342,n04405907_5,Stimuli/psy_fixed_rotation_30_objects_occ0.7_0.9s/images/train/n04405907_8/n04405907_5/img_stylized_tv_samsung_40_uhd_smart_tv_2011_2013-3_gray.png,foreground,same as foreground,n04405907_8,n04405907_5,Stimuli/canonical view 2/img_n04405907_8_gray.jpg,Stimuli/canonical view 2/img_n04405907_5_gray.jpg,foreground,right,Experiments/experiment_11/200.jpg,Experiments/experiment_11/201.jpg,Experiments/experiment_11/202.jpg,Experiments/experiment_11/203.jpg,970,1,2023-09-17_11h40.11.446,Occlusion_Psychophysics,2022.1.4,Win32,60.11060351,,,left,"[""left""]",[0.7355000000000018],False,,0.0,0.0,50.0,50.0,50.0,1.0,,,,,,
,,,,,,,,,,,,,,,,,,,,,0.05,,,,,,,,,,Stimuli/psy_fixed_rotation_30_objects_occ0.7_0.9s/images/train/n04405907_9/n04379243_8/img_vray_004_glass_table_2004_gray.jpg,n04405907_9,n04379243_8,fixed,0.746461,n04379243_-7,Stimuli/psy_flexible_rotation_30_objects_occ0.7_0.9s/images/train/n04070727_3/n04379243_-7/img_b05_db_apps_tech_06_02_2_composite_quatre_dining_table_2004-3_gray.png,random,flexible,n04405907_9,n04379243_8,Stimuli/canonical view 2/img_n04405907_9_gray.jpg,Stimuli/canonical view 2/img_n04379243_8_gray.jpg,foreground,left,Experiments/experiment_11/204.jpg,Experiments/experiment_11/205.jpg,Experiments/experiment_11/206.jpg,Experiments/experiment_11/207.jpg,970,1,2023-09-17_11h40.11.446,Occlusion_Psychophysics,2022.1.4,Win32,60.11060351,,,left,"[""left""]",[0.651800000000776],False,,0.0,0.0,51.0,51.0,51.0,1.0,,,,,,
,,,,,,,,,,,,,,,,,,,,,0.025,,,,,,,,,,Stimuli/psy_fixed_rotation_30_objects_occ0.7_0.9s/images/train/n02818832_0/n04256520_5/img_b03_the_sofa_and_chair_company_-_stanley_bed_2014_meridiani_belmondo_bench_sofa_2013_gray.jpg,n02818832_0,n04256520_5,fixed,0.802257,n04256520_5,Stimuli/psy_fixed_rotation_30_objects_occ0.7_0.9s/images/train/n02818832_0/n04256520_5/img_b03_the_sofa_and_chair_company_-_stanley_bed_2014_meridiani_belmondo_bench_sofa_2013-3_gray.png,foreground,same as foreground,n02818832_0,n04256520_5,Stimuli/canonical view 2/img_n02818832_0_gray.jpg,Stimuli/canonical view 2/img_n04256520_5_gray.jpg,foreground,right,Experiments/experiment_11/208.jpg,Experiments/experiment_11/209.jpg,Experiments/experiment_11/210.jpg,Experiments/experiment_11/211.jpg,970,1,2023-09-17_11h40.11.446,Occlusion_Psychophysics,2022.1.4,Win32,60.11060351,,,right,"[""right""]",[0.6686999999992622],False,,0.0,0.0,52.0,52.0,52.0,1.0,,,,,,
,,,,,,,,,,,,,,,,,,,,,0.05,,,,,,,,,,Stimuli/psy_flexible_rotation_30_objects_occ0.7_0.9s/images/train/n02828884_3/n04256520_4/img_b04_wood_metal_park_bench_club_house_italia_nautilus_sofa_2007_gray.jpg,n02828884_3,n04256520_4,flexible,0.710529,n04256520_4,Stimuli/psy_flexible_rotation_30_objects_occ0.7_0.9s/images/train/n02828884_3/n04256520_4/img_b04_wood_metal_park_bench_club_house_italia_nautilus_sofa_2007-3_gray.png,foreground,same as foreground,n02828884_3,n04256520_4,Stimuli/canonical view 2/img_n02828884_3_gray.jpg,Stimuli/canonical view 2/img_n04256520_4_gray.jpg,foreground,left,Experiments/experiment_11/212.jpg,Experiments/experiment_11/213.jpg,Experiments/experiment_11/214.jpg,Experiments/experiment_11/215.jpg,970,1,2023-09-17_11h40.11.446,Occlusion_Psychophysics,2022.1.4,Win32,60.11060351,,,left,"[""left""]",[0.5243999999984226],False,,0.0,0.0,53.0,53.0,53.0,1.0,,,,,,
,,,,,,,,,,,,,,,,,,,,,0.05,,,,,,,,,,Stimuli/psy_flexible_rotation_30_objects_occ0.7_0.9s/images/train/n03928116_4/n02933112_4/img_dp_33_b_2013__vray_buffet_2001_gray.jpg,n03928116_4,n02933112_4,flexible,0.771116,n02933112_4,Stimuli/psy_flexible_rotation_30_objects_occ0.7_0.9s/images/train/n03928116_4/n02933112_4/img_dp_33_b_2013__vray_buffet_2001-3_gray.png,foreground,same as foreground,n03928116_4,n02933112_4,Stimuli/canonical view 2/img_n03928116_4_gray.jpg,Stimuli/canonical view 2/img_n02933112_4_gray.jpg,foreground,right,Experiments/experiment_11/216.jpg,Experiments/experiment_11/217.jpg,Experiments/experiment_11/218.jpg,Experiments/experiment_11/219.jpg,970,1,2023-09-17_11h40.11.446,Occlusion_Psychophysics,2022.1.4,Win32,60.11060351,,,right,"[""right""]",[0.6525000000000318],False,,0.0,0.0,54.0,54.0,54.0,1.0,,,,,,
,,,,,,,,,,,,,,,,,,,,,0.025,,,,,,,,,,Stimuli/psy_fixed_rotation_30_objects_occ0.7_0.9s/images/train/n03928116_0/n02933112_-2/img_b02_piano_sink_base_white_wood_2008_gray.jpg,n03928116_0,n02933112_-2,fixed,0.827609,n04405907_9,Stimuli/psy_fixed_rotation_30_objects_occ0.7_0.9s/images/train/n04256520_4/n04405907_9/img_club_house_italia_nautilus_sofa_vray_004_2007-3_gray.png,random,fixed,n03928116_0,n02933112_-18,Stimuli/canonical view 2/img_n03928116_0_gray.jpg,Stimuli/canonical view 2/img_n02933112_-18_gray.jpg,random,left,Experiments/experiment_11/220.jpg,Experiments/experiment_11/221.jpg,Experiments/experiment_11/222.jpg,Experiments/experiment_11/223.jpg,970,1,2023-09-17_11h40.11.446,Occlusion_Psychophysics,2022.1.4,Win32,60.11060351,,,right,"[""right""]",[0.8255999999996675],False,,0.0,0.0,55.0,55.0,55.0,1.0,,,,,,
,,,,,,,,,,,,,,,,,,,,,0.05,,,,,,,,,,Stimuli/psy_fixed_rotation_30_objects_occ0.7_0.9s/images/train/n02933112_-18/n04405907_8/img_cgaxis_models_48_26_vray_composite_stylized_tv_2003_gray.jpg,n02933112_-18,n04405907_8,fixed,0.736937,n04256520_5,Stimuli/psy_fixed_rotation_30_objects_occ0.7_0.9s/images/train/n02933112_-2/n04256520_5/img_sink_base_white_wood_meridiani_belmondo_bench_sofa_2001-3_gray.png,random,fixed,n02933112_-18,n04405907_8,Stimuli/canonical view 2/img_n02933112_-18_gray.jpg,Stimuli/canonical view 2/img_n04405907_8_gray.jpg,foreground,left,Experiments/experiment_11/224.jpg,Experiments/experiment_11/225.jpg,Experiments/experiment_11/226.jpg,Experiments/experiment_11/227.jpg,970,1,2023-09-17_11h40.11.446,Occlusion_Psychophysics,2022.1.4,Win32,60.11060351,,,right,"[""right""]",[0.8776999999993222],False,,0.0,0.0,56.0,56.0,56.0,1.0,,,,,,
,,,,,,,,,,,,,,,,,,,,,0.05,,,,,,,,,,Stimuli/psy_flexible_rotation_30_objects_occ0.7_0.9s/images/train/n03928116_10/n02933112_4/img_ydp_103_r_2012__vray_buffet_2000_gray.jpg,n03928116_10,n02933112_4,flexible,0.784899,n02883344_15,Stimuli/psy_flexible_rotation_30_objects_occ0.7_0.9s/images/train/n04256520_5/n02883344_15/img_meridiani_belmondo_bench_sofa_microwave_box_2002-3_gray.png,random,flexible,n03928116_10,n02883344_15,Stimuli/canonical view 2/img_n03928116_10_gray.jpg,Stimuli/canonical view 2/img_n02883344_15_gray.jpg,random,right,Experiments/experiment_11/228.jpg,Experiments/experiment_11/229.jpg,Experiments/experiment_11/230.jpg,Experiments/experiment_11/231.jpg,970,1,2023-09-17_11h40.11.446,Occlusion_Psychophysics,2022.1.4,Win32,60.11060351,,,right,"[""right""]",[1.0174999999999272],False,,0.0,0.0,57.0,57.0,57.0,1.0,,,,,,
,,,,,,,,,,,,,,,,,,,,,0.05,,,,,,,,,,Stimuli/psy_fixed_rotation_30_objects_occ0.7_0.9s/images/train/n02933112_4/n04379243_-7/img_buffet_quatre_dining_table_2001_gray.jpg,n02933112_4,n04379243_-7,fixed,0.722915,n02883344_-1,Stimuli/psy_flexible_rotation_30_objects_occ0.7_0.9s/images/train/n04379243_8/n02883344_-1/img_glass_table_woven_box_2004-3_gray.png,random,flexible,n02933112_4,n04379243_-7,Stimuli/canonical view 2/img_n02933112_4_gray.jpg,Stimuli/canonical view 2/img_n04379243_-7_gray.jpg,foreground,left,Experiments/experiment_11/232.jpg,Experiments/experiment_11/233.jpg,Experiments/experiment_11/234.jpg,Experiments/experiment_11/235.jpg,970,1,2023-09-17_11h40.11.446,Occlusion_Psychophysics,2022.1.4,Win32,60.11060351,,,left,"[""left""]",[0.6348999999985381],False,,0.0,0.0,58.0,58.0,58.0,1.0,,,,,,
,,,,,,,,,,,,,,,,,,,,,0.025,,,,,,,,,,Stimuli/psy_flexible_rotation_30_objects_occ0.7_0.9s/images/train/n04405907_9/n04405907_8/img_vray_004_stylized_tv_2013_gray.jpg,n04405907_9,n04405907_8,flexible,0.80598,n04379243_-7,Stimuli/psy_flexible_rotation_30_objects_occ0.7_0.9s/images/train/n02883344_15/n04379243_-7/img_microwave_box_quatre_dining_table_2004-3_gray.png,random,flexible,n04405907_9,n04405907_8,Stimuli/canonical view 2/img_n04405907_9_gray.jpg,Stimuli/canonical view 2/img_n04405907_8_gray.jpg,foreground,left,Experiments/experiment_11/236.jpg,Experiments/experiment_11/237.jpg,Experiments/experiment_11/238.jpg,Experiments/experiment_11/239.jpg,970,1,2023-09-17_11h40.11.446,Occlusion_Psychophysics,2022.1.4,Win32,60.11060351,,,right,"[""right""]",[0.6424000000004071],False,,0.0,0.0,59.0,59.0,59.0,1.0,,,,,,
,,,,,,,,,,,,,,,,,,,,,0.025,,,,,,,,,,Stimuli/psy_fixed_rotation_30_objects_occ0.7_0.9s/images/train/n02933112_4/n02883344_-1/img_buffet_woven_box_2005_gray.jpg,n02933112_4,n02883344_-1,fixed,0.766198,n02933112_-2,Stimuli/psy_fixed_rotation_30_objects_occ0.7_0.9s/images/train/n03001627_-2/n02933112_-2/img_wood_chair_sink_base_white_wood_2008-3_gray.png,random,fixed,n02933112_4,n02883344_-1,Stimuli/canonical view 2/img_n02933112_4_gray.jpg,Stimuli/canonical view 2/img_n02883344_-1_gray.jpg,foreground,right,Experiments/experiment_11/240.jpg,Experiments/experiment_11/241.jpg,Experiments/experiment_11/242.jpg,Experiments/experiment_11/243.jpg,970,1,2023-09-17_11h40.11.446,Occlusion_Psychophysics,2022.1.4,Win32,60.11060351,,,left,"[""right""]",[1.080599999999663],True,right,1.0,0.0,60.0,60.0,60.0,1.0,0.7723,,,,,
,,,,,,,,,,,,,,,,,,,,,0.05,,,,,,,,,,Stimuli/psy_fixed_rotation_30_objects_occ0.7_0.9s/images/train/n04379243_-7/n02933112_4/img_quatre_dining_table_buffet_2007_gray.jpg,n04379243_-7,n02933112_4,fixed,0.809931,n02933112_-2,Stimuli/psy_flexible_rotation_30_objects_occ0.7_0.9s/images/train/n03928116_0/n02933112_-2/img_b02_piano_sink_base_white_wood_2011-3_gray.png,random,flexible,n04379243_-7,n02933112_4,Stimuli/canonical view 2/img_n04379243_-7_gray.jpg,Stimuli/canonical view 2/img_n02933112_4_gray.jpg,foreground,left,Experiments/experiment_11/244.jpg,Experiments/experiment_11/245.jpg,Experiments/experiment_11/246.jpg,Experiments/experiment_11/247.jpg,970,1,2023-09-17_11h40.11.446,Occlusion_Psychophysics,2022.1.4,Win32,60.11060351,,,right,"[""right""]",[1.309400000000437],False,,0.0,0.0,61.0,61.0,61.0,1.0,,,,,,
,,,,,,,,,,,,,,,,,,,,,0.025,,,,,,,,,,Stimuli/psy_fixed_rotation_30_objects_occ0.7_0.9s/images/train/n04379243_0/n02883344_-1/img_17th_c._monastery_dining_table_2010_woven_box_2000_gray.jpg,n04379243_0,n02883344_-1,fixed,0.718351,n02883344_-1,Stimuli/psy_fixed_rotation_30_objects_occ0.7_0.9s/images/train/n04379243_0/n02883344_-1/img_17th_c._monastery_dining_table_2010_woven_box_2000-3_gray.png,foreground,same as foreground,n04379243_0,n02818832_3,Stimuli/canonical view 2/img_n04379243_0_gray.jpg,Stimuli/canonical view 2/img_n02818832_3_gray.jpg,random,right,Experiments/experiment_11/248.jpg,Experiments/experiment_11/249.jpg,Experiments/experiment_11/250.jpg,Experiments/experiment_11/251.jpg,970,1,2023-09-17_11h40.11.446,Occlusion_Psychophysics,2022.1.4,Win32,60.11060351,,,right,"[""right""]",[0.733599999999683],False,,0.0,0.0,62.0,62.0,62.0,1.0,,,,,,
,,,,,,,,,,,,,,,,,,,,,0.05,,,,,,,,,,Stimuli/psy_fixed_rotation_30_objects_occ0.7_0.9s/images/train/n02883344_15/n02883344_-1/img_microwave_box_woven_box_2002_gray.jpg,n02883344_15,n02883344_-1,fixed,0.761893,n02828884_4,Stimuli/psy_flexible_rotation_30_objects_occ0.7_0.9s/images/train/n02828884_4/n02828884_4/img_b05_c-5_classic_series_bench-2012_b05_c-5_classic_series_bench-2012_2014-3_gray.png,random,flexible,n02883344_15,n02883344_-1,Stimuli/canonical view 2/img_n02883344_15_gray.jpg,Stimuli/canonical view 2/img_n02883344_-1_gray.jpg,foreground,right,Experiments/experiment_11/252.jpg,Experiments/experiment_11/253.jpg,Experiments/experiment_11/254.jpg,Experiments/experiment_11/255.jpg,970,1,2023-09-17_11h40.11.446,Occlusion_Psychophysics,2022.1.4,Win32,60.11060351,,,right,"[""right""]",[0.9448000000007823],False,,0.0,0.0,63.0,63.0,63.0,1.0,,,,,,
,,,,,,,,,,,,,,,,,,,,,0.05,,,,,,,,,,Stimuli/psy_flexible_rotation_30_objects_occ0.7_0.9s/images/train/n03928116_10/n02883344_0/img_ydp_103_r_2012__vray_b03_box_2011_gray.jpg,n03928116_10,n02883344_0,flexible,0.833724,n04405907_8,Stimuli/psy_flexible_rotation_30_objects_occ0.7_0.9s/images/train/n04256520_9/n04405907_8/img_napoleon_iii_sofa_stylized_tv_2000-3_gray.png,random,flexible,n03928116_10,n04256520_9,Stimuli/canonical view 2/img_n03928116_10_gray.jpg,Stimuli/canonical view 2/img_n04256520_9_gray.jpg,random,left,Experiments/experiment_11/256.jpg,Experiments/experiment_11/257.jpg,Experiments/experiment_11/258.jpg,Experiments/experiment_11/259.jpg,970,1,2023-09-17_11h40.11.446,Occlusion_Psychophysics,2022.1.4,Win32,60.11060351,,,right,"[""right""]",[0.8423999999984062],False,,0.0,0.0,64.0,64.0,64.0,1.0,,,,,,
,,,,,,,,,,,,,,,,,,,,,0.05,,,,,,,,,,Stimuli/psy_fixed_rotation_30_objects_occ0.7_0.9s/images/train/n02828884_3/n03928116_0/img_b04_wood_metal_park_bench_b02_piano_2007_gray.jpg,n02828884_3,n03928116_0,fixed,0.702116,n03928116_0,Stimuli/psy_fixed_rotation_30_objects_occ0.7_0.9s/images/train/n02828884_3/n03928116_0/img_b04_wood_metal_park_bench_b02_piano_2007-3_gray.png,foreground,same as foreground,n02828884_3,n03928116_0,Stimuli/canonical view 2/img_n02828884_3_gray.jpg,Stimuli/canonical view 2/img_n03928116_0_gray.jpg,foreground,right,Experiments/experiment_11/260.jpg,Experiments/experiment_11/261.jpg,Experiments/experiment_11/262.jpg,Experiments/experiment_11/263.jpg,970,1,2023-09-17_11h40.11.446,Occlusion_Psychophysics,2022.1.4,Win32,60.11060351,,,left,"[""left""]",[0.6950999999995702],False,,0.0,0.0,65.0,65.0,65.0,1.0,,,,,,
,,,,,,,,,,,,,,,,,,,,,0.05,,,,,,,,,,Stimuli/psy_fixed_rotation_30_objects_occ0.7_0.9s/images/train/n04256520_4/n02818832_9/img_club_house_italia_nautilus_sofa_bed01_blue_2002_gray.jpg,n04256520_4,n02818832_9,fixed,0.71434,n04405907_8,Stimuli/psy_fixed_rotation_30_objects_occ0.7_0.9s/images/train/n02883344_15/n04405907_8/img_microwave_box_stylized_tv_2011-3_gray.png,random,fixed,n04256520_4,n02818832_9,Stimuli/canonical view 2/img_n04256520_4_gray.jpg,Stimuli/canonical view 2/img_n02818832_9_gray.jpg,foreground,left,Experiments/experiment_11/264.jpg,Experiments/experiment_11/265.jpg,Experiments/experiment_11/266.jpg,Experiments/experiment_11/267.jpg,970,1,2023-09-17_11h40.11.446,Occlusion_Psychophysics,2022.1.4,Win32,60.11060351,,,right,"[""right""]",[0.75649999999996],False,,0.0,0.0,66.0,66.0,66.0,1.0,,,,,,
,,,,,,,,,,,,,,,,,,,,,0.05,,,,,,,,,,Stimuli/psy_flexible_rotation_30_objects_occ0.7_0.9s/images/train/n03928116_0/n04256520_4/img_b02_piano_club_house_italia_nautilus_sofa_2013_gray.jpg,n03928116_0,n04256520_4,flexible,0.755137,n04256520_4,Stimuli/psy_flexible_rotation_30_objects_occ0.7_0.9s/images/train/n03928116_0/n04256520_4/img_b02_piano_club_house_italia_nautilus_sofa_2013-3_gray.png,foreground,same as foreground,n03928116_0,n03928116_4,Stimuli/canonical view 2/img_n03928116_0_gray.jpg,Stimuli/canonical view 2/img_n03928116_4_gray.jpg,random,right,Experiments/experiment_11/268.jpg,Experiments/experiment_11/269.jpg,Experiments/experiment_11/270.jpg,Experiments/experiment_11/271.jpg,970,1,2023-09-17_11h40.11.446,Occlusion_Psychophysics,2022.1.4,Win32,60.11060351,,,left,"[""left""]",[0.7528000000007751],False,,0.0,0.0,67.0,67.0,67.0,1.0,,,,,,
,,,,,,,,,,,,,,,,,,,,,0.025,,,,,,,,,,Stimuli/psy_flexible_rotation_30_objects_occ0.7_0.9s/images/train/n03001627_9/n03928116_10/img_chair_eames_plastic_armchair_ydp_103_r_2012__vray_2001_gray.jpg,n03001627_9,n03928116_10,flexible,0.807804,n04256520_9,Stimuli/psy_fixed_rotation_30_objects_occ0.7_0.9s/images/train/n03001627_9/n04256520_9/img_chair_eames_plastic_armchair_napoleon_iii_sofa_2004-3_gray.png,random,fixed,n03001627_9,n03001627_-2,Stimuli/canonical view 2/img_n03001627_9_gray.jpg,Stimuli/canonical view 2/img_n03001627_-2_gray.jpg,random,right,Experiments/experiment_11/272.jpg,Experiments/experiment_11/273.jpg,Experiments/experiment_11/274.jpg,Experiments/experiment_11/275.jpg,970,1,2023-09-17_11h40.11.446,Occlusion_Psychophysics,2022.1.4,Win32,60.11060351,,,right,"[""right""]",[0.7169999999999845],True,right,1.0,0.0,68.0,68.0,68.0,1.0,0.7422,,,,,
,,,,,,,,,,,,,,,,,,,,,0.025,,,,,,,,,,Stimuli/psy_fixed_rotation_30_objects_occ0.7_0.9s/images/train/n02818832_9/n04405907_5/img_bed01_blue_samsung_40_uhd_smart_tv_2011_2002_gray.jpg,n02818832_9,n04405907_5,fixed,0.825455,n04405907_5,Stimuli/psy_fixed_rotation_30_objects_occ0.7_0.9s/images/train/n02818832_9/n04405907_5/img_bed01_blue_samsung_40_uhd_smart_tv_2011_2002-3_gray.png,foreground,same as foreground,n02818832_9,n02883344_-1,Stimuli/canonical view 2/img_n02818832_9_gray.jpg,Stimuli/canonical view 2/img_n02883344_-1_gray.jpg,random,left,Experiments/experiment_11/276.jpg,Experiments/experiment_11/277.jpg,Experiments/experiment_11/278.jpg,Experiments/experiment_11/279.jpg,970,1,2023-09-17_11h40.11.446,Occlusion_Psychophysics,2022.1.4,Win32,60.11060351,,,left,"[""left""]",[0.6030999999995856],False,,0.0,0.0,69.0,69.0,69.0,1.0,,,,,,
,,,,,,,,,,,,,,,,,,,,,0.025,,,,,,,,,,Stimuli/psy_flexible_rotation_30_objects_occ0.7_0.9s/images/train/n02828884_3/n02818832_3/img_b04_wood_metal_park_bench_b05_ccm_contemporary_bed_max2013_2002_gray.jpg,n02828884_3,n02818832_3,flexible,0.777522,n02818832_3,Stimuli/psy_flexible_rotation_30_objects_occ0.7_0.9s/images/train/n02828884_3/n02818832_3/img_b04_wood_metal_park_bench_b05_ccm_contemporary_bed_max2013_2002-3_gray.png,foreground,same as foreground,n02828884_3,n03928116_10,Stimuli/canonical view 2/img_n02828884_3_gray.jpg,Stimuli/canonical view 2/img_n03928116_10_gray.jpg,random,right,Experiments/experiment_11/280.jpg,Experiments/experiment_11/281.jpg,Experiments/experiment_11/282.jpg,Experiments/experiment_11/283.jpg,970,1,2023-09-17_11h40.11.446,Occlusion_Psychophysics,2022.1.4,Win32,60.11060351,,,left,"[""left""]",[0.6813000000007605],False,,0.0,0.0,70.0,70.0,70.0,1.0,,,,,,
,,,,,,,,,,,,,,,,,,,,,0.025,,,,,,,,,,Stimuli/psy_flexible_rotation_30_objects_occ0.7_0.9s/images/train/n02828884_3/n02818832_0/img_b04_wood_metal_park_bench_b03_the_sofa_and_chair_company_-_stanley_bed_2014_2001_gray.jpg,n02828884_3,n02818832_0,flexible,0.747366,n02818832_0,Stimuli/psy_flexible_rotation_30_objects_occ0.7_0.9s/images/train/n02828884_3/n02818832_0/img_b04_wood_metal_park_bench_b03_the_sofa_and_chair_company_-_stanley_bed_2014_2001-3_gray.png,foreground,same as foreground,n02828884_3,n02828884_4,Stimuli/canonical view 2/img_n02828884_3_gray.jpg,Stimuli/canonical view 2/img_n02828884_4_gray.jpg,random,left,Experiments/experiment_11/284.jpg,Experiments/experiment_11/285.jpg,Experiments/experiment_11/286.jpg,Experiments/experiment_11/287.jpg,970,1,2023-09-17_11h40.11.446,Occlusion_Psychophysics,2022.1.4,Win32,60.11060351,,,left,"[""left""]",[0.6864000000003898],False,,0.0,0.0,71.0,71.0,71.0,1.0,,,,,,
,,,,,,,,,,,,,,,,,,,,,0.025,,,,,,,,,,Stimuli/psy_fixed_rotation_30_objects_occ0.7_0.9s/images/train/n03001627_9/n02883344_15/img_chair_eames_plastic_armchair_microwave_box_2011_gray.jpg,n03001627_9,n02883344_15,fixed,0.721802,n02883344_15,Stimuli/psy_fixed_rotation_30_objects_occ0.7_0.9s/images/train/n03001627_9/n02883344_15/img_chair_eames_plastic_armchair_microwave_box_2011-3_gray.png,foreground,same as foreground,n03001627_9,n02883344_15,Stimuli/canonical view 2/img_n03001627_9_gray.jpg,Stimuli/canonical view 2/img_n02883344_15_gray.jpg,foreground,left,Experiments/experiment_11/288.jpg,Experiments/experiment_11/289.jpg,Experiments/experiment_11/290.jpg,Experiments/experiment_11/291.jpg,970,1,2023-09-17_11h40.11.446,Occlusion_Psychophysics,2022.1.4,Win32,60.11060351,,,left,"[""right""]",[0.9521999999992659],False,,0.0,0.0,72.0,72.0,72.0,1.0,,,,,,
,,,,,,,,,,,,,,,,,,,,,0.05,,,,,,,,,,Stimuli/psy_fixed_rotation_30_objects_occ0.7_0.9s/images/train/n04405907_5/n04256520_4/img_samsung_40_uhd_smart_tv_2011_club_house_italia_nautilus_sofa_2012_gray.jpg,n04405907_5,n04256520_4,fixed,0.704023,n04256520_4,Stimuli/psy_fixed_rotation_30_objects_occ0.7_0.9s/images/train/n04405907_5/n04256520_4/img_samsung_40_uhd_smart_tv_2011_club_house_italia_nautilus_sofa_2012-3_gray.png,foreground,same as foreground,n04405907_5,n04256520_4,Stimuli/canonical view 2/img_n04405907_5_gray.jpg,Stimuli/canonical view 2/img_n04256520_4_gray.jpg,foreground,right,Experiments/experiment_11/292.jpg,Experiments/experiment_11/293.jpg,Experiments/experiment_11/294.jpg,Experiments/experiment_11/295.jpg,970,1,2023-09-17_11h40.11.446,Occlusion_Psychophysics,2022.1.4,Win32,60.11060351,,,left,"[""left""]",[0.6520999999996775],False,,0.0,0.0,73.0,73.0,73.0,1.0,,,,,,
,,,,,,,,,,,,,,,,,,,,,0.05,,,,,,,,,,Stimuli/psy_fixed_rotation_30_objects_occ0.7_0.9s/images/train/n04256520_5/n02883344_-1/img_meridiani_belmondo_bench_sofa_woven_box_2014_gray.jpg,n04256520_5,n02883344_-1,fixed,0.706435,n03928116_10,Stimuli/psy_fixed_rotation_30_objects_occ0.7_0.9s/images/train/n04379243_-7/n03928116_10/img_quatre_dining_table_ydp_103_r_2012__vray_2013-3_gray.png,random,fixed,n04256520_5,n02818832_0,Stimuli/canonical view 2/img_n04256520_5_gray.jpg,Stimuli/canonical view 2/img_n02818832_0_gray.jpg,random,right,Experiments/experiment_11/296.jpg,Experiments/experiment_11/297.jpg,Experiments/experiment_11/298.jpg,Experiments/experiment_11/299.jpg,970,1,2023-09-17_11h40.11.446,Occlusion_Psychophysics,2022.1.4,Win32,60.11060351,,,left,"[""right""]",[0.6857999999988351],False,,0.0,0.0,74.0,74.0,74.0,1.0,,,,,,
,,,,,,,,,,,,,,,,,,,,,0.05,,,,,,,,,,Stimuli/psy_flexible_rotation_30_objects_occ0.7_0.9s/images/train/n02828884_4/n04379243_-7/img_b05_c-5_classic_series_bench-2012_quatre_dining_table_2015_gray.jpg,n02828884_4,n04379243_-7,flexible,0.721323,n04379243_-7,Stimuli/psy_flexible_rotation_30_objects_occ0.7_0.9s/images/train/n02828884_4/n04379243_-7/img_b05_c-5_classic_series_bench-2012_quatre_dining_table_2015-3_gray.png,foreground,same as foreground,n02828884_4,n04379243_-7,Stimuli/canonical view 2/img_n02828884_4_gray.jpg,Stimuli/canonical view 2/img_n04379243_-7_gray.jpg,foreground,left,Experiments/experiment_11/300.jpg,Experiments/experiment_11/301.jpg,Experiments/experiment_11/302.jpg,Experiments/experiment_11/303.jpg,970,1,2023-09-17_11h40.11.446,Occlusion_Psychophysics,2022.1.4,Win32,60.11060351,,,left,"[""left""]",[1.315499999999929],False,,0.0,0.0,75.0,75.0,75.0,1.0,,,,,,
,,,,,,,,,,,,,,,,,,,,,0.025,,,,,,,,,,Stimuli/psy_flexible_rotation_30_objects_occ0.7_0.9s/images/train/n02828884_4/n04405907_5/img_b05_c-5_classic_series_bench-2012_samsung_40_uhd_smart_tv_2011_2001_gray.jpg,n02828884_4,n04405907_5,flexible,0.723156,n04405907_8,Stimuli/psy_fixed_rotation_30_objects_occ0.7_0.9s/images/train/n02883344_-1/n04405907_8/img_woven_box_stylized_tv_2000-3_gray.png,random,fixed,n02828884_4,n04379243_8,Stimuli/canonical view 2/img_n02828884_4_gray.jpg,Stimuli/canonical view 2/img_n04379243_8_gray.jpg,random,left,Experiments/experiment_11/304.jpg,Experiments/experiment_11/305.jpg,Experiments/experiment_11/306.jpg,Experiments/experiment_11/307.jpg,970,1,2023-09-17_11h40.11.446,Occlusion_Psychophysics,2022.1.4,Win32,60.11060351,,,left,"[""left""]",[0.6344000000003689],False,,0.0,0.0,76.0,76.0,76.0,1.0,,,,,,
,,,,,,,,,,,,,,,,,,,,,0.05,,,,,,,,,,Stimuli/psy_flexible_rotation_30_objects_occ0.7_0.9s/images/train/n04379243_0/n02818832_3/img_17th_c._monastery_dining_table_2010_b05_ccm_contemporary_bed_max2013_2004_gray.jpg,n04379243_0,n02818832_3,flexible,0.784992,n02818832_3,Stimuli/psy_flexible_rotation_30_objects_occ0.7_0.9s/images/train/n04379243_0/n02818832_3/img_17th_c._monastery_dining_table_2010_b05_ccm_contemporary_bed_max2013_2004-3_gray.png,foreground,same as foreground,n04379243_0,n04256520_4,Stimuli/canonical view 2/img_n04379243_0_gray.jpg,Stimuli/canonical view 2/img_n04256520_4_gray.jpg,random,right,Experiments/experiment_11/308.jpg,Experiments/experiment_11/309.jpg,Experiments/experiment_11/310.jpg,Experiments/experiment_11/311.jpg,970,1,2023-09-17_11h40.11.446,Occlusion_Psychophysics,2022.1.4,Win32,60.11060351,,,right,"[""right""]",[0.5543000000006941],False,,0.0,0.0,77.0,77.0,77.0,1.0,,,,,,
,,,,,,,,,,,,,,,,,,,,,0.025,,,,,,,,,,Stimuli/psy_flexible_rotation_30_objects_occ0.7_0.9s/images/train/n02818832_0/n02828884_4/img_b03_the_sofa_and_chair_company_-_stanley_bed_2014_b05_c-5_classic_series_bench-2012_2007_gray.jpg,n02818832_0,n02828884_4,flexible,0.864302,n02933112_-18,Stimuli/psy_fixed_rotation_30_objects_occ0.7_0.9s/images/train/n02818832_0/n02933112_-18/img_b03_the_sofa_and_chair_company_-_stanley_bed_2014_cgaxis_models_48_26_vray_composite_2011-3_gray.png,random,fixed,n02818832_0,n03928116_0,Stimuli/canonical view 2/img_n02818832_0_gray.jpg,Stimuli/canonical view 2/img_n03928116_0_gray.jpg,random,left,Experiments/experiment_11/312.jpg,Experiments/experiment_11/313.jpg,Experiments/experiment_11/314.jpg,Experiments/experiment_11/315.jpg,970,1,2023-09-17_11h40.11.446,Occlusion_Psychophysics,2022.1.4,Win32,60.11060351,,,right,"[""right""]",[0.93850000000009],False,,0.0,0.0,78.0,78.0,78.0,1.0,,,,,,
,,,,,,,,,,,,,,,,,,,,,0.05,,,,,,,,,,Stimuli/psy_fixed_rotation_30_objects_occ0.7_0.9s/images/train/n04405907_5/n02883344_15/img_samsung_40_uhd_smart_tv_2011_microwave_box_2008_gray.jpg,n04405907_5,n02883344_15,fixed,0.854953,n02883344_15,Stimuli/psy_fixed_rotation_30_objects_occ0.7_0.9s/images/train/n04405907_5/n02883344_15/img_samsung_40_uhd_smart_tv_2011_microwave_box_2008-3_gray.png,foreground,same as foreground,n04405907_5,n02883344_-1,Stimuli/canonical view 2/img_n04405907_5_gray.jpg,Stimuli/canonical view 2/img_n02883344_-1_gray.jpg,random,right,Experiments/experiment_11/316.jpg,Experiments/experiment_11/317.jpg,Experiments/experiment_11/318.jpg,Experiments/experiment_11/319.jpg,970,1,2023-09-17_11h40.11.446,Occlusion_Psychophysics,2022.1.4,Win32,60.11060351,,,right,"[""right""]",[0.8526999999992313],False,,0.0,0.0,79.0,79.0,79.0,1.0,,,,,,
,,,,,,,,,,,,,,,,,,,,,0.025,,,,,,,,,,Stimuli/psy_fixed_rotation_30_objects_occ0.7_0.9s/images/train/n02818832_3/n03928116_0/img_b05_ccm_contemporary_bed_max2013_b02_piano_2006_gray.jpg,n02818832_3,n03928116_0,fixed,0.857803,n03928116_0,Stimuli/psy_fixed_rotation_30_objects_occ0.7_0.9s/images/train/n02818832_3/n03928116_0/img_b05_ccm_contemporary_bed_max2013_b02_piano_2006-3_gray.png,foreground,same as foreground,n02818832_3,n03928116_0,Stimuli/canonical view 2/img_n02818832_3_gray.jpg,Stimuli/canonical view 2/img_n03928116_0_gray.jpg,foreground,left,Experiments/experiment_11/320.jpg,Experiments/experiment_11/321.jpg,Experiments/experiment_11/322.jpg,Experiments/experiment_11/323.jpg,970,1,2023-09-17_11h40.11.446,Occlusion_Psychophysics,2022.1.4,Win32,60.11060351,,,right,"[""left""]",[1.0149999999999864],False,,0.0,0.0,80.0,80.0,80.0,1.0,,,,,,
,,,,,,,,,,,,,,,,,,,,,0.025,,,,,,,,,,Stimuli/psy_fixed_rotation_30_objects_occ0.7_0.9s/images/train/n02818832_0/n02828884_3/img_b03_the_sofa_and_chair_company_-_stanley_bed_2014_b04_wood_metal_park_bench_2013_gray.jpg,n02818832_0,n02828884_3,fixed,0.84077,n02828884_3,Stimuli/psy_fixed_rotation_30_objects_occ0.7_0.9s/images/train/n02818832_0/n02828884_3/img_b03_the_sofa_and_chair_company_-_stanley_bed_2014_b04_wood_metal_park_bench_2013-3_gray.png,foreground,same as foreground,n02818832_0,n02828884_3,Stimuli/canonical view 2/img_n02818832_0_gray.jpg,Stimuli/canonical view 2/img_n02828884_3_gray.jpg,foreground,left,Experiments/experiment_11/324.jpg,Experiments/experiment_11/325.jpg,Experiments/experiment_11/326.jpg,Experiments/experiment_11/327.jpg,970,1,2023-09-17_11h40.11.446,Occlusion_Psychophysics,2022.1.4,Win32,60.11060351,,,right,"[""right""]",[1.188099999999622],False,,0.0,0.0,81.0,81.0,81.0,1.0,,,,,,
,,,,,,,,,,,,,,,,,,,,,0.05,,,,,,,,,,Stimuli/psy_fixed_rotation_30_objects_occ0.7_0.9s/images/train/n04256520_9/n02818832_3/img_napoleon_iii_sofa_b05_ccm_contemporary_bed_max2013_2007_gray.jpg,n04256520_9,n02818832_3,fixed,0.748212,n02818832_3,Stimuli/psy_fixed_rotation_30_objects_occ0.7_0.9s/images/train/n04256520_9/n02818832_3/img_napoleon_iii_sofa_b05_ccm_contemporary_bed_max2013_2007-3_gray.png,foreground,same as foreground,n04256520_9,n04256520_5,Stimuli/canonical view 2/img_n04256520_9_gray.jpg,Stimuli/canonical view 2/img_n04256520_5_gray.jpg,random,right,Experiments/experiment_11/328.jpg,Experiments/experiment_11/329.jpg,Experiments/experiment_11/330.jpg,Experiments/experiment_11/331.jpg,970,1,2023-09-17_11h40.11.446,Occlusion_Psychophysics,2022.1.4,Win32,60.11060351,,,right,"[""right""]",[1.058999999999969],False,,0.0,0.0,82.0,82.0,82.0,1.0,,,,,,
,,,,,,,,,,,,,,,,,,,,,0.05,,,,,,,,,,Stimuli/psy_flexible_rotation_30_objects_occ0.7_0.9s/images/train/n04379243_-7/n02933112_4/img_quatre_dining_table_buffet_2014_gray.jpg,n04379243_-7,n02933112_4,flexible,0.749142,n02933112_4,Stimuli/psy_flexible_rotation_30_objects_occ0.7_0.9s/images/train/n04379243_-7/n02933112_4/img_quatre_dining_table_buffet_2014-3_gray.png,foreground,same as foreground,n04379243_-7,n02818832_9,Stimuli/canonical view 2/img_n04379243_-7_gray.jpg,Stimuli/canonical view 2/img_n02818832_9_gray.jpg,random,left,Experiments/experiment_11/332.jpg,Experiments/experiment_11/333.jpg,Experiments/experiment_11/334.jpg,Experiments/experiment_11/335.jpg,970,1,2023-09-17_11h40.11.446,Occlusion_Psychophysics,2022.1.4,Win32,60.11060351,,,left,"[""left""]",[0.8682999999988397],False,,0.0,0.0,83.0,83.0,83.0,1.0,,,,,,
,,,,,,,,,,,,,,,,,,,,,0.05,,,,,,,,,,Stimuli/psy_flexible_rotation_30_objects_occ0.7_0.9s/images/train/n04379243_8/n02883344_0/img_glass_table_b03_box_2011_gray.jpg,n04379243_8,n02883344_0,flexible,0.769017,n02883344_0,Stimuli/psy_flexible_rotation_30_objects_occ0.7_0.9s/images/train/n04379243_8/n02883344_0/img_glass_table_b03_box_2011-3_gray.png,foreground,same as foreground,n04379243_8,n02883344_0,Stimuli/canonical view 2/img_n04379243_8_gray.jpg,Stimuli/canonical view 2/img_n02883344_0_gray.jpg,foreground,left,Experiments/experiment_11/336.jpg,Experiments/experiment_11/337.jpg,Experiments/experiment_11/338.jpg,Experiments/experiment_11/339.jpg,970,1,2023-09-17_11h40.11.446,Occlusion_Psychophysics,2022.1.4,Win32,60.11060351,,,right,"[""right""]",[0.6426999999993086],False,,0.0,0.0,84.0,84.0,84.0,1.0,,,,,,
,,,,,,,,,,,,,,,,,,,,,0.05,,,,,,,,,,Stimuli/psy_fixed_rotation_30_objects_occ0.7_0.9s/images/train/n04379243_8/n03928116_4/img_glass_table_dp_33_b_2013__vray_2000_gray.jpg,n04379243_8,n03928116_4,fixed,0.702729,n03928116_4,Stimuli/psy_fixed_rotation_30_objects_occ0.7_0.9s/images/train/n04379243_8/n03928116_4/img_glass_table_dp_33_b_2013__vray_2000-3_gray.png,foreground,same as foreground,n04379243_8,n03928116_4,Stimuli/canonical view 2/img_n04379243_8_gray.jpg,Stimuli/canonical view 2/img_n03928116_4_gray.jpg,foreground,right,Experiments/experiment_11/340.jpg,Experiments/experiment_11/341.jpg,Experiments/experiment_11/342.jpg,Experiments/experiment_11/343.jpg,970,1,2023-09-17_11h40.11.446,Occlusion_Psychophysics,2022.1.4,Win32,60.11060351,,,left,"[""left""]",[0.5902000000011185],False,,0.0,0.0,85.0,85.0,85.0,1.0,,,,,,
,,,,,,,,,,,,,,,,,,,,,0.025,,,,,,,,,,Stimuli/psy_fixed_rotation_30_objects_occ0.7_0.9s/images/train/n02883344_15/n03928116_0/img_microwave_box_b02_piano_2006_gray.jpg,n02883344_15,n03928116_0,fixed,0.717759,n04405907_5,Stimuli/psy_flexible_rotation_30_objects_occ0.7_0.9s/images/train/n04379243_0/n04405907_5/img_17th_c._monastery_dining_table_2010_samsung_40_uhd_smart_tv_2011_2014-3_gray.png,random,flexible,n02883344_15,n04256520_5,Stimuli/canonical view 2/img_n02883344_15_gray.jpg,Stimuli/canonical view 2/img_n04256520_5_gray.jpg,random,left,Experiments/experiment_11/344.jpg,Experiments/experiment_11/345.jpg,Experiments/experiment_11/346.jpg,Experiments/experiment_11/347.jpg,970,1,2023-09-17_11h40.11.446,Occlusion_Psychophysics,2022.1.4,Win32,60.11060351,,,right,"[""right""]",[0.6426999999991949],False,,0.0,0.0,86.0,86.0,86.0,1.0,,,,,,
,,,,,,,,,,,,,,,,,,,,,0.05,,,,,,,,,,Stimuli/psy_fixed_rotation_30_objects_occ0.7_0.9s/images/train/n04256520_5/n04405907_8/img_meridiani_belmondo_bench_sofa_stylized_tv_2009_gray.jpg,n04256520_5,n04405907_8,fixed,0.721172,n04405907_8,Stimuli/psy_fixed_rotation_30_objects_occ0.7_0.9s/images/train/n04256520_5/n04405907_8/img_meridiani_belmondo_bench_sofa_stylized_tv_2009-3_gray.png,foreground,same as foreground,n04256520_5,n04405907_5,Stimuli/canonical view 2/img_n04256520_5_gray.jpg,Stimuli/canonical view 2/img_n04405907_5_gray.jpg,random,right,Experiments/experiment_11/348.jpg,Experiments/experiment_11/349.jpg,Experiments/experiment_11/350.jpg,Experiments/experiment_11/351.jpg,970,1,2023-09-17_11h40.11.446,Occlusion_Psychophysics,2022.1.4,Win32,60.11060351,,,right,"[""right""]",[0.7350000000000136],False,,0.0,0.0,87.0,87.0,87.0,1.0,,,,,,
,,,,,,,,,,,,,,,,,,,,,0.025,,,,,,,,,,Stimuli/psy_fixed_rotation_30_objects_occ0.7_0.9s/images/train/n02933112_4/n04256520_9/img_buffet_napoleon_iii_sofa_2012_gray.jpg,n02933112_4,n04256520_9,fixed,0.765864,n04256520_9,Stimuli/psy_fixed_rotation_30_objects_occ0.7_0.9s/images/train/n02933112_4/n04256520_9/img_buffet_napoleon_iii_sofa_2012-3_gray.png,foreground,same as foreground,n02933112_4,n04405907_5,Stimuli/canonical view 2/img_n02933112_4_gray.jpg,Stimuli/canonical view 2/img_n04405907_5_gray.jpg,random,right,Experiments/experiment_11/352.jpg,Experiments/experiment_11/353.jpg,Experiments/experiment_11/354.jpg,Experiments/experiment_11/355.jpg,970,1,2023-09-17_11h40.11.446,Occlusion_Psychophysics,2022.1.4,Win32,60.11060351,,,right,"[""right""]",[0.694600000001401],False,,0.0,0.0,88.0,88.0,88.0,1.0,,,,,,
,,,,,,,,,,,,,,,,,,,,,0.025,,,,,,,,,,Stimuli/psy_flexible_rotation_30_objects_occ0.7_0.9s/images/train/n04405907_5/n02818832_0/img_samsung_40_uhd_smart_tv_2011_b03_the_sofa_and_chair_company_-_stanley_bed_2014_2013_gray.jpg,n04405907_5,n02818832_0,flexible,0.870529,n02818832_0,Stimuli/psy_flexible_rotation_30_objects_occ0.7_0.9s/images/train/n04405907_5/n02818832_0/img_samsung_40_uhd_smart_tv_2011_b03_the_sofa_and_chair_company_-_stanley_bed_2014_2013-3_gray.png,foreground,same as foreground,n04405907_5,n04379243_8,Stimuli/canonical view 2/img_n04405907_5_gray.jpg,Stimuli/canonical view 2/img_n04379243_8_gray.jpg,random,left,Experiments/experiment_11/356.jpg,Experiments/experiment_11/357.jpg,Experiments/experiment_11/358.jpg,Experiments/experiment_11/359.jpg,970,1,2023-09-17_11h40.11.446,Occlusion_Psychophysics,2022.1.4,Win32,60.11060351,,,left,"[""right""]",[0.818400000000338],False,,0.0,0.0,89.0,89.0,89.0,1.0,,,,,,
,,,,,,,,,,,,,,,,,,,,,0.05,,,,,,,,,,Stimuli/psy_fixed_rotation_30_objects_occ0.7_0.9s/images/train/n02883344_15/n02818832_9/img_microwave_box_bed01_blue_2006_gray.jpg,n02883344_15,n02818832_9,fixed,0.737948,n04405907_5,Stimuli/psy_flexible_rotation_30_objects_occ0.7_0.9s/images/train/n02933112_-2/n04405907_5/img_sink_base_white_wood_samsung_40_uhd_smart_tv_2011_2011-3_gray.png,random,flexible,n02883344_15,n02818832_9,Stimuli/canonical view 2/img_n02883344_15_gray.jpg,Stimuli/canonical view 2/img_n02818832_9_gray.jpg,foreground,left,Experiments/experiment_11/360.jpg,Experiments/experiment_11/361.jpg,Experiments/experiment_11/362.jpg,Experiments/experiment_11/363.jpg,970,1,2023-09-17_11h40.11.446,Occlusion_Psychophysics,2022.1.4,Win32,60.11060351,,,right,"[""right""]",[0.6719000000003916],False,,0.0,0.0,90.0,90.0,90.0,1.0,,,,,,
,,,,,,,,,,,,,,,,,,,,,0.025,,,,,,,,,,Stimuli/psy_fixed_rotation_30_objects_occ0.7_0.9s/images/train/n02883344_0/n03928116_4/img_b03_box_dp_33_b_2013__vray_2002_gray.jpg,n02883344_0,n03928116_4,fixed,0.737475,n03928116_4,Stimuli/psy_fixed_rotation_30_objects_occ0.7_0.9s/images/train/n02883344_0/n03928116_4/img_b03_box_dp_33_b_2013__vray_2002-3_gray.png,foreground,same as foreground,n02883344_0,n04256520_5,Stimuli/canonical view 2/img_n02883344_0_gray.jpg,Stimuli/canonical view 2/img_n04256520_5_gray.jpg,random,right,Experiments/experiment_11/364.jpg,Experiments/experiment_11/365.jpg,Experiments/experiment_11/366.jpg,Experiments/experiment_11/367.jpg,970,1,2023-09-17_11h40.11.446,Occlusion_Psychophysics,2022.1.4,Win32,60.11060351,,,right,"[""right""]",[0.5699999999999363],False,,0.0,0.0,91.0,91.0,91.0,1.0,,,,,,
,,,,,,,,,,,,,,,,,,,,,0.05,,,,,,,,,,Stimuli/psy_flexible_rotation_30_objects_occ0.7_0.9s/images/train/n02828884_3/n03928116_10/img_b04_wood_metal_park_bench_ydp_103_r_2012__vray_2012_gray.jpg,n02828884_3,n03928116_10,flexible,0.706868,n03928116_10,Stimuli/psy_flexible_rotation_30_objects_occ0.7_0.9s/images/train/n02828884_3/n03928116_10/img_b04_wood_metal_park_bench_ydp_103_r_2012__vray_2012-3_gray.png,foreground,same as foreground,n02828884_3,n02828884_9,Stimuli/canonical view 2/img_n02828884_3_gray.jpg,Stimuli/canonical view 2/img_n02828884_9_gray.jpg,random,right,Experiments/experiment_11/368.jpg,Experiments/experiment_11/369.jpg,Experiments/experiment_11/370.jpg,Experiments/experiment_11/371.jpg,970,1,2023-09-17_11h40.11.446,Occlusion_Psychophysics,2022.1.4,Win32,60.11060351,,,left,"[""left""]",[0.6405000000000882],False,,0.0,0.0,92.0,92.0,92.0,1.0,,,,,,
,,,,,,,,,,,,,,,,,,,,,0.05,,,,,,,,,,Stimuli/psy_flexible_rotation_30_objects_occ0.7_0.9s/images/train/n04256520_9/n02818832_0/img_napoleon_iii_sofa_b03_the_sofa_and_chair_company_-_stanley_bed_2014_2001_gray.jpg,n04256520_9,n02818832_0,flexible,0.705762,n02818832_0,Stimuli/psy_flexible_rotation_30_objects_occ0.7_0.9s/images/train/n04256520_9/n02818832_0/img_napoleon_iii_sofa_b03_the_sofa_and_chair_company_-_stanley_bed_2014_2001-3_gray.png,foreground,same as foreground,n04256520_9,n04405907_5,Stimuli/canonical view 2/img_n04256520_9_gray.jpg,Stimuli/canonical view 2/img_n04405907_5_gray.jpg,random,right,Experiments/experiment_11/372.jpg,Experiments/experiment_11/373.jpg,Experiments/experiment_11/374.jpg,Experiments/experiment_11/375.jpg,970,1,2023-09-17_11h40.11.446,Occlusion_Psychophysics,2022.1.4,Win32,60.11060351,,,right,"[""right""]",[0.6202999999987924],False,,0.0,0.0,93.0,93.0,93.0,1.0,,,,,,
,,,,,,,,,,,,,,,,,,,,,0.025,,,,,,,,,,Stimuli/psy_fixed_rotation_30_objects_occ0.7_0.9s/images/train/n02933112_-2/n04405907_8/img_sink_base_white_wood_stylized_tv_2007_gray.jpg,n02933112_-2,n04405907_8,fixed,0.798311,n02933112_4,Stimuli/psy_fixed_rotation_30_objects_occ0.7_0.9s/images/train/n02883344_-1/n02933112_4/img_woven_box_buffet_2013-3_gray.png,random,fixed,n02933112_-2,n04256520_4,Stimuli/canonical view 2/img_n02933112_-2_gray.jpg,Stimuli/canonical view 2/img_n04256520_4_gray.jpg,random,left,Experiments/experiment_11/376.jpg,Experiments/experiment_11/377.jpg,Experiments/experiment_11/378.jpg,Experiments/experiment_11/379.jpg,970,1,2023-09-17_11h40.11.446,Occlusion_Psychophysics,2022.1.4,Win32,60.11060351,,,right,"[""right""]",[0.5356000000014092],False,,0.0,0.0,94.0,94.0,94.0,1.0,,,,,,
,,,,,,,,,,,,,,,,,,,,,0.025,,,,,,,,,,Stimuli/psy_fixed_rotation_30_objects_occ0.7_0.9s/images/train/n04256520_5/n04405907_5/img_meridiani_belmondo_bench_sofa_samsung_40_uhd_smart_tv_2011_2011_gray.jpg,n04256520_5,n04405907_5,fixed,0.725331,n04256520_4,Stimuli/psy_fixed_rotation_30_objects_occ0.7_0.9s/images/train/n02883344_-1/n04256520_4/img_woven_box_club_house_italia_nautilus_sofa_2004-3_gray.png,random,fixed,n04256520_5,n02933112_-2,Stimuli/canonical view 2/img_n04256520_5_gray.jpg,Stimuli/canonical view 2/img_n02933112_-2_gray.jpg,random,left,Experiments/experiment_11/380.jpg,Experiments/experiment_11/381.jpg,Experiments/experiment_11/382.jpg,Experiments/experiment_11/383.jpg,970,1,2023-09-17_11h40.11.446,Occlusion_Psychophysics,2022.1.4,Win32,60.11060351,,,left,"[""left""]",[0.7535000000000309],False,,0.0,0.0,95.0,95.0,95.0,1.0,,,,,,
,,,,,,,,,,,,,,,,,,,,,0.05,,,,,,,,,,Stimuli/psy_flexible_rotation_30_objects_occ0.7_0.9s/images/train/n04405907_9/n02883344_-1/img_vray_004_woven_box_2008_gray.jpg,n04405907_9,n02883344_-1,flexible,0.782494,n03928116_10,Stimuli/psy_flexible_rotation_30_objects_occ0.7_0.9s/images/train/n04405907_8/n03928116_10/img_stylized_tv_ydp_103_r_2012__vray_2003-3_gray.png,random,flexible,n04405907_9,n02933112_-18,Stimuli/canonical view 2/img_n04405907_9_gray.jpg,Stimuli/canonical view 2/img_n02933112_-18_gray.jpg,random,right,Experiments/experiment_11/384.jpg,Experiments/experiment_11/385.jpg,Experiments/experiment_11/386.jpg,Experiments/experiment_11/387.jpg,970,1,2023-09-17_11h40.11.446,Occlusion_Psychophysics,2022.1.4,Win32,60.11060351,,,right,"[""left""]",[0.9354999999999336],False,,0.0,0.0,96.0,96.0,96.0,1.0,,,,,,
,,,,,,,,,,,,,,,,,,,,,0.025,,,,,,,,,,Stimuli/psy_flexible_rotation_30_objects_occ0.7_0.9s/images/train/n04405907_9/n02828884_3/img_vray_004_b04_wood_metal_park_bench_2007_gray.jpg,n04405907_9,n02828884_3,flexible,0.729452,n04405907_5,Stimuli/psy_flexible_rotation_30_objects_occ0.7_0.9s/images/train/n04256520_9/n04405907_5/img_napoleon_iii_sofa_samsung_40_uhd_smart_tv_2011_2004-3_gray.png,random,flexible,n04405907_9,n03928116_4,Stimuli/canonical view 2/img_n04405907_9_gray.jpg,Stimuli/canonical view 2/img_n03928116_4_gray.jpg,random,right,Experiments/experiment_11/388.jpg,Experiments/experiment_11/389.jpg,Experiments/experiment_11/390.jpg,Experiments/experiment_11/391.jpg,970,1,2023-09-17_11h40.11.446,Occlusion_Psychophysics,2022.1.4,Win32,60.11060351,,,left,"[""right""]",[0.7522000000010394],True,left,1.0,0.0,97.0,97.0,97.0,1.0,0.9417,,,,,
,,,,,,,,,,,,,,,,,,,,,0.05,,,,,,,,,,Stimuli/psy_fixed_rotation_30_objects_occ0.7_0.9s/images/train/n04379243_8/n02818832_3/img_glass_table_b05_ccm_contemporary_bed_max2013_2011_gray.jpg,n04379243_8,n02818832_3,fixed,0.752155,n02818832_3,Stimuli/psy_fixed_rotation_30_objects_occ0.7_0.9s/images/train/n04379243_8/n02818832_3/img_glass_table_b05_ccm_contemporary_bed_max2013_2011-3_gray.png,foreground,same as foreground,n04379243_8,n02818832_3,Stimuli/canonical view 2/img_n04379243_8_gray.jpg,Stimuli/canonical view 2/img_n02818832_3_gray.jpg,foreground,left,Experiments/experiment_11/392.jpg,Experiments/experiment_11/393.jpg,Experiments/experiment_11/394.jpg,Experiments/experiment_11/395.jpg,970,1,2023-09-17_11h40.11.446,Occlusion_Psychophysics,2022.1.4,Win32,60.11060351,,,left,"[""right""]",[0.7422999999988633],False,,0.0,0.0,98.0,98.0,98.0,1.0,,,,,,
,,,,,,,,,,,,,,,,,,,,,0.025,,,,,,,,,,Stimuli/psy_fixed_rotation_30_objects_occ0.7_0.9s/images/train/n04405907_8/n04256520_9/img_stylized_tv_napoleon_iii_sofa_2011_gray.jpg,n04405907_8,n04256520_9,fixed,0.779537,n02883344_0,Stimuli/psy_fixed_rotation_30_objects_occ0.7_0.9s/images/train/n03001627_8/n02883344_0/img_chair_billiani_doll_b03_box_2012-3_gray.png,random,fixed,n04405907_8,n04379243_-7,Stimuli/canonical view 2/img_n04405907_8_gray.jpg,Stimuli/canonical view 2/img_n04379243_-7_gray.jpg,random,right,Experiments/experiment_11/396.jpg,Experiments/experiment_11/397.jpg,Experiments/experiment_11/398.jpg,Experiments/experiment_11/399.jpg,970,1,2023-09-17_11h40.11.446,Occlusion_Psychophysics,2022.1.4,Win32,60.11060351,,,left,"[""left""]",[0.7674000000004071],False,,0.0,0.0,99.0,99.0,99.0,1.0,,,,,,
,,,,,,,,,,,,,,,,,,,,,,,,,,,,,,,,,,,,,,,,,,,,,,,,,,970,1,2023-09-17_11h40.11.446,Occlusion_Psychophysics,2022.1.4,Win32,60.11060351,,,,,,,,,,,,,,,0.0,0.0,0.0,0.0,1.0
,,,,,,,,,,,,,,,,,,,,,0.025,,,,,,,,,,Stimuli/psy_fixed_rotation_30_objects_occ0.7_0.9s/images/train/n02933112_-2/n02883344_-1/img_sink_base_white_wood_woven_box_2013_gray.jpg,n02933112_-2,n02883344_-1,fixed,0.769106,n02883344_-1,Stimuli/psy_fixed_rotation_30_objects_occ0.7_0.9s/images/train/n02933112_-2/n02883344_-1/img_sink_base_white_wood_woven_box_2013-3_gray.png,foreground,same as foreground,n02933112_-2,n02883344_-1,Stimuli/canonical view 2/img_n02933112_-2_gray.jpg,Stimuli/canonical view 2/img_n02883344_-1_gray.jpg,foreground,right,Experiments/experiment_11/400.jpg,Experiments/experiment_11/401.jpg,Experiments/experiment_11/402.jpg,Experiments/experiment_11/403.jpg,970,1,2023-09-17_11h40.11.446,Occlusion_Psychophysics,2022.1.4,Win32,60.11060351,,,right,"[""right""]",[0.5692000000011603],False,,0.0,0.0,0.0,0.0,0.0,1.0,,,,,,
,,,,,,,,,,,,,,,,,,,,,0.025,,,,,,,,,,Stimuli/psy_fixed_rotation_30_objects_occ0.7_0.9s/images/train/n04379243_8/n04405907_8/img_glass_table_stylized_tv_2004_gray.jpg,n04379243_8,n04405907_8,fixed,0.720164,n04405907_8,Stimuli/psy_fixed_rotation_30_objects_occ0.7_0.9s/images/train/n04379243_8/n04405907_8/img_glass_table_stylized_tv_2004-3_gray.png,foreground,same as foreground,n04379243_8,n04405907_8,Stimuli/canonical view 2/img_n04379243_8_gray.jpg,Stimuli/canonical view 2/img_n04405907_8_gray.jpg,foreground,left,Experiments/experiment_11/404.jpg,Experiments/experiment_11/405.jpg,Experiments/experiment_11/406.jpg,Experiments/experiment_11/407.jpg,970,1,2023-09-17_11h40.11.446,Occlusion_Psychophysics,2022.1.4,Win32,60.11060351,,,right,"[""right""]",[0.4505999999996675],False,,0.0,0.0,1.0,1.0,1.0,1.0,,,,,,
,,,,,,,,,,,,,,,,,,,,,0.025,,,,,,,,,,Stimuli/psy_fixed_rotation_30_objects_occ0.7_0.9s/images/train/n02883344_-1/n02818832_0/img_woven_box_b03_the_sofa_and_chair_company_-_stanley_bed_2014_2008_gray.jpg,n02883344_-1,n02818832_0,fixed,0.733478,n04379243_-7,Stimuli/psy_flexible_rotation_30_objects_occ0.7_0.9s/images/train/n02933112_4/n04379243_-7/img_buffet_quatre_dining_table_2008-3_gray.png,random,flexible,n02883344_-1,n02828884_4,Stimuli/canonical view 2/img_n02883344_-1_gray.jpg,Stimuli/canonical view 2/img_n02828884_4_gray.jpg,random,right,Experiments/experiment_11/408.jpg,Experiments/experiment_11/409.jpg,Experiments/experiment_11/410.jpg,Experiments/experiment_11/411.jpg,970,1,2023-09-17_11h40.11.446,Occlusion_Psychophysics,2022.1.4,Win32,60.11060351,,,left,"[""left""]",[0.5366999999993141],False,,0.0,0.0,2.0,2.0,2.0,1.0,,,,,,
,,,,,,,,,,,,,,,,,,,,,0.05,,,,,,,,,,Stimuli/psy_flexible_rotation_30_objects_occ0.7_0.9s/images/train/n02883344_0/n02933112_-18/img_b03_box_cgaxis_models_48_26_vray_composite_2011_gray.jpg,n02883344_0,n02933112_-18,flexible,0.781434,n02933112_-18,Stimuli/psy_flexible_rotation_30_objects_occ0.7_0.9s/images/train/n02883344_0/n02933112_-18/img_b03_box_cgaxis_models_48_26_vray_composite_2011-3_gray.png,foreground,same as foreground,n02883344_0,n02933112_-18,Stimuli/canonical view 2/img_n02883344_0_gray.jpg,Stimuli/canonical view 2/img_n02933112_-18_gray.jpg,foreground,right,Experiments/experiment_11/412.jpg,Experiments/experiment_11/413.jpg,Experiments/experiment_11/414.jpg,Experiments/experiment_11/415.jpg,970,1,2023-09-17_11h40.11.446,Occlusion_Psychophysics,2022.1.4,Win32,60.11060351,,,left,"[""left""]",[0.5675999999996293],False,,0.0,0.0,3.0,3.0,3.0,1.0,,,,,,
,,,,,,,,,,,,,,,,,,,,,0.025,,,,,,,,,,Stimuli/psy_flexible_rotation_30_objects_occ0.7_0.9s/images/train/n02933112_-2/n04405907_9/img_sink_base_white_wood_vray_004_2005_gray.jpg,n02933112_-2,n04405907_9,flexible,0.752362,n02818832_0,Stimuli/psy_fixed_rotation_30_objects_occ0.7_0.9s/images/train/n02818832_3/n02818832_0/img_b05_ccm_contemporary_bed_max2013_b03_the_sofa_and_chair_company_-_stanley_bed_2014_2010-3_gray.png,random,fixed,n02933112_-2,n02828884_9,Stimuli/canonical view 2/img_n02933112_-2_gray.jpg,Stimuli/canonical view 2/img_n02828884_9_gray.jpg,random,right,Experiments/experiment_11/416.jpg,Experiments/experiment_11/417.jpg,Experiments/experiment_11/418.jpg,Experiments/experiment_11/419.jpg,970,1,2023-09-17_11h40.11.446,Occlusion_Psychophysics,2022.1.4,Win32,60.11060351,,,left,"[""left""]",[0.5346999999992477],True,left,1.0,0.0,4.0,4.0,4.0,1.0,0.9575,,,,,
,,,,,,,,,,,,,,,,,,,,,0.025,,,,,,,,,,Stimuli/psy_flexible_rotation_30_objects_occ0.7_0.9s/images/train/n02818832_3/n03928116_4/img_b05_ccm_contemporary_bed_max2013_dp_33_b_2013__vray_2000_gray.jpg,n02818832_3,n03928116_4,flexible,0.707029,n03928116_4,Stimuli/psy_flexible_rotation_30_objects_occ0.7_0.9s/images/train/n02818832_3/n03928116_4/img_b05_ccm_contemporary_bed_max2013_dp_33_b_2013__vray_2000-3_gray.png,foreground,same as foreground,n02818832_3,n02933112_-2,Stimuli/canonical view 2/img_n02818832_3_gray.jpg,Stimuli/canonical view 2/img_n02933112_-2_gray.jpg,random,right,Experiments/experiment_11/420.jpg,Experiments/experiment_11/421.jpg,Experiments/experiment_11/422.jpg,Experiments/experiment_11/423.jpg,970,1,2023-09-17_11h40.11.446,Occlusion_Psychophysics,2022.1.4,Win32,60.11060351,,,left,"[""right""]",[0.6059999999999945],False,,0.0,0.0,5.0,5.0,5.0,1.0,,,,,,
,,,,,,,,,,,,,,,,,,,,,0.025,,,,,,,,,,Stimuli/psy_fixed_rotation_30_objects_occ0.7_0.9s/images/train/n02828884_9/n02883344_-1/img_cr-96_bench_woven_box_2001_gray.jpg,n02828884_9,n02883344_-1,fixed,0.741995,n02933112_4,Stimuli/psy_fixed_rotation_30_objects_occ0.7_0.9s/images/train/n03001627_9/n02933112_4/img_chair_eames_plastic_armchair_buffet_2013-3_gray.png,random,fixed,n02828884_9,n02933112_-18,Stimuli/canonical view 2/img_n02828884_9_gray.jpg,Stimuli/canonical view 2/img_n02933112_-18_gray.jpg,random,right,Experiments/experiment_11/424.jpg,Experiments/experiment_11/425.jpg,Experiments/experiment_11/426.jpg,Experiments/experiment_11/427.jpg,970,1,2023-09-17_11h40.11.446,Occlusion_Psychophysics,2022.1.4,Win32,60.11060351,,,right,"[""right""]",[0.6555000000000746],True,right,1.0,0.0,6.0,6.0,6.0,1.0,0.8008,,,,,
,,,,,,,,,,,,,,,,,,,,,0.05,,,,,,,,,,Stimuli/psy_flexible_rotation_30_objects_occ0.7_0.9s/images/train/n04405907_8/n02883344_0/img_stylized_tv_b03_box_2011_gray.jpg,n04405907_8,n02883344_0,flexible,0.809656,n03928116_4,Stimuli/psy_flexible_rotation_30_objects_occ0.7_0.9s/images/train/n02883344_-1/n03928116_4/img_woven_box_dp_33_b_2013__vray_2010-3_gray.png,random,flexible,n04405907_8,n02818832_3,Stimuli/canonical view 2/img_n04405907_8_gray.jpg,Stimuli/canonical view 2/img_n02818832_3_gray.jpg,random,right,Experiments/experiment_11/428.jpg,Experiments/experiment_11/429.jpg,Experiments/experiment_11/430.jpg,Experiments/experiment_11/431.jpg,970,1,2023-09-17_11h40.11.446,Occlusion_Psychophysics,2022.1.4,Win32,60.11060351,,,left,"[""left""]",[1.0684999999999718],False,,0.0,0.0,7.0,7.0,7.0,1.0,,,,,,
,,,,,,,,,,,,,,,,,,,,,0.025,,,,,,,,,,Stimuli/psy_flexible_rotation_30_objects_occ0.7_0.9s/images/train/n03001627_9/n04405907_5/img_chair_eames_plastic_armchair_samsung_40_uhd_smart_tv_2011_2013_gray.jpg,n03001627_9,n04405907_5,flexible,0.74768,n04405907_5,Stimuli/psy_flexible_rotation_30_objects_occ0.7_0.9s/images/train/n03001627_9/n04405907_5/img_chair_eames_plastic_armchair_samsung_40_uhd_smart_tv_2011_2013-3_gray.png,foreground,same as foreground,n03001627_9,n04256520_5,Stimuli/canonical view 2/img_n03001627_9_gray.jpg,Stimuli/canonical view 2/img_n04256520_5_gray.jpg,random,left,Experiments/experiment_11/432.jpg,Experiments/experiment_11/433.jpg,Experiments/experiment_11/434.jpg,Experiments/experiment_11/435.jpg,970,1,2023-09-17_11h40.11.446,Occlusion_Psychophysics,2022.1.4,Win32,60.11060351,,,right,"[""right""]",[0.6474000000004025],False,,0.0,0.0,8.0,8.0,8.0,1.0,,,,,,
