in_color,Instructions_key.keys,Instructions_key.rt,Tutorial_instruction_key.keys,Tutorial_instruction_key.rt,Tutorial_fixation_ley.keys,Tutorial_fixation_ley.rt,Tutorial_single_img_key.keys,Tutorial_single_img_key.rt,Tutorial_intra_trial_fixation_key.keys,Tutorial_intra_trial_fixation_key.rt,Tutorial_stimulus_key.keys,Tutorial_stimulus_key.rt,Tutorial_response_key.keys,Tutorial_response_key.rt,Tutorial_attention_check_key.keys,Tutorial_attention_check_key.rt,advance_or_repeat.keys,advance_or_repeat.rt,Practice_instructions_key.keys,Practice_instructions_key.rt,intra_trial_duration,Practice_key_response.keys,Practice_key_response.rt,Practice_react_key.keys,Practice_react_key.rt,Practice_loop.thisRepN,Practice_loop.thisTrialN,Practice_loop.thisN,Practice_loop.thisIndex,Practice_loop.ran,multi_object_filepath,background_id,foreground_id,multi_object_rotation,occlusion_level,single_object_id,single_object_filepath,single_is_foreground_or_random,single_object_rotation,background_choice_id,alt_choice_id,background_option_filepath,alternative_option_filepath,alternative_is_foreground_or_random,location_of_correct_answer,multi_object_exp_filename,single_object_exp_filename,background_option_exp_filename,alternative_option_exp_filename,participant,session,date,expName,psychopyVersion,OS,frameRate,Practice_end_key.keys,Practice_end_key.rt,correct_answer,Input_selection.keys,Input_selection.rt,Was_attention_check,Attention_check.keys,Attention_check.corr,Attention_check.rt,Each_session_loop.thisRepN,Each_session_loop.thisTrialN,Each_session_loop.thisN,Each_session_loop.thisIndex,Each_session_loop.ran,Num_sessions.thisRepN,Num_sessions.thisTrialN,Num_sessions.thisN,Num_sessions.thisIndex,Num_sessions.ran
False,space,30.5069,space,3.6393,space,2.6314,space,4.6125,space,2.4696,space,10.811,space,7.9126,space,5.1159,a,8.4117,space,2.7909,0.025,left,1.5317,a,5.1323,0.0,0.0,0.0,0.0,1.0,Stimuli/psy_fixed_rotation_30_objects_occ0.7_0.9s/images/train/n04405907_9/n02933112_-18/img_vray_004_cgaxis_models_48_26_vray_composite_2014_gray.jpg,n04405907_9,n02933112_-18,fixed,0.814809,n03001627_-2,Stimuli/psy_fixed_rotation_30_objects_occ0.7_0.9s/images/train/n04070727_3/n03001627_-2/img_b05_db_apps_tech_06_02_2_composite_wood_chair_2004-3_gray.png,random,fixed,n04405907_9,n04405907_5,Stimuli/canonical view 2/img_n04405907_9_gray.jpg,Stimuli/canonical view 2/img_n04405907_5_gray.jpg,random,right,Experiments/experiment_16/1000.jpg,Experiments/experiment_16/1001.jpg,Experiments/experiment_16/1002.jpg,Experiments/experiment_16/1003.jpg,976,1,2023-05-26_14h36.31.004,Occlusion_Psychophysics,2022.1.4,Win32,143.9055979,,,,,,,,,,,,,,,,,,,
,,,,,,,,,,,,,,,,,,,,,0.05,,,,,,,,,,Stimuli/psy_flexible_rotation_30_objects_occ0.7_0.9s/images/train/n04379243_0/n02828884_3/img_17th_c._monastery_dining_table_2010_b04_wood_metal_park_bench_2002_gray.jpg,n04379243_0,n02828884_3,flexible,0.748212,n02933112_-2,Stimuli/psy_fixed_rotation_30_objects_occ0.7_0.9s/images/train/n04405907_8/n02933112_-2/img_stylized_tv_sink_base_white_wood_2013-3_gray.png,random,fixed,n04379243_0,n02828884_3,Stimuli/canonical view 2/img_n04379243_0_gray.jpg,Stimuli/canonical view 2/img_n02828884_3_gray.jpg,foreground,right,Experiments/experiment_16/0.jpg,Experiments/experiment_16/1.jpg,Experiments/experiment_16/2.jpg,Experiments/experiment_16/3.jpg,976,1,2023-05-26_14h36.31.004,Occlusion_Psychophysics,2022.1.4,Win32,143.9055979,space,2.8833,left,"[""right""]",[1.1514999999999986],True,right,1.0,0.8765,0.0,0.0,0.0,0.0,1.0,,,,,
,,,,,,,,,,,,,,,,,,,,,0.05,,,,,,,,,,Stimuli/psy_fixed_rotation_30_objects_occ0.7_0.9s/images/train/n04256520_5/n02818832_9/img_meridiani_belmondo_bench_sofa_bed01_blue_2003_gray.jpg,n04256520_5,n02818832_9,fixed,0.767429,n02883344_-1,Stimuli/psy_fixed_rotation_30_objects_occ0.7_0.9s/images/train/n04256520_5/n02883344_-1/img_meridiani_belmondo_bench_sofa_woven_box_2013-3_gray.png,random,fixed,n04256520_5,n02818832_9,Stimuli/canonical view 2/img_n04256520_5_gray.jpg,Stimuli/canonical view 2/img_n02818832_9_gray.jpg,foreground,right,Experiments/experiment_16/4.jpg,Experiments/experiment_16/5.jpg,Experiments/experiment_16/6.jpg,Experiments/experiment_16/7.jpg,976,1,2023-05-26_14h36.31.004,Occlusion_Psychophysics,2022.1.4,Win32,143.9055979,,,left,"[""right""]",[1.399799999952279],False,,0.0,,0.0,1.0,1.0,1.0,1.0,,,,,
,,,,,,,,,,,,,,,,,,,,,0.025,,,,,,,,,,Stimuli/psy_flexible_rotation_30_objects_occ0.7_0.9s/images/train/n02933112_-18/n02883344_-1/img_cgaxis_models_48_26_vray_composite_woven_box_2004_gray.jpg,n02933112_-18,n02883344_-1,flexible,0.758762,n02883344_-1,Stimuli/psy_flexible_rotation_30_objects_occ0.7_0.9s/images/train/n02933112_-18/n02883344_-1/img_cgaxis_models_48_26_vray_composite_woven_box_2004-3_gray.png,foreground,same as foreground,n02933112_-18,n02883344_-1,Stimuli/canonical view 2/img_n02933112_-18_gray.jpg,Stimuli/canonical view 2/img_n02883344_-1_gray.jpg,foreground,right,Experiments/experiment_16/8.jpg,Experiments/experiment_16/9.jpg,Experiments/experiment_16/10.jpg,Experiments/experiment_16/11.jpg,976,1,2023-05-26_14h36.31.004,Occlusion_Psychophysics,2022.1.4,Win32,143.9055979,,,left,"[""left""]",[1.2539000000953706],False,,0.0,,0.0,2.0,2.0,2.0,1.0,,,,,
,,,,,,,,,,,,,,,,,,,,,0.05,,,,,,,,,,Stimuli/psy_flexible_rotation_30_objects_occ0.7_0.9s/images/train/n04256520_5/n02883344_15/img_meridiani_belmondo_bench_sofa_microwave_box_2008_gray.jpg,n04256520_5,n02883344_15,flexible,0.735755,n02818832_0,Stimuli/psy_fixed_rotation_30_objects_occ0.7_0.9s/images/train/n04256520_5/n02818832_0/img_meridiani_belmondo_bench_sofa_b03_the_sofa_and_chair_company_-_stanley_bed_2014_2010-3_gray.png,random,fixed,n04256520_5,n02883344_15,Stimuli/canonical view 2/img_n04256520_5_gray.jpg,Stimuli/canonical view 2/img_n02883344_15_gray.jpg,foreground,right,Experiments/experiment_16/12.jpg,Experiments/experiment_16/13.jpg,Experiments/experiment_16/14.jpg,Experiments/experiment_16/15.jpg,976,1,2023-05-26_14h36.31.004,Occlusion_Psychophysics,2022.1.4,Win32,143.9055979,,,right,"[""right""]",[1.167299999952263],False,,0.0,,0.0,3.0,3.0,3.0,1.0,,,,,
,,,,,,,,,,,,,,,,,,,,,0.05,,,,,,,,,,Stimuli/psy_fixed_rotation_30_objects_occ0.7_0.9s/images/train/n04256520_4/n04405907_5/img_club_house_italia_nautilus_sofa_samsung_40_uhd_smart_tv_2011_2013_gray.jpg,n04256520_4,n04405907_5,fixed,0.753088,n04405907_5,Stimuli/psy_fixed_rotation_30_objects_occ0.7_0.9s/images/train/n04256520_4/n04405907_5/img_club_house_italia_nautilus_sofa_samsung_40_uhd_smart_tv_2011_2013-3_gray.png,foreground,same as foreground,n04256520_4,n04405907_5,Stimuli/canonical view 2/img_n04256520_4_gray.jpg,Stimuli/canonical view 2/img_n04405907_5_gray.jpg,foreground,right,Experiments/experiment_16/16.jpg,Experiments/experiment_16/17.jpg,Experiments/experiment_16/18.jpg,Experiments/experiment_16/19.jpg,976,1,2023-05-26_14h36.31.004,Occlusion_Psychophysics,2022.1.4,Win32,143.9055979,,,left,"[""left""]",[1.7122000000476874],False,,0.0,,0.0,4.0,4.0,4.0,1.0,,,,,
,,,,,,,,,,,,,,,,,,,,,0.025,,,,,,,,,,Stimuli/psy_flexible_rotation_30_objects_occ0.7_0.9s/images/train/n04379243_0/n03928116_4/img_17th_c._monastery_dining_table_2010_dp_33_b_2013__vray_2001_gray.jpg,n04379243_0,n03928116_4,flexible,0.705205,n03928116_4,Stimuli/psy_flexible_rotation_30_objects_occ0.7_0.9s/images/train/n04379243_0/n03928116_4/img_17th_c._monastery_dining_table_2010_dp_33_b_2013__vray_2001-3_gray.png,foreground,same as foreground,n04379243_0,n03928116_4,Stimuli/canonical view 2/img_n04379243_0_gray.jpg,Stimuli/canonical view 2/img_n03928116_4_gray.jpg,foreground,left,Experiments/experiment_16/20.jpg,Experiments/experiment_16/21.jpg,Experiments/experiment_16/22.jpg,Experiments/experiment_16/23.jpg,976,1,2023-05-26_14h36.31.004,Occlusion_Psychophysics,2022.1.4,Win32,143.9055979,,,right,"[""right""]",[0.6585999999046521],False,,0.0,,0.0,5.0,5.0,5.0,1.0,,,,,
,,,,,,,,,,,,,,,,,,,,,0.025,,,,,,,,,,Stimuli/psy_flexible_rotation_30_objects_occ0.7_0.9s/images/train/n04405907_8/n04256520_9/img_stylized_tv_napoleon_iii_sofa_2004_gray.jpg,n04405907_8,n04256520_9,flexible,0.707069,n03928116_0,Stimuli/psy_fixed_rotation_30_objects_occ0.7_0.9s/images/train/n02818832_9/n03928116_0/img_bed01_blue_b02_piano_2000-3_gray.png,random,fixed,n04405907_8,n04256520_9,Stimuli/canonical view 2/img_n04405907_8_gray.jpg,Stimuli/canonical view 2/img_n04256520_9_gray.jpg,foreground,left,Experiments/experiment_16/24.jpg,Experiments/experiment_16/25.jpg,Experiments/experiment_16/26.jpg,Experiments/experiment_16/27.jpg,976,1,2023-05-26_14h36.31.004,Occlusion_Psychophysics,2022.1.4,Win32,143.9055979,,,right,"[""right""]",[1.3037999999523322],False,,0.0,,0.0,6.0,6.0,6.0,1.0,,,,,
,,,,,,,,,,,,,,,,,,,,,0.025,,,,,,,,,,Stimuli/psy_fixed_rotation_30_objects_occ0.7_0.9s/images/train/n04405907_5/n02828884_4/img_samsung_40_uhd_smart_tv_2011_b05_c-5_classic_series_bench-2012_2004_gray.jpg,n04405907_5,n02828884_4,fixed,0.704105,n02828884_4,Stimuli/psy_fixed_rotation_30_objects_occ0.7_0.9s/images/train/n04405907_5/n02828884_4/img_samsung_40_uhd_smart_tv_2011_b05_c-5_classic_series_bench-2012_2004-3_gray.png,foreground,same as foreground,n04405907_5,n03001627_-2,Stimuli/canonical view 2/img_n04405907_5_gray.jpg,Stimuli/canonical view 2/img_n03001627_-2_gray.jpg,random,right,Experiments/experiment_16/28.jpg,Experiments/experiment_16/29.jpg,Experiments/experiment_16/30.jpg,Experiments/experiment_16/31.jpg,976,1,2023-05-26_14h36.31.004,Occlusion_Psychophysics,2022.1.4,Win32,143.9055979,,,left,"[""left""]",[0.7688999998569557],False,,0.0,,0.0,7.0,7.0,7.0,1.0,,,,,
,,,,,,,,,,,,,,,,,,,,,0.025,,,,,,,,,,Stimuli/psy_fixed_rotation_30_objects_occ0.7_0.9s/images/train/n02933112_-18/n04405907_8/img_cgaxis_models_48_26_vray_composite_stylized_tv_2009_gray.jpg,n02933112_-18,n04405907_8,fixed,0.839479,n04405907_8,Stimuli/psy_fixed_rotation_30_objects_occ0.7_0.9s/images/train/n02933112_-18/n04405907_8/img_cgaxis_models_48_26_vray_composite_stylized_tv_2009-3_gray.png,foreground,same as foreground,n02933112_-18,n04256520_4,Stimuli/canonical view 2/img_n02933112_-18_gray.jpg,Stimuli/canonical view 2/img_n04256520_4_gray.jpg,random,left,Experiments/experiment_16/32.jpg,Experiments/experiment_16/33.jpg,Experiments/experiment_16/34.jpg,Experiments/experiment_16/35.jpg,976,1,2023-05-26_14h36.31.004,Occlusion_Psychophysics,2022.1.4,Win32,143.9055979,,,left,"[""left""]",[0.8408999998569584],False,,0.0,,0.0,8.0,8.0,8.0,1.0,,,,,
,,,,,,,,,,,,,,,,,,,,,0.025,,,,,,,,,,Stimuli/psy_fixed_rotation_30_objects_occ0.7_0.9s/images/train/n04256520_5/n02933112_4/img_meridiani_belmondo_bench_sofa_buffet_2006_gray.jpg,n04256520_5,n02933112_4,fixed,0.772953,n04256520_4,Stimuli/psy_fixed_rotation_30_objects_occ0.7_0.9s/images/train/n04405907_9/n04256520_4/img_vray_004_club_house_italia_nautilus_sofa_2009-3_gray.png,random,fixed,n04256520_5,n02818832_3,Stimuli/canonical view 2/img_n04256520_5_gray.jpg,Stimuli/canonical view 2/img_n02818832_3_gray.jpg,random,right,Experiments/experiment_16/36.jpg,Experiments/experiment_16/37.jpg,Experiments/experiment_16/38.jpg,Experiments/experiment_16/39.jpg,976,1,2023-05-26_14h36.31.004,Occlusion_Psychophysics,2022.1.4,Win32,143.9055979,,,left,"[""right""]",[1.162499999999966],False,,0.0,,0.0,9.0,9.0,9.0,1.0,,,,,
,,,,,,,,,,,,,,,,,,,,,0.05,,,,,,,,,,Stimuli/psy_flexible_rotation_30_objects_occ0.7_0.9s/images/train/n02883344_-1/n04405907_8/img_woven_box_stylized_tv_2004_gray.jpg,n02883344_-1,n04405907_8,flexible,0.755102,n02818832_9,Stimuli/psy_fixed_rotation_30_objects_occ0.7_0.9s/images/train/n03928116_4/n02818832_9/img_dp_33_b_2013__vray_bed01_blue_2004-3_gray.png,random,fixed,n02883344_-1,n04405907_8,Stimuli/canonical view 2/img_n02883344_-1_gray.jpg,Stimuli/canonical view 2/img_n04405907_8_gray.jpg,foreground,right,Experiments/experiment_16/40.jpg,Experiments/experiment_16/41.jpg,Experiments/experiment_16/42.jpg,Experiments/experiment_16/43.jpg,976,1,2023-05-26_14h36.31.004,Occlusion_Psychophysics,2022.1.4,Win32,143.9055979,,,right,"[""right""]",[0.8155999999046344],False,,0.0,,0.0,10.0,10.0,10.0,1.0,,,,,
,,,,,,,,,,,,,,,,,,,,,0.025,,,,,,,,,,Stimuli/psy_flexible_rotation_30_objects_occ0.7_0.9s/images/train/n02933112_4/n03928116_0/img_buffet_b02_piano_2000_gray.jpg,n02933112_4,n03928116_0,flexible,0.732838,n04405907_9,Stimuli/psy_fixed_rotation_30_objects_occ0.7_0.9s/images/train/n02818832_0/n04405907_9/img_b03_the_sofa_and_chair_company_-_stanley_bed_2014_vray_004_2001-3_gray.png,random,fixed,n02933112_4,n03001627_-2,Stimuli/canonical view 2/img_n02933112_4_gray.jpg,Stimuli/canonical view 2/img_n03001627_-2_gray.jpg,random,right,Experiments/experiment_16/44.jpg,Experiments/experiment_16/45.jpg,Experiments/experiment_16/46.jpg,Experiments/experiment_16/47.jpg,976,1,2023-05-26_14h36.31.004,Occlusion_Psychophysics,2022.1.4,Win32,143.9055979,,,right,"[""right""]",[0.7469000000953656],False,,0.0,,0.0,11.0,11.0,11.0,1.0,,,,,
,,,,,,,,,,,,,,,,,,,,,0.05,,,,,,,,,,Stimuli/psy_flexible_rotation_30_objects_occ0.7_0.9s/images/train/n02933112_-18/n02933112_4/img_cgaxis_models_48_26_vray_composite_buffet_2011_gray.jpg,n02933112_-18,n02933112_4,flexible,0.840478,n02933112_4,Stimuli/psy_flexible_rotation_30_objects_occ0.7_0.9s/images/train/n02933112_-18/n02933112_4/img_cgaxis_models_48_26_vray_composite_buffet_2011-3_gray.png,foreground,same as foreground,n02933112_-18,n02933112_4,Stimuli/canonical view 2/img_n02933112_-18_gray.jpg,Stimuli/canonical view 2/img_n02933112_4_gray.jpg,foreground,left,Experiments/experiment_16/48.jpg,Experiments/experiment_16/49.jpg,Experiments/experiment_16/50.jpg,Experiments/experiment_16/51.jpg,976,1,2023-05-26_14h36.31.004,Occlusion_Psychophysics,2022.1.4,Win32,143.9055979,,,left,"[""right""]",[0.9547000000476942],False,,0.0,,0.0,12.0,12.0,12.0,1.0,,,,,
,,,,,,,,,,,,,,,,,,,,,0.025,,,,,,,,,,Stimuli/psy_fixed_rotation_30_objects_occ0.7_0.9s/images/train/n04379243_-7/n02818832_0/img_quatre_dining_table_b03_the_sofa_and_chair_company_-_stanley_bed_2014_2008_gray.jpg,n04379243_-7,n02818832_0,fixed,0.823562,n04405907_8,Stimuli/psy_flexible_rotation_30_objects_occ0.7_0.9s/images/train/n03001627_8/n04405907_8/img_chair_billiani_doll_stylized_tv_2003-3_gray.png,random,flexible,n04379243_-7,n02818832_0,Stimuli/canonical view 2/img_n04379243_-7_gray.jpg,Stimuli/canonical view 2/img_n02818832_0_gray.jpg,foreground,left,Experiments/experiment_16/52.jpg,Experiments/experiment_16/53.jpg,Experiments/experiment_16/54.jpg,Experiments/experiment_16/55.jpg,976,1,2023-05-26_14h36.31.004,Occlusion_Psychophysics,2022.1.4,Win32,143.9055979,,,left,"[""left""]",[0.9752999999523126],False,,0.0,,0.0,13.0,13.0,13.0,1.0,,,,,
,,,,,,,,,,,,,,,,,,,,,0.05,,,,,,,,,,Stimuli/psy_fixed_rotation_30_objects_occ0.7_0.9s/images/train/n04256520_4/n03928116_10/img_club_house_italia_nautilus_sofa_ydp_103_r_2012__vray_2013_gray.jpg,n04256520_4,n03928116_10,fixed,0.85371,n02828884_3,Stimuli/psy_flexible_rotation_30_objects_occ0.7_0.9s/images/train/n02883344_0/n02828884_3/img_b03_box_b04_wood_metal_park_bench_2012-3_gray.png,random,flexible,n04256520_4,n04405907_8,Stimuli/canonical view 2/img_n04256520_4_gray.jpg,Stimuli/canonical view 2/img_n04405907_8_gray.jpg,random,right,Experiments/experiment_16/56.jpg,Experiments/experiment_16/57.jpg,Experiments/experiment_16/58.jpg,Experiments/experiment_16/59.jpg,976,1,2023-05-26_14h36.31.004,Occlusion_Psychophysics,2022.1.4,Win32,143.9055979,,,right,"[""right""]",[0.8418999998569916],False,,0.0,,0.0,14.0,14.0,14.0,1.0,,,,,
,,,,,,,,,,,,,,,,,,,,,0.025,,,,,,,,,,Stimuli/psy_fixed_rotation_30_objects_occ0.7_0.9s/images/train/n04379243_0/n02933112_-18/img_17th_c._monastery_dining_table_2010_cgaxis_models_48_26_vray_composite_2012_gray.jpg,n04379243_0,n02933112_-18,fixed,0.790469,n02828884_3,Stimuli/psy_flexible_rotation_30_objects_occ0.7_0.9s/images/train/n04256520_9/n02828884_3/img_napoleon_iii_sofa_b04_wood_metal_park_bench_2014-3_gray.png,random,flexible,n04379243_0,n02933112_-18,Stimuli/canonical view 2/img_n04379243_0_gray.jpg,Stimuli/canonical view 2/img_n02933112_-18_gray.jpg,foreground,right,Experiments/experiment_16/60.jpg,Experiments/experiment_16/61.jpg,Experiments/experiment_16/62.jpg,Experiments/experiment_16/63.jpg,976,1,2023-05-26_14h36.31.004,Occlusion_Psychophysics,2022.1.4,Win32,143.9055979,,,left,"[""left""]",[0.6742999999523249],False,,0.0,,0.0,15.0,15.0,15.0,1.0,,,,,
,,,,,,,,,,,,,,,,,,,,,0.025,,,,,,,,,,Stimuli/psy_fixed_rotation_30_objects_occ0.7_0.9s/images/train/n02828884_4/n04379243_0/img_b05_c-5_classic_series_bench-2012_17th_c._monastery_dining_table_2010_2010_gray.jpg,n02828884_4,n04379243_0,fixed,0.719226,n02933112_4,Stimuli/psy_fixed_rotation_30_objects_occ0.7_0.9s/images/train/n02933112_4/n02933112_4/img_buffet_buffet_2010-3_gray.png,random,fixed,n02828884_4,n03928116_0,Stimuli/canonical view 2/img_n02828884_4_gray.jpg,Stimuli/canonical view 2/img_n03928116_0_gray.jpg,random,left,Experiments/experiment_16/64.jpg,Experiments/experiment_16/65.jpg,Experiments/experiment_16/66.jpg,Experiments/experiment_16/67.jpg,976,1,2023-05-26_14h36.31.004,Occlusion_Psychophysics,2022.1.4,Win32,143.9055979,,,right,"[""right""]",[1.047700000047712],False,,0.0,,0.0,16.0,16.0,16.0,1.0,,,,,
,,,,,,,,,,,,,,,,,,,,,0.05,,,,,,,,,,Stimuli/psy_flexible_rotation_30_objects_occ0.7_0.9s/images/train/n04256520_5/n04405907_9/img_meridiani_belmondo_bench_sofa_vray_004_2012_gray.jpg,n04256520_5,n04405907_9,flexible,0.772857,n04256520_9,Stimuli/psy_fixed_rotation_30_objects_occ0.7_0.9s/images/train/n03001627_9/n04256520_9/img_chair_eames_plastic_armchair_napoleon_iii_sofa_2001-3_gray.png,random,fixed,n04256520_5,n04405907_9,Stimuli/canonical view 2/img_n04256520_5_gray.jpg,Stimuli/canonical view 2/img_n04405907_9_gray.jpg,foreground,left,Experiments/experiment_16/68.jpg,Experiments/experiment_16/69.jpg,Experiments/experiment_16/70.jpg,Experiments/experiment_16/71.jpg,976,1,2023-05-26_14h36.31.004,Occlusion_Psychophysics,2022.1.4,Win32,143.9055979,,,right,"[""left""]",[1.300899999856938],False,,0.0,,0.0,17.0,17.0,17.0,1.0,,,,,
,,,,,,,,,,,,,,,,,,,,,0.025,,,,,,,,,,Stimuli/psy_flexible_rotation_30_objects_occ0.7_0.9s/images/train/n04379243_-7/n02883344_15/img_quatre_dining_table_microwave_box_2014_gray.jpg,n04379243_-7,n02883344_15,flexible,0.852961,n04256520_5,Stimuli/psy_fixed_rotation_30_objects_occ0.7_0.9s/images/train/n02933112_4/n04256520_5/img_buffet_meridiani_belmondo_bench_sofa_2004-3_gray.png,random,fixed,n04379243_-7,n02883344_15,Stimuli/canonical view 2/img_n04379243_-7_gray.jpg,Stimuli/canonical view 2/img_n02883344_15_gray.jpg,foreground,right,Experiments/experiment_16/72.jpg,Experiments/experiment_16/73.jpg,Experiments/experiment_16/74.jpg,Experiments/experiment_16/75.jpg,976,1,2023-05-26_14h36.31.004,Occlusion_Psychophysics,2022.1.4,Win32,143.9055979,,,right,"[""right""]",[0.9560999999046658],False,,0.0,,0.0,18.0,18.0,18.0,1.0,,,,,
,,,,,,,,,,,,,,,,,,,,,0.05,,,,,,,,,,Stimuli/psy_fixed_rotation_30_objects_occ0.7_0.9s/images/train/n02933112_4/n04379243_0/img_buffet_17th_c._monastery_dining_table_2010_2003_gray.jpg,n02933112_4,n04379243_0,fixed,0.711692,n04379243_-7,Stimuli/psy_flexible_rotation_30_objects_occ0.7_0.9s/images/train/n04070727_3/n04379243_-7/img_b05_db_apps_tech_06_02_2_composite_quatre_dining_table_2009-3_gray.png,random,flexible,n02933112_4,n02818832_0,Stimuli/canonical view 2/img_n02933112_4_gray.jpg,Stimuli/canonical view 2/img_n02818832_0_gray.jpg,random,left,Experiments/experiment_16/76.jpg,Experiments/experiment_16/77.jpg,Experiments/experiment_16/78.jpg,Experiments/experiment_16/79.jpg,976,1,2023-05-26_14h36.31.004,Occlusion_Psychophysics,2022.1.4,Win32,143.9055979,,,left,"[""left""]",[0.6537000000477065],False,,0.0,,0.0,19.0,19.0,19.0,1.0,,,,,
,,,,,,,,,,,,,,,,,,,,,0.025,,,,,,,,,,Stimuli/psy_fixed_rotation_30_objects_occ0.7_0.9s/images/train/n02933112_-2/n04379243_0/img_sink_base_white_wood_17th_c._monastery_dining_table_2010_2004_gray.jpg,n02933112_-2,n04379243_0,fixed,0.79324,n04379243_-7,Stimuli/psy_fixed_rotation_30_objects_occ0.7_0.9s/images/train/n04379243_-7/n04379243_-7/img_quatre_dining_table_quatre_dining_table_2013-3_gray.png,random,fixed,n02933112_-2,n02828884_4,Stimuli/canonical view 2/img_n02933112_-2_gray.jpg,Stimuli/canonical view 2/img_n02828884_4_gray.jpg,random,left,Experiments/experiment_16/80.jpg,Experiments/experiment_16/81.jpg,Experiments/experiment_16/82.jpg,Experiments/experiment_16/83.jpg,976,1,2023-05-26_14h36.31.004,Occlusion_Psychophysics,2022.1.4,Win32,143.9055979,,,right,"[""right""]",[0.7467000000476673],False,,0.0,,0.0,20.0,20.0,20.0,1.0,,,,,
,,,,,,,,,,,,,,,,,,,,,0.05,,,,,,,,,,Stimuli/psy_flexible_rotation_30_objects_occ0.7_0.9s/images/train/n04256520_5/n02933112_4/img_meridiani_belmondo_bench_sofa_buffet_2012_gray.jpg,n04256520_5,n02933112_4,flexible,0.763872,n02933112_4,Stimuli/psy_flexible_rotation_30_objects_occ0.7_0.9s/images/train/n04256520_5/n02933112_4/img_meridiani_belmondo_bench_sofa_buffet_2012-3_gray.png,foreground,same as foreground,n04256520_5,n04256520_9,Stimuli/canonical view 2/img_n04256520_5_gray.jpg,Stimuli/canonical view 2/img_n04256520_9_gray.jpg,random,left,Experiments/experiment_16/84.jpg,Experiments/experiment_16/85.jpg,Experiments/experiment_16/86.jpg,Experiments/experiment_16/87.jpg,976,1,2023-05-26_14h36.31.004,Occlusion_Psychophysics,2022.1.4,Win32,143.9055979,,,left,"[""right""]",[1.3245000000000005],False,,0.0,,0.0,21.0,21.0,21.0,1.0,,,,,
,,,,,,,,,,,,,,,,,,,,,0.05,,,,,,,,,,Stimuli/psy_flexible_rotation_30_objects_occ0.7_0.9s/images/train/n02828884_3/n04405907_8/img_b04_wood_metal_park_bench_stylized_tv_2001_gray.jpg,n02828884_3,n04405907_8,flexible,0.737996,n03928116_10,Stimuli/psy_fixed_rotation_30_objects_occ0.7_0.9s/images/train/n04379243_0/n03928116_10/img_17th_c._monastery_dining_table_2010_ydp_103_r_2012__vray_2000-3_gray.png,random,fixed,n02828884_3,n03001627_-2,Stimuli/canonical view 2/img_n02828884_3_gray.jpg,Stimuli/canonical view 2/img_n03001627_-2_gray.jpg,random,right,Experiments/experiment_16/88.jpg,Experiments/experiment_16/89.jpg,Experiments/experiment_16/90.jpg,Experiments/experiment_16/91.jpg,976,1,2023-05-26_14h36.31.004,Occlusion_Psychophysics,2022.1.4,Win32,143.9055979,,,right,"[""right""]",[0.726900000095327],False,,0.0,,0.0,22.0,22.0,22.0,1.0,,,,,
,,,,,,,,,,,,,,,,,,,,,0.05,,,,,,,,,,Stimuli/psy_fixed_rotation_30_objects_occ0.7_0.9s/images/train/n02828884_3/n04405907_9/img_b04_wood_metal_park_bench_vray_004_2007_gray.jpg,n02828884_3,n04405907_9,fixed,0.720018,n04405907_9,Stimuli/psy_fixed_rotation_30_objects_occ0.7_0.9s/images/train/n02828884_3/n04405907_9/img_b04_wood_metal_park_bench_vray_004_2007-3_gray.png,foreground,same as foreground,n02828884_3,n04405907_9,Stimuli/canonical view 2/img_n02828884_3_gray.jpg,Stimuli/canonical view 2/img_n04405907_9_gray.jpg,foreground,left,Experiments/experiment_16/92.jpg,Experiments/experiment_16/93.jpg,Experiments/experiment_16/94.jpg,Experiments/experiment_16/95.jpg,976,1,2023-05-26_14h36.31.004,Occlusion_Psychophysics,2022.1.4,Win32,143.9055979,,,left,"[""left""]",[0.7302999999523081],False,,0.0,,0.0,23.0,23.0,23.0,1.0,,,,,
,,,,,,,,,,,,,,,,,,,,,0.05,,,,,,,,,,Stimuli/psy_flexible_rotation_30_objects_occ0.7_0.9s/images/train/n02933112_-18/n02883344_-1/img_cgaxis_models_48_26_vray_composite_woven_box_2008_gray.jpg,n02933112_-18,n02883344_-1,flexible,0.760242,n02883344_-1,Stimuli/psy_flexible_rotation_30_objects_occ0.7_0.9s/images/train/n02933112_-18/n02883344_-1/img_cgaxis_models_48_26_vray_composite_woven_box_2008-3_gray.png,foreground,same as foreground,n02933112_-18,n03001627_9,Stimuli/canonical view 2/img_n02933112_-18_gray.jpg,Stimuli/canonical view 2/img_n03001627_9_gray.jpg,random,left,Experiments/experiment_16/96.jpg,Experiments/experiment_16/97.jpg,Experiments/experiment_16/98.jpg,Experiments/experiment_16/99.jpg,976,1,2023-05-26_14h36.31.004,Occlusion_Psychophysics,2022.1.4,Win32,143.9055979,,,left,"[""right""]",[1.6954999999999814],False,,0.0,,0.0,24.0,24.0,24.0,1.0,,,,,
,,,,,,,,,,,,,,,,,,,,,0.025,,,,,,,,,,Stimuli/psy_fixed_rotation_30_objects_occ0.7_0.9s/images/train/n04379243_-7/n04379243_8/img_quatre_dining_table_glass_table_2001_gray.jpg,n04379243_-7,n04379243_8,fixed,0.754285,n04379243_8,Stimuli/psy_fixed_rotation_30_objects_occ0.7_0.9s/images/train/n04379243_-7/n04379243_8/img_quatre_dining_table_glass_table_2001-3_gray.png,foreground,same as foreground,n04379243_-7,n04379243_8,Stimuli/canonical view 2/img_n04379243_-7_gray.jpg,Stimuli/canonical view 2/img_n04379243_8_gray.jpg,foreground,right,Experiments/experiment_16/100.jpg,Experiments/experiment_16/101.jpg,Experiments/experiment_16/102.jpg,Experiments/experiment_16/103.jpg,976,1,2023-05-26_14h36.31.004,Occlusion_Psychophysics,2022.1.4,Win32,143.9055979,,,left,"[""left""]",[0.7205000000000155],False,,0.0,,0.0,25.0,25.0,25.0,1.0,,,,,
,,,,,,,,,,,,,,,,,,,,,0.025,,,,,,,,,,Stimuli/psy_flexible_rotation_30_objects_occ0.7_0.9s/images/train/n03001627_8/n02933112_4/img_chair_billiani_doll_buffet_2012_gray.jpg,n03001627_8,n02933112_4,flexible,0.729718,n02933112_4,Stimuli/psy_flexible_rotation_30_objects_occ0.7_0.9s/images/train/n03001627_8/n02933112_4/img_chair_billiani_doll_buffet_2012-3_gray.png,foreground,same as foreground,n03001627_8,n02933112_-18,Stimuli/canonical view 2/img_n03001627_8_gray.jpg,Stimuli/canonical view 2/img_n02933112_-18_gray.jpg,random,right,Experiments/experiment_16/104.jpg,Experiments/experiment_16/105.jpg,Experiments/experiment_16/106.jpg,Experiments/experiment_16/107.jpg,976,1,2023-05-26_14h36.31.004,Occlusion_Psychophysics,2022.1.4,Win32,143.9055979,,,left,"[""right""]",[1.1463999998569534],False,,0.0,,0.0,26.0,26.0,26.0,1.0,,,,,
,,,,,,,,,,,,,,,,,,,,,0.025,,,,,,,,,,Stimuli/psy_flexible_rotation_30_objects_occ0.7_0.9s/images/train/n02933112_-18/n04405907_9/img_cgaxis_models_48_26_vray_composite_vray_004_2002_gray.jpg,n02933112_-18,n04405907_9,flexible,0.731866,n04405907_9,Stimuli/psy_flexible_rotation_30_objects_occ0.7_0.9s/images/train/n02933112_-18/n04405907_9/img_cgaxis_models_48_26_vray_composite_vray_004_2002-3_gray.png,foreground,same as foreground,n02933112_-18,n02828884_3,Stimuli/canonical view 2/img_n02933112_-18_gray.jpg,Stimuli/canonical view 2/img_n02828884_3_gray.jpg,random,right,Experiments/experiment_16/108.jpg,Experiments/experiment_16/109.jpg,Experiments/experiment_16/110.jpg,Experiments/experiment_16/111.jpg,976,1,2023-05-26_14h36.31.004,Occlusion_Psychophysics,2022.1.4,Win32,143.9055979,,,right,"[""right""]",[1.0462000000476905],False,,0.0,,0.0,27.0,27.0,27.0,1.0,,,,,
,,,,,,,,,,,,,,,,,,,,,0.025,,,,,,,,,,Stimuli/psy_fixed_rotation_30_objects_occ0.7_0.9s/images/train/n02818832_9/n02818832_3/img_bed01_blue_b05_ccm_contemporary_bed_max2013_2013_gray.jpg,n02818832_9,n02818832_3,fixed,0.766882,n02818832_3,Stimuli/psy_fixed_rotation_30_objects_occ0.7_0.9s/images/train/n02818832_9/n02818832_3/img_bed01_blue_b05_ccm_contemporary_bed_max2013_2013-3_gray.png,foreground,same as foreground,n02818832_9,n02818832_3,Stimuli/canonical view 2/img_n02818832_9_gray.jpg,Stimuli/canonical view 2/img_n02818832_3_gray.jpg,foreground,right,Experiments/experiment_16/112.jpg,Experiments/experiment_16/113.jpg,Experiments/experiment_16/114.jpg,Experiments/experiment_16/115.jpg,976,1,2023-05-26_14h36.31.004,Occlusion_Psychophysics,2022.1.4,Win32,143.9055979,,,right,"[""left""]",[1.3478000001907162],False,,0.0,,0.0,28.0,28.0,28.0,1.0,,,,,
,,,,,,,,,,,,,,,,,,,,,0.05,,,,,,,,,,Stimuli/psy_flexible_rotation_30_objects_occ0.7_0.9s/images/train/n04256520_5/n03928116_0/img_meridiani_belmondo_bench_sofa_b02_piano_2009_gray.jpg,n04256520_5,n03928116_0,flexible,0.708782,n02818832_3,Stimuli/psy_fixed_rotation_30_objects_occ0.7_0.9s/images/train/n02883344_0/n02818832_3/img_b03_box_b05_ccm_contemporary_bed_max2013_2013-3_gray.png,random,fixed,n04256520_5,n04405907_9,Stimuli/canonical view 2/img_n04256520_5_gray.jpg,Stimuli/canonical view 2/img_n04405907_9_gray.jpg,random,right,Experiments/experiment_16/116.jpg,Experiments/experiment_16/117.jpg,Experiments/experiment_16/118.jpg,Experiments/experiment_16/119.jpg,976,1,2023-05-26_14h36.31.004,Occlusion_Psychophysics,2022.1.4,Win32,143.9055979,,,left,"[""left""]",[1.0699999999999932],False,,0.0,,0.0,29.0,29.0,29.0,1.0,,,,,
,,,,,,,,,,,,,,,,,,,,,0.025,,,,,,,,,,Stimuli/psy_flexible_rotation_30_objects_occ0.7_0.9s/images/train/n04256520_4/n02883344_-1/img_club_house_italia_nautilus_sofa_woven_box_2000_gray.jpg,n04256520_4,n02883344_-1,flexible,0.762093,n02883344_-1,Stimuli/psy_flexible_rotation_30_objects_occ0.7_0.9s/images/train/n04256520_4/n02883344_-1/img_club_house_italia_nautilus_sofa_woven_box_2000-3_gray.png,foreground,same as foreground,n04256520_4,n02883344_-1,Stimuli/canonical view 2/img_n04256520_4_gray.jpg,Stimuli/canonical view 2/img_n02883344_-1_gray.jpg,foreground,left,Experiments/experiment_16/120.jpg,Experiments/experiment_16/121.jpg,Experiments/experiment_16/122.jpg,Experiments/experiment_16/123.jpg,976,1,2023-05-26_14h36.31.004,Occlusion_Psychophysics,2022.1.4,Win32,143.9055979,,,right,"[""right""]",[0.7717000000477015],False,,0.0,,0.0,30.0,30.0,30.0,1.0,,,,,
,,,,,,,,,,,,,,,,,,,,,0.025,,,,,,,,,,Stimuli/psy_flexible_rotation_30_objects_occ0.7_0.9s/images/train/n02818832_0/n04256520_9/img_b03_the_sofa_and_chair_company_-_stanley_bed_2014_napoleon_iii_sofa_2000_gray.jpg,n02818832_0,n04256520_9,flexible,0.742838,n04256520_9,Stimuli/psy_flexible_rotation_30_objects_occ0.7_0.9s/images/train/n02818832_0/n04256520_9/img_b03_the_sofa_and_chair_company_-_stanley_bed_2014_napoleon_iii_sofa_2000-3_gray.png,foreground,same as foreground,n02818832_0,n04256520_9,Stimuli/canonical view 2/img_n02818832_0_gray.jpg,Stimuli/canonical view 2/img_n04256520_9_gray.jpg,foreground,right,Experiments/experiment_16/124.jpg,Experiments/experiment_16/125.jpg,Experiments/experiment_16/126.jpg,Experiments/experiment_16/127.jpg,976,1,2023-05-26_14h36.31.004,Occlusion_Psychophysics,2022.1.4,Win32,143.9055979,,,right,"[""right""]",[0.7676000001430339],False,,0.0,,0.0,31.0,31.0,31.0,1.0,,,,,
,,,,,,,,,,,,,,,,,,,,,0.05,,,,,,,,,,Stimuli/psy_flexible_rotation_30_objects_occ0.7_0.9s/images/train/n03001627_8/n03001627_-2/img_chair_billiani_doll_wood_chair_2003_gray.jpg,n03001627_8,n03001627_-2,flexible,0.723512,n04405907_8,Stimuli/psy_fixed_rotation_30_objects_occ0.7_0.9s/images/train/n04256520_9/n04405907_8/img_napoleon_iii_sofa_stylized_tv_2005-3_gray.png,random,fixed,n03001627_8,n03001627_-2,Stimuli/canonical view 2/img_n03001627_8_gray.jpg,Stimuli/canonical view 2/img_n03001627_-2_gray.jpg,foreground,right,Experiments/experiment_16/128.jpg,Experiments/experiment_16/129.jpg,Experiments/experiment_16/130.jpg,Experiments/experiment_16/131.jpg,976,1,2023-05-26_14h36.31.004,Occlusion_Psychophysics,2022.1.4,Win32,143.9055979,,,right,"[""left""]",[1.1164999999999736],False,,0.0,,0.0,32.0,32.0,32.0,1.0,,,,,
,,,,,,,,,,,,,,,,,,,,,0.025,,,,,,,,,,Stimuli/psy_flexible_rotation_30_objects_occ0.7_0.9s/images/train/n02883344_15/n04256520_4/img_microwave_box_club_house_italia_nautilus_sofa_2003_gray.jpg,n02883344_15,n04256520_4,flexible,0.767738,n04256520_4,Stimuli/psy_flexible_rotation_30_objects_occ0.7_0.9s/images/train/n02883344_15/n04256520_4/img_microwave_box_club_house_italia_nautilus_sofa_2003-3_gray.png,foreground,same as foreground,n02883344_15,n04256520_4,Stimuli/canonical view 2/img_n02883344_15_gray.jpg,Stimuli/canonical view 2/img_n04256520_4_gray.jpg,foreground,right,Experiments/experiment_16/132.jpg,Experiments/experiment_16/133.jpg,Experiments/experiment_16/134.jpg,Experiments/experiment_16/135.jpg,976,1,2023-05-26_14h36.31.004,Occlusion_Psychophysics,2022.1.4,Win32,143.9055979,,,left,"[""left""]",[0.6809999999999832],False,,0.0,,0.0,33.0,33.0,33.0,1.0,,,,,
,,,,,,,,,,,,,,,,,,,,,0.025,,,,,,,,,,Stimuli/psy_flexible_rotation_30_objects_occ0.7_0.9s/images/train/n04405907_5/n02883344_0/img_samsung_40_uhd_smart_tv_2011_b03_box_2012_gray.jpg,n04405907_5,n02883344_0,flexible,0.75188,n02883344_0,Stimuli/psy_flexible_rotation_30_objects_occ0.7_0.9s/images/train/n04405907_5/n02883344_0/img_samsung_40_uhd_smart_tv_2011_b03_box_2012-3_gray.png,foreground,same as foreground,n04405907_5,n02883344_0,Stimuli/canonical view 2/img_n04405907_5_gray.jpg,Stimuli/canonical view 2/img_n02883344_0_gray.jpg,foreground,right,Experiments/experiment_16/136.jpg,Experiments/experiment_16/137.jpg,Experiments/experiment_16/138.jpg,Experiments/experiment_16/139.jpg,976,1,2023-05-26_14h36.31.004,Occlusion_Psychophysics,2022.1.4,Win32,143.9055979,,,left,"[""left""]",[0.6066000001430893],True,right,1.0,1.2692,0.0,34.0,34.0,34.0,1.0,,,,,
,,,,,,,,,,,,,,,,,,,,,0.025,,,,,,,,,,Stimuli/psy_fixed_rotation_30_objects_occ0.7_0.9s/images/train/n02818832_9/n03928116_10/img_bed01_blue_ydp_103_r_2012__vray_2015_gray.jpg,n02818832_9,n03928116_10,fixed,0.74133,n02818832_3,Stimuli/psy_flexible_rotation_30_objects_occ0.7_0.9s/images/train/n02818832_9/n02818832_3/img_bed01_blue_b05_ccm_contemporary_bed_max2013_2001-3_gray.png,random,flexible,n02818832_9,n03928116_10,Stimuli/canonical view 2/img_n02818832_9_gray.jpg,Stimuli/canonical view 2/img_n03928116_10_gray.jpg,foreground,left,Experiments/experiment_16/140.jpg,Experiments/experiment_16/141.jpg,Experiments/experiment_16/142.jpg,Experiments/experiment_16/143.jpg,976,1,2023-05-26_14h36.31.004,Occlusion_Psychophysics,2022.1.4,Win32,143.9055979,,,right,"[""left""]",[0.9624999999999773],False,,0.0,,0.0,35.0,35.0,35.0,1.0,,,,,
,,,,,,,,,,,,,,,,,,,,,0.05,,,,,,,,,,Stimuli/psy_fixed_rotation_30_objects_occ0.7_0.9s/images/train/n04256520_4/n02883344_-1/img_club_house_italia_nautilus_sofa_woven_box_2013_gray.jpg,n04256520_4,n02883344_-1,fixed,0.713732,n02883344_-1,Stimuli/psy_fixed_rotation_30_objects_occ0.7_0.9s/images/train/n04256520_4/n02883344_-1/img_club_house_italia_nautilus_sofa_woven_box_2013-3_gray.png,foreground,same as foreground,n04256520_4,n02883344_15,Stimuli/canonical view 2/img_n04256520_4_gray.jpg,Stimuli/canonical view 2/img_n02883344_15_gray.jpg,random,left,Experiments/experiment_16/144.jpg,Experiments/experiment_16/145.jpg,Experiments/experiment_16/146.jpg,Experiments/experiment_16/147.jpg,976,1,2023-05-26_14h36.31.004,Occlusion_Psychophysics,2022.1.4,Win32,143.9055979,,,right,"[""right""]",[0.7281000001430584],False,,0.0,,0.0,36.0,36.0,36.0,1.0,,,,,
,,,,,,,,,,,,,,,,,,,,,0.05,,,,,,,,,,Stimuli/psy_flexible_rotation_30_objects_occ0.7_0.9s/images/train/n02828884_4/n04405907_8/img_b05_c-5_classic_series_bench-2012_stylized_tv_2010_gray.jpg,n02828884_4,n04405907_8,flexible,0.716842,n02883344_-1,Stimuli/psy_fixed_rotation_30_objects_occ0.7_0.9s/images/train/n04256520_4/n02883344_-1/img_club_house_italia_nautilus_sofa_woven_box_2000-3_gray.png,random,fixed,n02828884_4,n02818832_3,Stimuli/canonical view 2/img_n02828884_4_gray.jpg,Stimuli/canonical view 2/img_n02818832_3_gray.jpg,random,right,Experiments/experiment_16/148.jpg,Experiments/experiment_16/149.jpg,Experiments/experiment_16/150.jpg,Experiments/experiment_16/151.jpg,976,1,2023-05-26_14h36.31.004,Occlusion_Psychophysics,2022.1.4,Win32,143.9055979,,,right,"[""right""]",[0.6127000000477665],False,,0.0,,0.0,37.0,37.0,37.0,1.0,,,,,
,,,,,,,,,,,,,,,,,,,,,0.025,,,,,,,,,,Stimuli/psy_flexible_rotation_30_objects_occ0.7_0.9s/images/train/n04256520_9/n02933112_4/img_napoleon_iii_sofa_buffet_2008_gray.jpg,n04256520_9,n02933112_4,flexible,0.807943,n02933112_-2,Stimuli/psy_flexible_rotation_30_objects_occ0.7_0.9s/images/train/n04405907_8/n02933112_-2/img_stylized_tv_sink_base_white_wood_2014-3_gray.png,random,flexible,n04256520_9,n02933112_4,Stimuli/canonical view 2/img_n04256520_9_gray.jpg,Stimuli/canonical view 2/img_n02933112_4_gray.jpg,foreground,left,Experiments/experiment_16/152.jpg,Experiments/experiment_16/153.jpg,Experiments/experiment_16/154.jpg,Experiments/experiment_16/155.jpg,976,1,2023-05-26_14h36.31.004,Occlusion_Psychophysics,2022.1.4,Win32,143.9055979,,,right,"[""right""]",[0.6772000000477192],False,,0.0,,0.0,38.0,38.0,38.0,1.0,,,,,
,,,,,,,,,,,,,,,,,,,,,0.05,,,,,,,,,,Stimuli/psy_fixed_rotation_30_objects_occ0.7_0.9s/images/train/n04256520_9/n04405907_9/img_napoleon_iii_sofa_vray_004_2013_gray.jpg,n04256520_9,n04405907_9,fixed,0.76331,n04405907_9,Stimuli/psy_fixed_rotation_30_objects_occ0.7_0.9s/images/train/n04256520_9/n04405907_9/img_napoleon_iii_sofa_vray_004_2013-3_gray.png,foreground,same as foreground,n04256520_9,n02818832_0,Stimuli/canonical view 2/img_n04256520_9_gray.jpg,Stimuli/canonical view 2/img_n02818832_0_gray.jpg,random,left,Experiments/experiment_16/156.jpg,Experiments/experiment_16/157.jpg,Experiments/experiment_16/158.jpg,Experiments/experiment_16/159.jpg,976,1,2023-05-26_14h36.31.004,Occlusion_Psychophysics,2022.1.4,Win32,143.9055979,,,left,"[""left""]",[0.7696000001429866],False,,0.0,,0.0,39.0,39.0,39.0,1.0,,,,,
,,,,,,,,,,,,,,,,,,,,,0.025,,,,,,,,,,Stimuli/psy_fixed_rotation_30_objects_occ0.7_0.9s/images/train/n04379243_0/n02818832_9/img_17th_c._monastery_dining_table_2010_bed01_blue_2009_gray.jpg,n04379243_0,n02818832_9,fixed,0.731629,n04256520_4,Stimuli/psy_fixed_rotation_30_objects_occ0.7_0.9s/images/train/n04256520_4/n04256520_4/img_club_house_italia_nautilus_sofa_club_house_italia_nautilus_sofa_2011-3_gray.png,random,fixed,n04379243_0,n02818832_9,Stimuli/canonical view 2/img_n04379243_0_gray.jpg,Stimuli/canonical view 2/img_n02818832_9_gray.jpg,foreground,left,Experiments/experiment_16/160.jpg,Experiments/experiment_16/161.jpg,Experiments/experiment_16/162.jpg,Experiments/experiment_16/163.jpg,976,1,2023-05-26_14h36.31.004,Occlusion_Psychophysics,2022.1.4,Win32,143.9055979,,,right,"[""right""]",[0.6394000000954065],False,,0.0,,0.0,40.0,40.0,40.0,1.0,,,,,
,,,,,,,,,,,,,,,,,,,,,0.05,,,,,,,,,,Stimuli/psy_fixed_rotation_30_objects_occ0.7_0.9s/images/train/n03001627_8/n02933112_-2/img_chair_billiani_doll_sink_base_white_wood_2006_gray.jpg,n03001627_8,n02933112_-2,fixed,0.709035,n02883344_0,Stimuli/psy_fixed_rotation_30_objects_occ0.7_0.9s/images/train/n03928116_10/n02883344_0/img_ydp_103_r_2012__vray_b03_box_2010-3_gray.png,random,fixed,n03001627_8,n02828884_9,Stimuli/canonical view 2/img_n03001627_8_gray.jpg,Stimuli/canonical view 2/img_n02828884_9_gray.jpg,random,left,Experiments/experiment_16/164.jpg,Experiments/experiment_16/165.jpg,Experiments/experiment_16/166.jpg,Experiments/experiment_16/167.jpg,976,1,2023-05-26_14h36.31.004,Occlusion_Psychophysics,2022.1.4,Win32,143.9055979,,,right,"[""right""]",[0.6985999999045589],False,,0.0,,0.0,41.0,41.0,41.0,1.0,,,,,
,,,,,,,,,,,,,,,,,,,,,0.05,,,,,,,,,,Stimuli/psy_flexible_rotation_30_objects_occ0.7_0.9s/images/train/n03928116_4/n02818832_0/img_dp_33_b_2013__vray_b03_the_sofa_and_chair_company_-_stanley_bed_2014_2011_gray.jpg,n03928116_4,n02818832_0,flexible,0.794554,n02818832_0,Stimuli/psy_flexible_rotation_30_objects_occ0.7_0.9s/images/train/n03928116_4/n02818832_0/img_dp_33_b_2013__vray_b03_the_sofa_and_chair_company_-_stanley_bed_2014_2011-3_gray.png,foreground,same as foreground,n03928116_4,n02883344_15,Stimuli/canonical view 2/img_n03928116_4_gray.jpg,Stimuli/canonical view 2/img_n02883344_15_gray.jpg,random,right,Experiments/experiment_16/168.jpg,Experiments/experiment_16/169.jpg,Experiments/experiment_16/170.jpg,Experiments/experiment_16/171.jpg,976,1,2023-05-26_14h36.31.004,Occlusion_Psychophysics,2022.1.4,Win32,143.9055979,,,right,"[""right""]",[0.6325999999046417],False,,0.0,,0.0,42.0,42.0,42.0,1.0,,,,,
,,,,,,,,,,,,,,,,,,,,,0.05,,,,,,,,,,Stimuli/psy_flexible_rotation_30_objects_occ0.7_0.9s/images/train/n04256520_9/n02883344_-1/img_napoleon_iii_sofa_woven_box_2005_gray.jpg,n04256520_9,n02883344_-1,flexible,0.715876,n04256520_5,Stimuli/psy_fixed_rotation_30_objects_occ0.7_0.9s/images/train/n04379243_8/n04256520_5/img_glass_table_meridiani_belmondo_bench_sofa_2009-3_gray.png,random,fixed,n04256520_9,n03928116_10,Stimuli/canonical view 2/img_n04256520_9_gray.jpg,Stimuli/canonical view 2/img_n03928116_10_gray.jpg,random,left,Experiments/experiment_16/172.jpg,Experiments/experiment_16/173.jpg,Experiments/experiment_16/174.jpg,Experiments/experiment_16/175.jpg,976,1,2023-05-26_14h36.31.004,Occlusion_Psychophysics,2022.1.4,Win32,143.9055979,,,left,"[""left""]",[0.5829000000953783],False,,0.0,,0.0,43.0,43.0,43.0,1.0,,,,,
,,,,,,,,,,,,,,,,,,,,,0.05,,,,,,,,,,Stimuli/psy_flexible_rotation_30_objects_occ0.7_0.9s/images/train/n02933112_4/n04405907_8/img_buffet_stylized_tv_2015_gray.jpg,n02933112_4,n04405907_8,flexible,0.738012,n02883344_15,Stimuli/psy_fixed_rotation_30_objects_occ0.7_0.9s/images/train/n02828884_4/n02883344_15/img_b05_c-5_classic_series_bench-2012_microwave_box_2008-3_gray.png,random,fixed,n02933112_4,n04405907_8,Stimuli/canonical view 2/img_n02933112_4_gray.jpg,Stimuli/canonical view 2/img_n04405907_8_gray.jpg,foreground,left,Experiments/experiment_16/176.jpg,Experiments/experiment_16/177.jpg,Experiments/experiment_16/178.jpg,Experiments/experiment_16/179.jpg,976,1,2023-05-26_14h36.31.004,Occlusion_Psychophysics,2022.1.4,Win32,143.9055979,,,right,"[""right""]",[0.7312000000476928],False,,0.0,,0.0,44.0,44.0,44.0,1.0,,,,,
,,,,,,,,,,,,,,,,,,,,,0.05,,,,,,,,,,Stimuli/psy_fixed_rotation_30_objects_occ0.7_0.9s/images/train/n04256520_4/n02818832_9/img_club_house_italia_nautilus_sofa_bed01_blue_2001_gray.jpg,n04256520_4,n02818832_9,fixed,0.751302,n02883344_15,Stimuli/psy_flexible_rotation_30_objects_occ0.7_0.9s/images/train/n04070727_0/n02883344_15/img_b03_ka90ivi20r_2013__vray_microwave_box_2005-3_gray.png,random,flexible,n04256520_4,n02818832_9,Stimuli/canonical view 2/img_n04256520_4_gray.jpg,Stimuli/canonical view 2/img_n02818832_9_gray.jpg,foreground,right,Experiments/experiment_16/180.jpg,Experiments/experiment_16/181.jpg,Experiments/experiment_16/182.jpg,Experiments/experiment_16/183.jpg,976,1,2023-05-26_14h36.31.004,Occlusion_Psychophysics,2022.1.4,Win32,143.9055979,,,left,"[""left""]",[0.9527999999522763],False,,0.0,,0.0,45.0,45.0,45.0,1.0,,,,,
,,,,,,,,,,,,,,,,,,,,,0.025,,,,,,,,,,Stimuli/psy_fixed_rotation_30_objects_occ0.7_0.9s/images/train/n02818832_9/n02818832_3/img_bed01_blue_b05_ccm_contemporary_bed_max2013_2005_gray.jpg,n02818832_9,n02818832_3,fixed,0.706576,n02818832_3,Stimuli/psy_fixed_rotation_30_objects_occ0.7_0.9s/images/train/n02818832_9/n02818832_3/img_bed01_blue_b05_ccm_contemporary_bed_max2013_2005-3_gray.png,foreground,same as foreground,n02818832_9,n04256520_4,Stimuli/canonical view 2/img_n02818832_9_gray.jpg,Stimuli/canonical view 2/img_n04256520_4_gray.jpg,random,right,Experiments/experiment_16/184.jpg,Experiments/experiment_16/185.jpg,Experiments/experiment_16/186.jpg,Experiments/experiment_16/187.jpg,976,1,2023-05-26_14h36.31.004,Occlusion_Psychophysics,2022.1.4,Win32,143.9055979,,,left,"[""left""]",[0.7018000001907012],False,,0.0,,0.0,46.0,46.0,46.0,1.0,,,,,
,,,,,,,,,,,,,,,,,,,,,0.025,,,,,,,,,,Stimuli/psy_fixed_rotation_30_objects_occ0.7_0.9s/images/train/n02883344_0/n02933112_-18/img_b03_box_cgaxis_models_48_26_vray_composite_2003_gray.jpg,n02883344_0,n02933112_-18,fixed,0.797458,n02933112_4,Stimuli/psy_flexible_rotation_30_objects_occ0.7_0.9s/images/train/n02883344_15/n02933112_4/img_microwave_box_buffet_2004-3_gray.png,random,flexible,n02883344_0,n03001627_-2,Stimuli/canonical view 2/img_n02883344_0_gray.jpg,Stimuli/canonical view 2/img_n03001627_-2_gray.jpg,random,left,Experiments/experiment_16/188.jpg,Experiments/experiment_16/189.jpg,Experiments/experiment_16/190.jpg,Experiments/experiment_16/191.jpg,976,1,2023-05-26_14h36.31.004,Occlusion_Psychophysics,2022.1.4,Win32,143.9055979,,,right,"[""right""]",[0.6557999999523645],False,,0.0,,0.0,47.0,47.0,47.0,1.0,,,,,
,,,,,,,,,,,,,,,,,,,,,0.05,,,,,,,,,,Stimuli/psy_flexible_rotation_30_objects_occ0.7_0.9s/images/train/n02828884_3/n02883344_-1/img_b04_wood_metal_park_bench_woven_box_2003_gray.jpg,n02828884_3,n02883344_-1,flexible,0.825631,n02883344_-1,Stimuli/psy_flexible_rotation_30_objects_occ0.7_0.9s/images/train/n02828884_3/n02883344_-1/img_b04_wood_metal_park_bench_woven_box_2003-3_gray.png,foreground,same as foreground,n02828884_3,n02883344_-1,Stimuli/canonical view 2/img_n02828884_3_gray.jpg,Stimuli/canonical view 2/img_n02883344_-1_gray.jpg,foreground,right,Experiments/experiment_16/192.jpg,Experiments/experiment_16/193.jpg,Experiments/experiment_16/194.jpg,Experiments/experiment_16/195.jpg,976,1,2023-05-26_14h36.31.004,Occlusion_Psychophysics,2022.1.4,Win32,143.9055979,,,right,"[""right""]",[0.654099999904588],False,,0.0,,0.0,48.0,48.0,48.0,1.0,,,,,
,,,,,,,,,,,,,,,,,,,,,0.025,,,,,,,,,,Stimuli/psy_fixed_rotation_30_objects_occ0.7_0.9s/images/train/n04379243_-7/n04256520_5/img_quatre_dining_table_meridiani_belmondo_bench_sofa_2000_gray.jpg,n04379243_-7,n04256520_5,fixed,0.767368,n02883344_15,Stimuli/psy_flexible_rotation_30_objects_occ0.7_0.9s/images/train/n04070727_5/n02883344_15/img_b05_db_apps_tech_06_13_composite_microwave_box_2005-3_gray.png,random,flexible,n04379243_-7,n03001627_-2,Stimuli/canonical view 2/img_n04379243_-7_gray.jpg,Stimuli/canonical view 2/img_n03001627_-2_gray.jpg,random,left,Experiments/experiment_16/196.jpg,Experiments/experiment_16/197.jpg,Experiments/experiment_16/198.jpg,Experiments/experiment_16/199.jpg,976,1,2023-05-26_14h36.31.004,Occlusion_Psychophysics,2022.1.4,Win32,143.9055979,,,left,"[""left""]",[1.0890999999046471],False,,0.0,,0.0,49.0,49.0,49.0,1.0,,,,,
,,,,,,,,,,,,,,,,,,,,,0.05,,,,,,,,,,Stimuli/psy_fixed_rotation_30_objects_occ0.7_0.9s/images/train/n04379243_0/n03928116_10/img_17th_c._monastery_dining_table_2010_ydp_103_r_2012__vray_2005_gray.jpg,n04379243_0,n03928116_10,fixed,0.701901,n02883344_15,Stimuli/psy_fixed_rotation_30_objects_occ0.7_0.9s/images/train/n04405907_8/n02883344_15/img_stylized_tv_microwave_box_2003-3_gray.png,random,fixed,n04379243_0,n03001627_8,Stimuli/canonical view 2/img_n04379243_0_gray.jpg,Stimuli/canonical view 2/img_n03001627_8_gray.jpg,random,left,Experiments/experiment_16/200.jpg,Experiments/experiment_16/201.jpg,Experiments/experiment_16/202.jpg,Experiments/experiment_16/203.jpg,976,1,2023-05-26_14h36.31.004,Occlusion_Psychophysics,2022.1.4,Win32,143.9055979,,,right,"[""right""]",[0.5673999998568888],False,,0.0,,0.0,50.0,50.0,50.0,1.0,,,,,
,,,,,,,,,,,,,,,,,,,,,0.05,,,,,,,,,,Stimuli/psy_flexible_rotation_30_objects_occ0.7_0.9s/images/train/n02818832_0/n04405907_5/img_b03_the_sofa_and_chair_company_-_stanley_bed_2014_samsung_40_uhd_smart_tv_2011_2008_gray.jpg,n02818832_0,n04405907_5,flexible,0.709269,n02933112_4,Stimuli/psy_flexible_rotation_30_objects_occ0.7_0.9s/images/train/n02818832_3/n02933112_4/img_b05_ccm_contemporary_bed_max2013_buffet_2006-3_gray.png,random,flexible,n02818832_0,n02883344_0,Stimuli/canonical view 2/img_n02818832_0_gray.jpg,Stimuli/canonical view 2/img_n02883344_0_gray.jpg,random,left,Experiments/experiment_16/204.jpg,Experiments/experiment_16/205.jpg,Experiments/experiment_16/206.jpg,Experiments/experiment_16/207.jpg,976,1,2023-05-26_14h36.31.004,Occlusion_Psychophysics,2022.1.4,Win32,143.9055979,,,left,"[""left""]",[0.7467999999523727],False,,0.0,,0.0,51.0,51.0,51.0,1.0,,,,,
,,,,,,,,,,,,,,,,,,,,,0.025,,,,,,,,,,Stimuli/psy_flexible_rotation_30_objects_occ0.7_0.9s/images/train/n04256520_9/n04256520_4/img_napoleon_iii_sofa_club_house_italia_nautilus_sofa_2012_gray.jpg,n04256520_9,n04256520_4,flexible,0.731233,n02818832_0,Stimuli/psy_flexible_rotation_30_objects_occ0.7_0.9s/images/train/n04405907_5/n02818832_0/img_samsung_40_uhd_smart_tv_2011_b03_the_sofa_and_chair_company_-_stanley_bed_2014_2010-3_gray.png,random,flexible,n04256520_9,n04256520_4,Stimuli/canonical view 2/img_n04256520_9_gray.jpg,Stimuli/canonical view 2/img_n04256520_4_gray.jpg,foreground,left,Experiments/experiment_16/208.jpg,Experiments/experiment_16/209.jpg,Experiments/experiment_16/210.jpg,Experiments/experiment_16/211.jpg,976,1,2023-05-26_14h36.31.004,Occlusion_Psychophysics,2022.1.4,Win32,143.9055979,,,right,"[""right""]",[0.6124999999999545],False,,0.0,,0.0,52.0,52.0,52.0,1.0,,,,,
,,,,,,,,,,,,,,,,,,,,,0.025,,,,,,,,,,Stimuli/psy_fixed_rotation_30_objects_occ0.7_0.9s/images/train/n04405907_8/n04379243_-7/img_stylized_tv_quatre_dining_table_2002_gray.jpg,n04405907_8,n04379243_-7,fixed,0.833912,n04405907_8,Stimuli/psy_flexible_rotation_30_objects_occ0.7_0.9s/images/train/n02933112_-2/n04405907_8/img_sink_base_white_wood_stylized_tv_2015-3_gray.png,random,flexible,n04405907_8,n04379243_-7,Stimuli/canonical view 2/img_n04405907_8_gray.jpg,Stimuli/canonical view 2/img_n04379243_-7_gray.jpg,foreground,left,Experiments/experiment_16/212.jpg,Experiments/experiment_16/213.jpg,Experiments/experiment_16/214.jpg,Experiments/experiment_16/215.jpg,976,1,2023-05-26_14h36.31.004,Occlusion_Psychophysics,2022.1.4,Win32,143.9055979,,,right,"[""left""]",[0.7437000000476246],False,,0.0,,0.0,53.0,53.0,53.0,1.0,,,,,
,,,,,,,,,,,,,,,,,,,,,0.025,,,,,,,,,,Stimuli/psy_flexible_rotation_30_objects_occ0.7_0.9s/images/train/n04405907_8/n03928116_0/img_stylized_tv_b02_piano_2011_gray.jpg,n04405907_8,n03928116_0,flexible,0.724588,n02818832_0,Stimuli/psy_flexible_rotation_30_objects_occ0.7_0.9s/images/train/n02818832_3/n02818832_0/img_b05_ccm_contemporary_bed_max2013_b03_the_sofa_and_chair_company_-_stanley_bed_2014_2007-3_gray.png,random,flexible,n04405907_8,n03928116_0,Stimuli/canonical view 2/img_n04405907_8_gray.jpg,Stimuli/canonical view 2/img_n03928116_0_gray.jpg,foreground,left,Experiments/experiment_16/216.jpg,Experiments/experiment_16/217.jpg,Experiments/experiment_16/218.jpg,Experiments/experiment_16/219.jpg,976,1,2023-05-26_14h36.31.004,Occlusion_Psychophysics,2022.1.4,Win32,143.9055979,,,right,"[""right""]",[0.9092000000476901],False,,0.0,,0.0,54.0,54.0,54.0,1.0,,,,,
,,,,,,,,,,,,,,,,,,,,,0.025,,,,,,,,,,Stimuli/psy_fixed_rotation_30_objects_occ0.7_0.9s/images/train/n03001627_9/n03928116_0/img_chair_eames_plastic_armchair_b02_piano_2010_gray.jpg,n03001627_9,n03928116_0,fixed,0.760771,n03928116_0,Stimuli/psy_fixed_rotation_30_objects_occ0.7_0.9s/images/train/n03001627_9/n03928116_0/img_chair_eames_plastic_armchair_b02_piano_2010-3_gray.png,foreground,same as foreground,n03001627_9,n04405907_5,Stimuli/canonical view 2/img_n03001627_9_gray.jpg,Stimuli/canonical view 2/img_n04405907_5_gray.jpg,random,left,Experiments/experiment_16/220.jpg,Experiments/experiment_16/221.jpg,Experiments/experiment_16/222.jpg,Experiments/experiment_16/223.jpg,976,1,2023-05-26_14h36.31.004,Occlusion_Psychophysics,2022.1.4,Win32,143.9055979,,,left,"[""right""]",[1.0272000000476282],False,,0.0,,0.0,55.0,55.0,55.0,1.0,,,,,
,,,,,,,,,,,,,,,,,,,,,0.025,,,,,,,,,,Stimuli/psy_flexible_rotation_30_objects_occ0.7_0.9s/images/train/n02828884_4/n04405907_8/img_b05_c-5_classic_series_bench-2012_stylized_tv_2012_gray.jpg,n02828884_4,n04405907_8,flexible,0.743312,n03928116_0,Stimuli/psy_flexible_rotation_30_objects_occ0.7_0.9s/images/train/n02828884_4/n03928116_0/img_b05_c-5_classic_series_bench-2012_b02_piano_2002-3_gray.png,random,flexible,n02828884_4,n04405907_8,Stimuli/canonical view 2/img_n02828884_4_gray.jpg,Stimuli/canonical view 2/img_n04405907_8_gray.jpg,foreground,left,Experiments/experiment_16/224.jpg,Experiments/experiment_16/225.jpg,Experiments/experiment_16/226.jpg,Experiments/experiment_16/227.jpg,976,1,2023-05-26_14h36.31.004,Occlusion_Psychophysics,2022.1.4,Win32,143.9055979,,,left,"[""left""]",[0.657100000143032],False,,0.0,,0.0,56.0,56.0,56.0,1.0,,,,,
,,,,,,,,,,,,,,,,,,,,,0.025,,,,,,,,,,Stimuli/psy_fixed_rotation_30_objects_occ0.7_0.9s/images/train/n04256520_4/n04405907_9/img_club_house_italia_nautilus_sofa_vray_004_2005_gray.jpg,n04256520_4,n04405907_9,fixed,0.728117,n04405907_9,Stimuli/psy_fixed_rotation_30_objects_occ0.7_0.9s/images/train/n04256520_4/n04405907_9/img_club_house_italia_nautilus_sofa_vray_004_2005-3_gray.png,foreground,same as foreground,n04256520_4,n04405907_8,Stimuli/canonical view 2/img_n04256520_4_gray.jpg,Stimuli/canonical view 2/img_n04405907_8_gray.jpg,random,right,Experiments/experiment_16/228.jpg,Experiments/experiment_16/229.jpg,Experiments/experiment_16/230.jpg,Experiments/experiment_16/231.jpg,976,1,2023-05-26_14h36.31.004,Occlusion_Psychophysics,2022.1.4,Win32,143.9055979,,,left,"[""left""]",[0.7322000000476692],False,,0.0,,0.0,57.0,57.0,57.0,1.0,,,,,
,,,,,,,,,,,,,,,,,,,,,0.05,,,,,,,,,,Stimuli/psy_flexible_rotation_30_objects_occ0.7_0.9s/images/train/n02883344_-1/n02883344_0/img_woven_box_b03_box_2006_gray.jpg,n02883344_-1,n02883344_0,flexible,0.734576,n02883344_0,Stimuli/psy_flexible_rotation_30_objects_occ0.7_0.9s/images/train/n02883344_-1/n02883344_0/img_woven_box_b03_box_2006-3_gray.png,foreground,same as foreground,n02883344_-1,n02828884_9,Stimuli/canonical view 2/img_n02883344_-1_gray.jpg,Stimuli/canonical view 2/img_n02828884_9_gray.jpg,random,left,Experiments/experiment_16/232.jpg,Experiments/experiment_16/233.jpg,Experiments/experiment_16/234.jpg,Experiments/experiment_16/235.jpg,976,1,2023-05-26_14h36.31.004,Occlusion_Psychophysics,2022.1.4,Win32,143.9055979,,,left,"[""left""]",[0.6782000000476955],False,,0.0,,0.0,58.0,58.0,58.0,1.0,,,,,
,,,,,,,,,,,,,,,,,,,,,0.025,,,,,,,,,,Stimuli/psy_fixed_rotation_30_objects_occ0.7_0.9s/images/train/n03928116_10/n03928116_4/img_ydp_103_r_2012__vray_dp_33_b_2013__vray_2015_gray.jpg,n03928116_10,n03928116_4,fixed,0.707284,n03928116_4,Stimuli/psy_fixed_rotation_30_objects_occ0.7_0.9s/images/train/n03928116_10/n03928116_4/img_ydp_103_r_2012__vray_dp_33_b_2013__vray_2015-3_gray.png,foreground,same as foreground,n03928116_10,n02883344_0,Stimuli/canonical view 2/img_n03928116_10_gray.jpg,Stimuli/canonical view 2/img_n02883344_0_gray.jpg,random,right,Experiments/experiment_16/236.jpg,Experiments/experiment_16/237.jpg,Experiments/experiment_16/238.jpg,Experiments/experiment_16/239.jpg,976,1,2023-05-26_14h36.31.004,Occlusion_Psychophysics,2022.1.4,Win32,143.9055979,,,right,"[""left""]",[1.073100000142972],False,,0.0,,0.0,59.0,59.0,59.0,1.0,,,,,
,,,,,,,,,,,,,,,,,,,,,0.05,,,,,,,,,,Stimuli/psy_flexible_rotation_30_objects_occ0.7_0.9s/images/train/n03001627_-2/n02883344_15/img_wood_chair_microwave_box_2004_gray.jpg,n03001627_-2,n02883344_15,flexible,0.717277,n02818832_9,Stimuli/psy_flexible_rotation_30_objects_occ0.7_0.9s/images/train/n04379243_8/n02818832_9/img_glass_table_bed01_blue_2008-3_gray.png,random,flexible,n03001627_-2,n03928116_4,Stimuli/canonical view 2/img_n03001627_-2_gray.jpg,Stimuli/canonical view 2/img_n03928116_4_gray.jpg,random,right,Experiments/experiment_16/240.jpg,Experiments/experiment_16/241.jpg,Experiments/experiment_16/242.jpg,Experiments/experiment_16/243.jpg,976,1,2023-05-26_14h36.31.004,Occlusion_Psychophysics,2022.1.4,Win32,143.9055979,,,left,"[""left""]",[0.8877000000477437],True,left,1.0,1.271,0.0,60.0,60.0,60.0,1.0,,,,,
,,,,,,,,,,,,,,,,,,,,,0.025,,,,,,,,,,Stimuli/psy_fixed_rotation_30_objects_occ0.7_0.9s/images/train/n04405907_5/n02883344_0/img_samsung_40_uhd_smart_tv_2011_b03_box_2011_gray.jpg,n04405907_5,n02883344_0,fixed,0.745377,n03928116_0,Stimuli/psy_fixed_rotation_30_objects_occ0.7_0.9s/images/train/n03928116_4/n03928116_0/img_dp_33_b_2013__vray_b02_piano_2015-3_gray.png,random,fixed,n04405907_5,n02883344_0,Stimuli/canonical view 2/img_n04405907_5_gray.jpg,Stimuli/canonical view 2/img_n02883344_0_gray.jpg,foreground,right,Experiments/experiment_16/244.jpg,Experiments/experiment_16/245.jpg,Experiments/experiment_16/246.jpg,Experiments/experiment_16/247.jpg,976,1,2023-05-26_14h36.31.004,Occlusion_Psychophysics,2022.1.4,Win32,143.9055979,,,left,"[""left""]",[0.7297999999523199],False,,0.0,,0.0,61.0,61.0,61.0,1.0,,,,,
,,,,,,,,,,,,,,,,,,,,,0.05,,,,,,,,,,Stimuli/psy_flexible_rotation_30_objects_occ0.7_0.9s/images/train/n04379243_-7/n04256520_9/img_quatre_dining_table_napoleon_iii_sofa_2007_gray.jpg,n04379243_-7,n04256520_9,flexible,0.752458,n02883344_15,Stimuli/psy_flexible_rotation_30_objects_occ0.7_0.9s/images/train/n04379243_0/n02883344_15/img_17th_c._monastery_dining_table_2010_microwave_box_2003-3_gray.png,random,flexible,n04379243_-7,n02883344_0,Stimuli/canonical view 2/img_n04379243_-7_gray.jpg,Stimuli/canonical view 2/img_n02883344_0_gray.jpg,random,right,Experiments/experiment_16/248.jpg,Experiments/experiment_16/249.jpg,Experiments/experiment_16/250.jpg,Experiments/experiment_16/251.jpg,976,1,2023-05-26_14h36.31.004,Occlusion_Psychophysics,2022.1.4,Win32,143.9055979,,,left,"[""left""]",[0.6297000000477055],False,,0.0,,0.0,62.0,62.0,62.0,1.0,,,,,
,,,,,,,,,,,,,,,,,,,,,0.025,,,,,,,,,,Stimuli/psy_fixed_rotation_30_objects_occ0.7_0.9s/images/train/n02933112_-2/n02883344_-1/img_sink_base_white_wood_woven_box_2012_gray.jpg,n02933112_-2,n02883344_-1,fixed,0.715943,n04405907_8,Stimuli/psy_flexible_rotation_30_objects_occ0.7_0.9s/images/train/n03928116_0/n04405907_8/img_b02_piano_stylized_tv_2003-3_gray.png,random,flexible,n02933112_-2,n03928116_10,Stimuli/canonical view 2/img_n02933112_-2_gray.jpg,Stimuli/canonical view 2/img_n03928116_10_gray.jpg,random,left,Experiments/experiment_16/252.jpg,Experiments/experiment_16/253.jpg,Experiments/experiment_16/254.jpg,Experiments/experiment_16/255.jpg,976,1,2023-05-26_14h36.31.004,Occlusion_Psychophysics,2022.1.4,Win32,143.9055979,,,left,"[""left""]",[0.5874000000952719],False,,0.0,,0.0,63.0,63.0,63.0,1.0,,,,,
,,,,,,,,,,,,,,,,,,,,,0.025,,,,,,,,,,Stimuli/psy_fixed_rotation_30_objects_occ0.7_0.9s/images/train/n04405907_9/n04405907_8/img_vray_004_stylized_tv_2015_gray.jpg,n04405907_9,n04405907_8,fixed,0.885539,n04405907_8,Stimuli/psy_fixed_rotation_30_objects_occ0.7_0.9s/images/train/n04405907_9/n04405907_8/img_vray_004_stylized_tv_2015-3_gray.png,foreground,same as foreground,n04405907_9,n02883344_15,Stimuli/canonical view 2/img_n04405907_9_gray.jpg,Stimuli/canonical view 2/img_n02883344_15_gray.jpg,random,left,Experiments/experiment_16/256.jpg,Experiments/experiment_16/257.jpg,Experiments/experiment_16/258.jpg,Experiments/experiment_16/259.jpg,976,1,2023-05-26_14h36.31.004,Occlusion_Psychophysics,2022.1.4,Win32,143.9055979,,,left,"[""right""]",[1.1908999998569243],False,,0.0,,0.0,64.0,64.0,64.0,1.0,,,,,
,,,,,,,,,,,,,,,,,,,,,0.05,,,,,,,,,,Stimuli/psy_fixed_rotation_30_objects_occ0.7_0.9s/images/train/n04405907_5/n02883344_15/img_samsung_40_uhd_smart_tv_2011_microwave_box_2015_gray.jpg,n04405907_5,n02883344_15,fixed,0.789582,n02818832_3,Stimuli/psy_fixed_rotation_30_objects_occ0.7_0.9s/images/train/n04379243_8/n02818832_3/img_glass_table_b05_ccm_contemporary_bed_max2013_2013-3_gray.png,random,fixed,n04405907_5,n02933112_-2,Stimuli/canonical view 2/img_n04405907_5_gray.jpg,Stimuli/canonical view 2/img_n02933112_-2_gray.jpg,random,left,Experiments/experiment_16/260.jpg,Experiments/experiment_16/261.jpg,Experiments/experiment_16/262.jpg,Experiments/experiment_16/263.jpg,976,1,2023-05-26_14h36.31.004,Occlusion_Psychophysics,2022.1.4,Win32,143.9055979,,,left,"[""left""]",[0.6302000000476937],False,,0.0,,0.0,65.0,65.0,65.0,1.0,,,,,
,,,,,,,,,,,,,,,,,,,,,0.025,,,,,,,,,,Stimuli/psy_flexible_rotation_30_objects_occ0.7_0.9s/images/train/n04256520_9/n02828884_3/img_napoleon_iii_sofa_b04_wood_metal_park_bench_2002_gray.jpg,n04256520_9,n02828884_3,flexible,0.703268,n02828884_3,Stimuli/psy_flexible_rotation_30_objects_occ0.7_0.9s/images/train/n04256520_9/n02828884_3/img_napoleon_iii_sofa_b04_wood_metal_park_bench_2002-3_gray.png,foreground,same as foreground,n04256520_9,n04379243_0,Stimuli/canonical view 2/img_n04256520_9_gray.jpg,Stimuli/canonical view 2/img_n04379243_0_gray.jpg,random,right,Experiments/experiment_16/264.jpg,Experiments/experiment_16/265.jpg,Experiments/experiment_16/266.jpg,Experiments/experiment_16/267.jpg,976,1,2023-05-26_14h36.31.004,Occlusion_Psychophysics,2022.1.4,Win32,143.9055979,,,left,"[""left""]",[0.6351000001430975],False,,0.0,,0.0,66.0,66.0,66.0,1.0,,,,,
,,,,,,,,,,,,,,,,,,,,,0.025,,,,,,,,,,Stimuli/psy_fixed_rotation_30_objects_occ0.7_0.9s/images/train/n02818832_0/n03928116_0/img_b03_the_sofa_and_chair_company_-_stanley_bed_2014_b02_piano_2003_gray.jpg,n02818832_0,n03928116_0,fixed,0.784898,n02933112_4,Stimuli/psy_flexible_rotation_30_objects_occ0.7_0.9s/images/train/n02818832_3/n02933112_4/img_b05_ccm_contemporary_bed_max2013_buffet_2005-3_gray.png,random,flexible,n02818832_0,n03928116_4,Stimuli/canonical view 2/img_n02818832_0_gray.jpg,Stimuli/canonical view 2/img_n03928116_4_gray.jpg,random,left,Experiments/experiment_16/268.jpg,Experiments/experiment_16/269.jpg,Experiments/experiment_16/270.jpg,Experiments/experiment_16/271.jpg,976,1,2023-05-26_14h36.31.004,Occlusion_Psychophysics,2022.1.4,Win32,143.9055979,,,right,"[""right""]",[0.6580999999047208],False,,0.0,,0.0,67.0,67.0,67.0,1.0,,,,,
,,,,,,,,,,,,,,,,,,,,,0.025,,,,,,,,,,Stimuli/psy_fixed_rotation_30_objects_occ0.7_0.9s/images/train/n02828884_3/n04405907_8/img_b04_wood_metal_park_bench_stylized_tv_2006_gray.jpg,n02828884_3,n04405907_8,fixed,0.790316,n04405907_8,Stimuli/psy_fixed_rotation_30_objects_occ0.7_0.9s/images/train/n02828884_3/n04405907_8/img_b04_wood_metal_park_bench_stylized_tv_2006-3_gray.png,foreground,same as foreground,n02828884_3,n04405907_8,Stimuli/canonical view 2/img_n02828884_3_gray.jpg,Stimuli/canonical view 2/img_n04405907_8_gray.jpg,foreground,right,Experiments/experiment_16/272.jpg,Experiments/experiment_16/273.jpg,Experiments/experiment_16/274.jpg,Experiments/experiment_16/275.jpg,976,1,2023-05-26_14h36.31.004,Occlusion_Psychophysics,2022.1.4,Win32,143.9055979,,,right,"[""right""]",[0.5889999999999418],False,,0.0,,0.0,68.0,68.0,68.0,1.0,,,,,
,,,,,,,,,,,,,,,,,,,,,0.05,,,,,,,,,,Stimuli/psy_flexible_rotation_30_objects_occ0.7_0.9s/images/train/n02933112_-18/n02933112_4/img_cgaxis_models_48_26_vray_composite_buffet_2003_gray.jpg,n02933112_-18,n02933112_4,flexible,0.782948,n02933112_4,Stimuli/psy_flexible_rotation_30_objects_occ0.7_0.9s/images/train/n02933112_-18/n02933112_4/img_cgaxis_models_48_26_vray_composite_buffet_2003-3_gray.png,foreground,same as foreground,n02933112_-18,n02933112_4,Stimuli/canonical view 2/img_n02933112_-18_gray.jpg,Stimuli/canonical view 2/img_n02933112_4_gray.jpg,foreground,left,Experiments/experiment_16/276.jpg,Experiments/experiment_16/277.jpg,Experiments/experiment_16/278.jpg,Experiments/experiment_16/279.jpg,976,1,2023-05-26_14h36.31.004,Occlusion_Psychophysics,2022.1.4,Win32,143.9055979,,,right,"[""left""]",[0.8409000000954165],False,,0.0,,0.0,69.0,69.0,69.0,1.0,,,,,
,,,,,,,,,,,,,,,,,,,,,0.05,,,,,,,,,,Stimuli/psy_fixed_rotation_30_objects_occ0.7_0.9s/images/train/n03001627_8/n03928116_0/img_chair_billiani_doll_b02_piano_2012_gray.jpg,n03001627_8,n03928116_0,fixed,0.742362,n03928116_4,Stimuli/psy_flexible_rotation_30_objects_occ0.7_0.9s/images/train/n02818832_3/n03928116_4/img_b05_ccm_contemporary_bed_max2013_dp_33_b_2013__vray_2003-3_gray.png,random,flexible,n03001627_8,n04379243_8,Stimuli/canonical view 2/img_n03001627_8_gray.jpg,Stimuli/canonical view 2/img_n04379243_8_gray.jpg,random,left,Experiments/experiment_16/280.jpg,Experiments/experiment_16/281.jpg,Experiments/experiment_16/282.jpg,Experiments/experiment_16/283.jpg,976,1,2023-05-26_14h36.31.004,Occlusion_Psychophysics,2022.1.4,Win32,143.9055979,,,left,"[""left""]",[0.6990000000000691],False,,0.0,,0.0,70.0,70.0,70.0,1.0,,,,,
,,,,,,,,,,,,,,,,,,,,,0.025,,,,,,,,,,Stimuli/psy_fixed_rotation_30_objects_occ0.7_0.9s/images/train/n04405907_9/n02883344_-1/img_vray_004_woven_box_2002_gray.jpg,n04405907_9,n02883344_-1,fixed,0.703755,n02883344_-1,Stimuli/psy_fixed_rotation_30_objects_occ0.7_0.9s/images/train/n04405907_9/n02883344_-1/img_vray_004_woven_box_2002-3_gray.png,foreground,same as foreground,n04405907_9,n02818832_0,Stimuli/canonical view 2/img_n04405907_9_gray.jpg,Stimuli/canonical view 2/img_n02818832_0_gray.jpg,random,right,Experiments/experiment_16/284.jpg,Experiments/experiment_16/285.jpg,Experiments/experiment_16/286.jpg,Experiments/experiment_16/287.jpg,976,1,2023-05-26_14h36.31.004,Occlusion_Psychophysics,2022.1.4,Win32,143.9055979,,,left,"[""left""]",[0.8185000000000855],False,,0.0,,0.0,71.0,71.0,71.0,1.0,,,,,
,,,,,,,,,,,,,,,,,,,,,0.05,,,,,,,,,,Stimuli/psy_flexible_rotation_30_objects_occ0.7_0.9s/images/train/n02883344_-1/n02828884_3/img_woven_box_b04_wood_metal_park_bench_2002_gray.jpg,n02883344_-1,n02828884_3,flexible,0.731209,n02828884_3,Stimuli/psy_flexible_rotation_30_objects_occ0.7_0.9s/images/train/n02883344_-1/n02828884_3/img_woven_box_b04_wood_metal_park_bench_2002-3_gray.png,foreground,same as foreground,n02883344_-1,n03928116_0,Stimuli/canonical view 2/img_n02883344_-1_gray.jpg,Stimuli/canonical view 2/img_n03928116_0_gray.jpg,random,left,Experiments/experiment_16/288.jpg,Experiments/experiment_16/289.jpg,Experiments/experiment_16/290.jpg,Experiments/experiment_16/291.jpg,976,1,2023-05-26_14h36.31.004,Occlusion_Psychophysics,2022.1.4,Win32,143.9055979,,,left,"[""left""]",[0.6812000000477383],False,,0.0,,0.0,72.0,72.0,72.0,1.0,,,,,
,,,,,,,,,,,,,,,,,,,,,0.05,,,,,,,,,,Stimuli/psy_flexible_rotation_30_objects_occ0.7_0.9s/images/train/n04256520_5/n04379243_-7/img_meridiani_belmondo_bench_sofa_quatre_dining_table_2004_gray.jpg,n04256520_5,n04379243_-7,flexible,0.709995,n02828884_3,Stimuli/psy_fixed_rotation_30_objects_occ0.7_0.9s/images/train/n03928116_10/n02828884_3/img_ydp_103_r_2012__vray_b04_wood_metal_park_bench_2007-3_gray.png,random,fixed,n04256520_5,n03928116_10,Stimuli/canonical view 2/img_n04256520_5_gray.jpg,Stimuli/canonical view 2/img_n03928116_10_gray.jpg,random,right,Experiments/experiment_16/292.jpg,Experiments/experiment_16/293.jpg,Experiments/experiment_16/294.jpg,Experiments/experiment_16/295.jpg,976,1,2023-05-26_14h36.31.004,Occlusion_Psychophysics,2022.1.4,Win32,143.9055979,,,right,"[""right""]",[0.6562000000476473],False,,0.0,,0.0,73.0,73.0,73.0,1.0,,,,,
,,,,,,,,,,,,,,,,,,,,,0.025,,,,,,,,,,Stimuli/psy_fixed_rotation_30_objects_occ0.7_0.9s/images/train/n04256520_9/n02933112_-2/img_napoleon_iii_sofa_sink_base_white_wood_2013_gray.jpg,n04256520_9,n02933112_-2,fixed,0.700563,n02933112_-2,Stimuli/psy_fixed_rotation_30_objects_occ0.7_0.9s/images/train/n04256520_9/n02933112_-2/img_napoleon_iii_sofa_sink_base_white_wood_2013-3_gray.png,foreground,same as foreground,n04256520_9,n02933112_-2,Stimuli/canonical view 2/img_n04256520_9_gray.jpg,Stimuli/canonical view 2/img_n02933112_-2_gray.jpg,foreground,right,Experiments/experiment_16/296.jpg,Experiments/experiment_16/297.jpg,Experiments/experiment_16/298.jpg,Experiments/experiment_16/299.jpg,976,1,2023-05-26_14h36.31.004,Occlusion_Psychophysics,2022.1.4,Win32,143.9055979,,,right,"[""right""]",[0.6092000000476219],False,,0.0,,0.0,74.0,74.0,74.0,1.0,,,,,
,,,,,,,,,,,,,,,,,,,,,0.05,,,,,,,,,,Stimuli/psy_fixed_rotation_30_objects_occ0.7_0.9s/images/train/n02818832_0/n04405907_8/img_b03_the_sofa_and_chair_company_-_stanley_bed_2014_stylized_tv_2007_gray.jpg,n02818832_0,n04405907_8,fixed,0.892721,n02818832_0,Stimuli/psy_flexible_rotation_30_objects_occ0.7_0.9s/images/train/n02828884_3/n02818832_0/img_b04_wood_metal_park_bench_b03_the_sofa_and_chair_company_-_stanley_bed_2014_2001-3_gray.png,random,flexible,n02818832_0,n02818832_9,Stimuli/canonical view 2/img_n02818832_0_gray.jpg,Stimuli/canonical view 2/img_n02818832_9_gray.jpg,random,right,Experiments/experiment_16/300.jpg,Experiments/experiment_16/301.jpg,Experiments/experiment_16/302.jpg,Experiments/experiment_16/303.jpg,976,1,2023-05-26_14h36.31.004,Occlusion_Psychophysics,2022.1.4,Win32,143.9055979,,,right,"[""right""]",[0.70279999995239],False,,0.0,,0.0,75.0,75.0,75.0,1.0,,,,,
,,,,,,,,,,,,,,,,,,,,,0.05,,,,,,,,,,Stimuli/psy_fixed_rotation_30_objects_occ0.7_0.9s/images/train/n03928116_0/n02883344_0/img_b02_piano_b03_box_2000_gray.jpg,n03928116_0,n02883344_0,fixed,0.807814,n02883344_0,Stimuli/psy_fixed_rotation_30_objects_occ0.7_0.9s/images/train/n03928116_0/n02883344_0/img_b02_piano_b03_box_2000-3_gray.png,foreground,same as foreground,n03928116_0,n02883344_0,Stimuli/canonical view 2/img_n03928116_0_gray.jpg,Stimuli/canonical view 2/img_n02883344_0_gray.jpg,foreground,left,Experiments/experiment_16/304.jpg,Experiments/experiment_16/305.jpg,Experiments/experiment_16/306.jpg,Experiments/experiment_16/307.jpg,976,1,2023-05-26_14h36.31.004,Occlusion_Psychophysics,2022.1.4,Win32,143.9055979,,,right,"[""left""]",[0.7442999999523181],False,,0.0,,0.0,76.0,76.0,76.0,1.0,,,,,
,,,,,,,,,,,,,,,,,,,,,0.05,,,,,,,,,,Stimuli/psy_flexible_rotation_30_objects_occ0.7_0.9s/images/train/n04379243_0/n02883344_15/img_17th_c._monastery_dining_table_2010_microwave_box_2008_gray.jpg,n04379243_0,n02883344_15,flexible,0.715003,n02883344_15,Stimuli/psy_flexible_rotation_30_objects_occ0.7_0.9s/images/train/n04379243_0/n02883344_15/img_17th_c._monastery_dining_table_2010_microwave_box_2008-3_gray.png,foreground,same as foreground,n04379243_0,n02883344_15,Stimuli/canonical view 2/img_n04379243_0_gray.jpg,Stimuli/canonical view 2/img_n02883344_15_gray.jpg,foreground,right,Experiments/experiment_16/308.jpg,Experiments/experiment_16/309.jpg,Experiments/experiment_16/310.jpg,Experiments/experiment_16/311.jpg,976,1,2023-05-26_14h36.31.004,Occlusion_Psychophysics,2022.1.4,Win32,143.9055979,,,right,"[""right""]",[0.6332000000476228],False,,0.0,,0.0,77.0,77.0,77.0,1.0,,,,,
,,,,,,,,,,,,,,,,,,,,,0.025,,,,,,,,,,Stimuli/psy_flexible_rotation_30_objects_occ0.7_0.9s/images/train/n04256520_5/n03001627_8/img_meridiani_belmondo_bench_sofa_chair_billiani_doll_2014_gray.jpg,n04256520_5,n03001627_8,flexible,0.725148,n03001627_8,Stimuli/psy_flexible_rotation_30_objects_occ0.7_0.9s/images/train/n04256520_5/n03001627_8/img_meridiani_belmondo_bench_sofa_chair_billiani_doll_2014-3_gray.png,foreground,same as foreground,n04256520_5,n04405907_8,Stimuli/canonical view 2/img_n04256520_5_gray.jpg,Stimuli/canonical view 2/img_n04405907_8_gray.jpg,random,right,Experiments/experiment_16/312.jpg,Experiments/experiment_16/313.jpg,Experiments/experiment_16/314.jpg,Experiments/experiment_16/315.jpg,976,1,2023-05-26_14h36.31.004,Occlusion_Psychophysics,2022.1.4,Win32,143.9055979,,,right,"[""right""]",[0.6759000000954529],False,,0.0,,0.0,78.0,78.0,78.0,1.0,,,,,
,,,,,,,,,,,,,,,,,,,,,0.05,,,,,,,,,,Stimuli/psy_flexible_rotation_30_objects_occ0.7_0.9s/images/train/n02933112_-2/n02818832_9/img_sink_base_white_wood_bed01_blue_2012_gray.jpg,n02933112_-2,n02818832_9,flexible,0.735654,n03928116_10,Stimuli/psy_flexible_rotation_30_objects_occ0.7_0.9s/images/train/n02828884_3/n03928116_10/img_b04_wood_metal_park_bench_ydp_103_r_2012__vray_2001-3_gray.png,random,flexible,n02933112_-2,n02818832_9,Stimuli/canonical view 2/img_n02933112_-2_gray.jpg,Stimuli/canonical view 2/img_n02818832_9_gray.jpg,foreground,left,Experiments/experiment_16/316.jpg,Experiments/experiment_16/317.jpg,Experiments/experiment_16/318.jpg,Experiments/experiment_16/319.jpg,976,1,2023-05-26_14h36.31.004,Occlusion_Psychophysics,2022.1.4,Win32,143.9055979,,,right,"[""right""]",[1.46420000004764],False,,0.0,,0.0,79.0,79.0,79.0,1.0,,,,,
,,,,,,,,,,,,,,,,,,,,,0.025,,,,,,,,,,Stimuli/psy_fixed_rotation_30_objects_occ0.7_0.9s/images/train/n02933112_-2/n04405907_9/img_sink_base_white_wood_vray_004_2012_gray.jpg,n02933112_-2,n04405907_9,fixed,0.743051,n04405907_9,Stimuli/psy_fixed_rotation_30_objects_occ0.7_0.9s/images/train/n02933112_-2/n04405907_9/img_sink_base_white_wood_vray_004_2012-3_gray.png,foreground,same as foreground,n02933112_-2,n03001627_8,Stimuli/canonical view 2/img_n02933112_-2_gray.jpg,Stimuli/canonical view 2/img_n03001627_8_gray.jpg,random,left,Experiments/experiment_16/320.jpg,Experiments/experiment_16/321.jpg,Experiments/experiment_16/322.jpg,Experiments/experiment_16/323.jpg,976,1,2023-05-26_14h36.31.004,Occlusion_Psychophysics,2022.1.4,Win32,143.9055979,,,left,"[""left""]",[0.6559000000953574],False,,0.0,,0.0,80.0,80.0,80.0,1.0,,,,,
,,,,,,,,,,,,,,,,,,,,,0.05,,,,,,,,,,Stimuli/psy_flexible_rotation_30_objects_occ0.7_0.9s/images/train/n02818832_9/n02883344_-1/img_bed01_blue_woven_box_2008_gray.jpg,n02818832_9,n02883344_-1,flexible,0.742863,n02883344_-1,Stimuli/psy_flexible_rotation_30_objects_occ0.7_0.9s/images/train/n02818832_9/n02883344_-1/img_bed01_blue_woven_box_2008-3_gray.png,foreground,same as foreground,n02818832_9,n02883344_-1,Stimuli/canonical view 2/img_n02818832_9_gray.jpg,Stimuli/canonical view 2/img_n02883344_-1_gray.jpg,foreground,left,Experiments/experiment_16/324.jpg,Experiments/experiment_16/325.jpg,Experiments/experiment_16/326.jpg,Experiments/experiment_16/327.jpg,976,1,2023-05-26_14h36.31.004,Occlusion_Psychophysics,2022.1.4,Win32,143.9055979,,,right,"[""right""]",[0.5657999999523327],False,,0.0,,0.0,81.0,81.0,81.0,1.0,,,,,
,,,,,,,,,,,,,,,,,,,,,0.05,,,,,,,,,,Stimuli/psy_flexible_rotation_30_objects_occ0.7_0.9s/images/train/n02933112_4/n02828884_3/img_buffet_b04_wood_metal_park_bench_2005_gray.jpg,n02933112_4,n02828884_3,flexible,0.720611,n02828884_3,Stimuli/psy_flexible_rotation_30_objects_occ0.7_0.9s/images/train/n02933112_4/n02828884_3/img_buffet_b04_wood_metal_park_bench_2005-3_gray.png,foreground,same as foreground,n02933112_4,n02828884_3,Stimuli/canonical view 2/img_n02933112_4_gray.jpg,Stimuli/canonical view 2/img_n02828884_3_gray.jpg,foreground,right,Experiments/experiment_16/328.jpg,Experiments/experiment_16/329.jpg,Experiments/experiment_16/330.jpg,Experiments/experiment_16/331.jpg,976,1,2023-05-26_14h36.31.004,Occlusion_Psychophysics,2022.1.4,Win32,143.9055979,,,right,"[""right""]",[0.7714000000953547],False,,0.0,,0.0,82.0,82.0,82.0,1.0,,,,,
,,,,,,,,,,,,,,,,,,,,,0.05,,,,,,,,,,Stimuli/psy_fixed_rotation_30_objects_occ0.7_0.9s/images/train/n02933112_-2/n04405907_9/img_sink_base_white_wood_vray_004_2001_gray.jpg,n02933112_-2,n04405907_9,fixed,0.812244,n04405907_9,Stimuli/psy_fixed_rotation_30_objects_occ0.7_0.9s/images/train/n02933112_-2/n04405907_9/img_sink_base_white_wood_vray_004_2001-3_gray.png,foreground,same as foreground,n02933112_-2,n02828884_4,Stimuli/canonical view 2/img_n02933112_-2_gray.jpg,Stimuli/canonical view 2/img_n02828884_4_gray.jpg,random,right,Experiments/experiment_16/332.jpg,Experiments/experiment_16/333.jpg,Experiments/experiment_16/334.jpg,Experiments/experiment_16/335.jpg,976,1,2023-05-26_14h36.31.004,Occlusion_Psychophysics,2022.1.4,Win32,143.9055979,,,right,"[""right""]",[0.5600999999046508],False,,0.0,,0.0,83.0,83.0,83.0,1.0,,,,,
,,,,,,,,,,,,,,,,,,,,,0.025,,,,,,,,,,Stimuli/psy_fixed_rotation_30_objects_occ0.7_0.9s/images/train/n04379243_0/n03928116_10/img_17th_c._monastery_dining_table_2010_ydp_103_r_2012__vray_2015_gray.jpg,n04379243_0,n03928116_10,fixed,0.799615,n04256520_4,Stimuli/psy_fixed_rotation_30_objects_occ0.7_0.9s/images/train/n04256520_9/n04256520_4/img_napoleon_iii_sofa_club_house_italia_nautilus_sofa_2005-3_gray.png,random,fixed,n04379243_0,n02933112_4,Stimuli/canonical view 2/img_n04379243_0_gray.jpg,Stimuli/canonical view 2/img_n02933112_4_gray.jpg,random,left,Experiments/experiment_16/336.jpg,Experiments/experiment_16/337.jpg,Experiments/experiment_16/338.jpg,Experiments/experiment_16/339.jpg,976,1,2023-05-26_14h36.31.004,Occlusion_Psychophysics,2022.1.4,Win32,143.9055979,,,right,"[""right""]",[1.1656000001430584],False,,0.0,,0.0,84.0,84.0,84.0,1.0,,,,,
,,,,,,,,,,,,,,,,,,,,,0.05,,,,,,,,,,Stimuli/psy_flexible_rotation_30_objects_occ0.7_0.9s/images/train/n04379243_-7/n04256520_4/img_quatre_dining_table_club_house_italia_nautilus_sofa_2011_gray.jpg,n04379243_-7,n04256520_4,flexible,0.811847,n02933112_4,Stimuli/psy_flexible_rotation_30_objects_occ0.7_0.9s/images/train/n02933112_4/n02933112_4/img_buffet_buffet_2003-3_gray.png,random,flexible,n04379243_-7,n04256520_4,Stimuli/canonical view 2/img_n04379243_-7_gray.jpg,Stimuli/canonical view 2/img_n04256520_4_gray.jpg,foreground,left,Experiments/experiment_16/340.jpg,Experiments/experiment_16/341.jpg,Experiments/experiment_16/342.jpg,Experiments/experiment_16/343.jpg,976,1,2023-05-26_14h36.31.004,Occlusion_Psychophysics,2022.1.4,Win32,143.9055979,,,left,"[""left""]",[1.0026999998092379],False,,0.0,,0.0,85.0,85.0,85.0,1.0,,,,,
,,,,,,,,,,,,,,,,,,,,,0.025,,,,,,,,,,Stimuli/psy_fixed_rotation_30_objects_occ0.7_0.9s/images/train/n04405907_9/n04256520_5/img_vray_004_meridiani_belmondo_bench_sofa_2011_gray.jpg,n04405907_9,n04256520_5,fixed,0.819894,n04256520_5,Stimuli/psy_fixed_rotation_30_objects_occ0.7_0.9s/images/train/n04405907_9/n04256520_5/img_vray_004_meridiani_belmondo_bench_sofa_2011-3_gray.png,foreground,same as foreground,n04405907_9,n02828884_9,Stimuli/canonical view 2/img_n04405907_9_gray.jpg,Stimuli/canonical view 2/img_n02828884_9_gray.jpg,random,left,Experiments/experiment_16/344.jpg,Experiments/experiment_16/345.jpg,Experiments/experiment_16/346.jpg,Experiments/experiment_16/347.jpg,976,1,2023-05-26_14h36.31.004,Occlusion_Psychophysics,2022.1.4,Win32,143.9055979,,,right,"[""right""]",[0.8664999999999736],False,,0.0,,0.0,86.0,86.0,86.0,1.0,,,,,
,,,,,,,,,,,,,,,,,,,,,0.05,,,,,,,,,,Stimuli/psy_flexible_rotation_30_objects_occ0.7_0.9s/images/train/n04256520_9/n03928116_4/img_napoleon_iii_sofa_dp_33_b_2013__vray_2008_gray.jpg,n04256520_9,n03928116_4,flexible,0.734595,n03928116_4,Stimuli/psy_flexible_rotation_30_objects_occ0.7_0.9s/images/train/n04256520_9/n03928116_4/img_napoleon_iii_sofa_dp_33_b_2013__vray_2008-3_gray.png,foreground,same as foreground,n04256520_9,n02883344_15,Stimuli/canonical view 2/img_n04256520_9_gray.jpg,Stimuli/canonical view 2/img_n02883344_15_gray.jpg,random,left,Experiments/experiment_16/348.jpg,Experiments/experiment_16/349.jpg,Experiments/experiment_16/350.jpg,Experiments/experiment_16/351.jpg,976,1,2023-05-26_14h36.31.004,Occlusion_Psychophysics,2022.1.4,Win32,143.9055979,,,right,"[""right""]",[1.2826000001430202],False,,0.0,,0.0,87.0,87.0,87.0,1.0,,,,,
,,,,,,,,,,,,,,,,,,,,,0.05,,,,,,,,,,Stimuli/psy_flexible_rotation_30_objects_occ0.7_0.9s/images/train/n03928116_10/n04256520_4/img_ydp_103_r_2012__vray_club_house_italia_nautilus_sofa_2001_gray.jpg,n03928116_10,n04256520_4,flexible,0.837582,n04256520_4,Stimuli/psy_flexible_rotation_30_objects_occ0.7_0.9s/images/train/n03928116_10/n04256520_4/img_ydp_103_r_2012__vray_club_house_italia_nautilus_sofa_2001-3_gray.png,foreground,same as foreground,n03928116_10,n04379243_0,Stimuli/canonical view 2/img_n03928116_10_gray.jpg,Stimuli/canonical view 2/img_n04379243_0_gray.jpg,random,left,Experiments/experiment_16/352.jpg,Experiments/experiment_16/353.jpg,Experiments/experiment_16/354.jpg,Experiments/experiment_16/355.jpg,976,1,2023-05-26_14h36.31.004,Occlusion_Psychophysics,2022.1.4,Win32,143.9055979,,,right,"[""right""]",[0.8183000001907885],False,,0.0,,0.0,88.0,88.0,88.0,1.0,,,,,
,,,,,,,,,,,,,,,,,,,,,0.05,,,,,,,,,,Stimuli/psy_fixed_rotation_30_objects_occ0.7_0.9s/images/train/n04405907_9/n02883344_0/img_vray_004_b03_box_2002_gray.jpg,n04405907_9,n02883344_0,fixed,0.795474,n02883344_0,Stimuli/psy_fixed_rotation_30_objects_occ0.7_0.9s/images/train/n04405907_9/n02883344_0/img_vray_004_b03_box_2002-3_gray.png,foreground,same as foreground,n04405907_9,n03928116_4,Stimuli/canonical view 2/img_n04405907_9_gray.jpg,Stimuli/canonical view 2/img_n03928116_4_gray.jpg,random,left,Experiments/experiment_16/356.jpg,Experiments/experiment_16/357.jpg,Experiments/experiment_16/358.jpg,Experiments/experiment_16/359.jpg,976,1,2023-05-26_14h36.31.004,Occlusion_Psychophysics,2022.1.4,Win32,143.9055979,,,left,"[""left""]",[0.7019999999999982],False,,0.0,,0.0,89.0,89.0,89.0,1.0,,,,,
,,,,,,,,,,,,,,,,,,,,,0.05,,,,,,,,,,Stimuli/psy_flexible_rotation_30_objects_occ0.7_0.9s/images/train/n02883344_-1/n03928116_4/img_woven_box_dp_33_b_2013__vray_2003_gray.jpg,n02883344_-1,n03928116_4,flexible,0.768819,n04405907_8,Stimuli/psy_fixed_rotation_30_objects_occ0.7_0.9s/images/train/n02933112_4/n04405907_8/img_buffet_stylized_tv_2014-3_gray.png,random,fixed,n02883344_-1,n02828884_4,Stimuli/canonical view 2/img_n02883344_-1_gray.jpg,Stimuli/canonical view 2/img_n02828884_4_gray.jpg,random,left,Experiments/experiment_16/360.jpg,Experiments/experiment_16/361.jpg,Experiments/experiment_16/362.jpg,Experiments/experiment_16/363.jpg,976,1,2023-05-26_14h36.31.004,Occlusion_Psychophysics,2022.1.4,Win32,143.9055979,,,left,"[""left""]",[1.1612000000477565],False,,0.0,,0.0,90.0,90.0,90.0,1.0,,,,,
,,,,,,,,,,,,,,,,,,,,,0.05,,,,,,,,,,Stimuli/psy_fixed_rotation_30_objects_occ0.7_0.9s/images/train/n03928116_10/n03928116_0/img_ydp_103_r_2012__vray_b02_piano_2012_gray.jpg,n03928116_10,n03928116_0,fixed,0.71349,n04405907_8,Stimuli/psy_flexible_rotation_30_objects_occ0.7_0.9s/images/train/n04379243_-7/n04405907_8/img_quatre_dining_table_stylized_tv_2009-3_gray.png,random,flexible,n03928116_10,n03928116_0,Stimuli/canonical view 2/img_n03928116_10_gray.jpg,Stimuli/canonical view 2/img_n03928116_0_gray.jpg,foreground,right,Experiments/experiment_16/364.jpg,Experiments/experiment_16/365.jpg,Experiments/experiment_16/366.jpg,Experiments/experiment_16/367.jpg,976,1,2023-05-26_14h36.31.004,Occlusion_Psychophysics,2022.1.4,Win32,143.9055979,,,right,"[""right""]",[1.651900000095452],False,,0.0,,0.0,91.0,91.0,91.0,1.0,,,,,
,,,,,,,,,,,,,,,,,,,,,0.05,,,,,,,,,,Stimuli/psy_flexible_rotation_30_objects_occ0.7_0.9s/images/train/n04379243_-7/n04379243_0/img_quatre_dining_table_17th_c._monastery_dining_table_2010_2005_gray.jpg,n04379243_-7,n04379243_0,flexible,0.748713,n02828884_3,Stimuli/psy_flexible_rotation_30_objects_occ0.7_0.9s/images/train/n04379243_0/n02828884_3/img_17th_c._monastery_dining_table_2010_b04_wood_metal_park_bench_2008-3_gray.png,random,flexible,n04379243_-7,n04379243_0,Stimuli/canonical view 2/img_n04379243_-7_gray.jpg,Stimuli/canonical view 2/img_n04379243_0_gray.jpg,foreground,left,Experiments/experiment_16/368.jpg,Experiments/experiment_16/369.jpg,Experiments/experiment_16/370.jpg,Experiments/experiment_16/371.jpg,976,1,2023-05-26_14h36.31.004,Occlusion_Psychophysics,2022.1.4,Win32,143.9055979,,,left,"[""left""]",[1.1865999999046153],False,,0.0,,0.0,92.0,92.0,92.0,1.0,,,,,
,,,,,,,,,,,,,,,,,,,,,0.05,,,,,,,,,,Stimuli/psy_flexible_rotation_30_objects_occ0.7_0.9s/images/train/n03001627_9/n02828884_4/img_chair_eames_plastic_armchair_b05_c-5_classic_series_bench-2012_2000_gray.jpg,n03001627_9,n02828884_4,flexible,0.720965,n04256520_4,Stimuli/psy_flexible_rotation_30_objects_occ0.7_0.9s/images/train/n03928116_10/n04256520_4/img_ydp_103_r_2012__vray_club_house_italia_nautilus_sofa_2012-3_gray.png,random,flexible,n03001627_9,n04256520_4,Stimuli/canonical view 2/img_n03001627_9_gray.jpg,Stimuli/canonical view 2/img_n04256520_4_gray.jpg,random,left,Experiments/experiment_16/372.jpg,Experiments/experiment_16/373.jpg,Experiments/experiment_16/374.jpg,Experiments/experiment_16/375.jpg,976,1,2023-05-26_14h36.31.004,Occlusion_Psychophysics,2022.1.4,Win32,143.9055979,,,left,"[""right""]",[1.7019999999999982],True,right,1.0,1.4273,0.0,93.0,93.0,93.0,1.0,,,,,
,,,,,,,,,,,,,,,,,,,,,0.05,,,,,,,,,,Stimuli/psy_flexible_rotation_30_objects_occ0.7_0.9s/images/train/n04379243_-7/n04256520_4/img_quatre_dining_table_club_house_italia_nautilus_sofa_2010_gray.jpg,n04379243_-7,n04256520_4,flexible,0.733497,n02933112_-18,Stimuli/psy_fixed_rotation_30_objects_occ0.7_0.9s/images/train/n02883344_-1/n02933112_-18/img_woven_box_cgaxis_models_48_26_vray_composite_2011-3_gray.png,random,fixed,n04379243_-7,n04379243_0,Stimuli/canonical view 2/img_n04379243_-7_gray.jpg,Stimuli/canonical view 2/img_n04379243_0_gray.jpg,random,right,Experiments/experiment_16/376.jpg,Experiments/experiment_16/377.jpg,Experiments/experiment_16/378.jpg,Experiments/experiment_16/379.jpg,976,1,2023-05-26_14h36.31.004,Occlusion_Psychophysics,2022.1.4,Win32,143.9055979,,,left,"[""left""]",[1.2168999998569916],False,,0.0,,0.0,94.0,94.0,94.0,1.0,,,,,
,,,,,,,,,,,,,,,,,,,,,0.025,,,,,,,,,,Stimuli/psy_fixed_rotation_30_objects_occ0.7_0.9s/images/train/n02818832_0/n02818832_3/img_b03_the_sofa_and_chair_company_-_stanley_bed_2014_b05_ccm_contemporary_bed_max2013_2010_gray.jpg,n02818832_0,n02818832_3,fixed,0.833779,n02818832_3,Stimuli/psy_fixed_rotation_30_objects_occ0.7_0.9s/images/train/n02818832_0/n02818832_3/img_b03_the_sofa_and_chair_company_-_stanley_bed_2014_b05_ccm_contemporary_bed_max2013_2010-3_gray.png,foreground,same as foreground,n02818832_0,n03001627_8,Stimuli/canonical view 2/img_n02818832_0_gray.jpg,Stimuli/canonical view 2/img_n03001627_8_gray.jpg,random,right,Experiments/experiment_16/380.jpg,Experiments/experiment_16/381.jpg,Experiments/experiment_16/382.jpg,Experiments/experiment_16/383.jpg,976,1,2023-05-26_14h36.31.004,Occlusion_Psychophysics,2022.1.4,Win32,143.9055979,,,right,"[""right""]",[0.6105000000000018],False,,0.0,,0.0,95.0,95.0,95.0,1.0,,,,,
,,,,,,,,,,,,,,,,,,,,,0.05,,,,,,,,,,Stimuli/psy_fixed_rotation_30_objects_occ0.7_0.9s/images/train/n04256520_4/n03928116_0/img_club_house_italia_nautilus_sofa_b02_piano_2005_gray.jpg,n04256520_4,n03928116_0,fixed,0.706295,n04379243_-7,Stimuli/psy_flexible_rotation_30_objects_occ0.7_0.9s/images/train/n02818832_3/n04379243_-7/img_b05_ccm_contemporary_bed_max2013_quatre_dining_table_2000-3_gray.png,random,flexible,n04256520_4,n04379243_-7,Stimuli/canonical view 2/img_n04256520_4_gray.jpg,Stimuli/canonical view 2/img_n04379243_-7_gray.jpg,random,left,Experiments/experiment_16/384.jpg,Experiments/experiment_16/385.jpg,Experiments/experiment_16/386.jpg,Experiments/experiment_16/387.jpg,976,1,2023-05-26_14h36.31.004,Occlusion_Psychophysics,2022.1.4,Win32,143.9055979,,,left,"[""left""]",[1.0031000001430357],False,,0.0,,0.0,96.0,96.0,96.0,1.0,,,,,
,,,,,,,,,,,,,,,,,,,,,0.05,,,,,,,,,,Stimuli/psy_flexible_rotation_30_objects_occ0.7_0.9s/images/train/n02883344_-1/n04405907_8/img_woven_box_stylized_tv_2004_gray.jpg,n02883344_-1,n04405907_8,flexible,0.755102,n04405907_8,Stimuli/psy_flexible_rotation_30_objects_occ0.7_0.9s/images/train/n02883344_-1/n04405907_8/img_woven_box_stylized_tv_2004-3_gray.png,foreground,same as foreground,n02883344_-1,n04405907_8,Stimuli/canonical view 2/img_n02883344_-1_gray.jpg,Stimuli/canonical view 2/img_n04405907_8_gray.jpg,foreground,right,Experiments/experiment_16/388.jpg,Experiments/experiment_16/389.jpg,Experiments/experiment_16/390.jpg,Experiments/experiment_16/391.jpg,976,1,2023-05-26_14h36.31.004,Occlusion_Psychophysics,2022.1.4,Win32,143.9055979,,,right,"[""right""]",[0.6359999999999673],False,,0.0,,0.0,97.0,97.0,97.0,1.0,,,,,
,,,,,,,,,,,,,,,,,,,,,0.05,,,,,,,,,,Stimuli/psy_fixed_rotation_30_objects_occ0.7_0.9s/images/train/n04256520_5/n03928116_0/img_meridiani_belmondo_bench_sofa_b02_piano_2007_gray.jpg,n04256520_5,n03928116_0,fixed,0.702937,n03928116_0,Stimuli/psy_fixed_rotation_30_objects_occ0.7_0.9s/images/train/n04256520_5/n03928116_0/img_meridiani_belmondo_bench_sofa_b02_piano_2007-3_gray.png,foreground,same as foreground,n04256520_5,n03928116_0,Stimuli/canonical view 2/img_n04256520_5_gray.jpg,Stimuli/canonical view 2/img_n03928116_0_gray.jpg,foreground,left,Experiments/experiment_16/392.jpg,Experiments/experiment_16/393.jpg,Experiments/experiment_16/394.jpg,Experiments/experiment_16/395.jpg,976,1,2023-05-26_14h36.31.004,Occlusion_Psychophysics,2022.1.4,Win32,143.9055979,,,right,"[""right""]",[0.7019999999999982],False,,0.0,,0.0,98.0,98.0,98.0,1.0,,,,,
,,,,,,,,,,,,,,,,,,,,,0.025,,,,,,,,,,Stimuli/psy_fixed_rotation_30_objects_occ0.7_0.9s/images/train/n02818832_0/n02933112_4/img_b03_the_sofa_and_chair_company_-_stanley_bed_2014_buffet_2014_gray.jpg,n02818832_0,n02933112_4,fixed,0.750544,n02818832_3,Stimuli/psy_flexible_rotation_30_objects_occ0.7_0.9s/images/train/n02883344_-1/n02818832_3/img_woven_box_b05_ccm_contemporary_bed_max2013_2002-3_gray.png,random,flexible,n02818832_0,n04256520_9,Stimuli/canonical view 2/img_n02818832_0_gray.jpg,Stimuli/canonical view 2/img_n04256520_9_gray.jpg,random,right,Experiments/experiment_16/396.jpg,Experiments/experiment_16/397.jpg,Experiments/experiment_16/398.jpg,Experiments/experiment_16/399.jpg,976,1,2023-05-26_14h36.31.004,Occlusion_Psychophysics,2022.1.4,Win32,143.9055979,,,left,"[""left""]",[1.0203000001907867],False,,0.0,,0.0,99.0,99.0,99.0,1.0,,,,,
,,,,,,,,,,,,,,,,,,,,,,,,,,,,,,,,,,,,,,,,,,,,,,,,,,976,1,2023-05-26_14h36.31.004,Occlusion_Psychophysics,2022.1.4,Win32,143.9055979,,,,,,,,,,,,,,,0.0,0.0,0.0,0.0,1.0
,,,,,,,,,,,,,,,,,,,,,0.025,,,,,,,,,,Stimuli/psy_fixed_rotation_30_objects_occ0.7_0.9s/images/train/n02883344_0/n02933112_-18/img_b03_box_cgaxis_models_48_26_vray_composite_2015_gray.jpg,n02883344_0,n02933112_-18,fixed,0.718379,n02933112_4,Stimuli/psy_flexible_rotation_30_objects_occ0.7_0.9s/images/train/n03001627_9/n02933112_4/img_chair_eames_plastic_armchair_buffet_2011-3_gray.png,random,flexible,n02883344_0,n02933112_-18,Stimuli/canonical view 2/img_n02883344_0_gray.jpg,Stimuli/canonical view 2/img_n02933112_-18_gray.jpg,foreground,right,Experiments/experiment_16/400.jpg,Experiments/experiment_16/401.jpg,Experiments/experiment_16/402.jpg,Experiments/experiment_16/403.jpg,976,1,2023-05-26_14h36.31.004,Occlusion_Psychophysics,2022.1.4,Win32,143.9055979,,,left,"[""left""]",[0.5424000000953129],False,,0.0,,0.0,0.0,0.0,0.0,1.0,,,,,
,,,,,,,,,,,,,,,,,,,,,0.05,,,,,,,,,,Stimuli/psy_fixed_rotation_30_objects_occ0.7_0.9s/images/train/n02818832_3/n04405907_8/img_b05_ccm_contemporary_bed_max2013_stylized_tv_2013_gray.jpg,n02818832_3,n04405907_8,fixed,0.777575,n04405907_8,Stimuli/psy_fixed_rotation_30_objects_occ0.7_0.9s/images/train/n02818832_3/n04405907_8/img_b05_ccm_contemporary_bed_max2013_stylized_tv_2013-3_gray.png,foreground,same as foreground,n02818832_3,n03001627_-2,Stimuli/canonical view 2/img_n02818832_3_gray.jpg,Stimuli/canonical view 2/img_n03001627_-2_gray.jpg,random,left,Experiments/experiment_16/404.jpg,Experiments/experiment_16/405.jpg,Experiments/experiment_16/406.jpg,Experiments/experiment_16/407.jpg,976,1,2023-05-26_14h36.31.004,Occlusion_Psychophysics,2022.1.4,Win32,143.9055979,,,left,"[""left""]",[0.6063000001907994],False,,0.0,,0.0,1.0,1.0,1.0,1.0,,,,,
,,,,,,,,,,,,,,,,,,,,,0.05,,,,,,,,,,Stimuli/psy_fixed_rotation_30_objects_occ0.7_0.9s/images/train/n02883344_0/n04256520_4/img_b03_box_club_house_italia_nautilus_sofa_2012_gray.jpg,n02883344_0,n04256520_4,fixed,0.726584,n04256520_4,Stimuli/psy_fixed_rotation_30_objects_occ0.7_0.9s/images/train/n02883344_0/n04256520_4/img_b03_box_club_house_italia_nautilus_sofa_2012-3_gray.png,foreground,same as foreground,n02883344_0,n04256520_4,Stimuli/canonical view 2/img_n02883344_0_gray.jpg,Stimuli/canonical view 2/img_n04256520_4_gray.jpg,foreground,left,Experiments/experiment_16/408.jpg,Experiments/experiment_16/409.jpg,Experiments/experiment_16/410.jpg,Experiments/experiment_16/411.jpg,976,1,2023-05-26_14h36.31.004,Occlusion_Psychophysics,2022.1.4,Win32,143.9055979,,,right,"[""right""]",[0.5648999998569479],False,,0.0,,0.0,2.0,2.0,2.0,1.0,,,,,
,,,,,,,,,,,,,,,,,,,,,0.05,,,,,,,,,,Stimuli/psy_fixed_rotation_30_objects_occ0.7_0.9s/images/train/n04379243_8/n02818832_3/img_glass_table_b05_ccm_contemporary_bed_max2013_2011_gray.jpg,n04379243_8,n02818832_3,fixed,0.752155,n02818832_3,Stimuli/psy_fixed_rotation_30_objects_occ0.7_0.9s/images/train/n04379243_8/n02818832_3/img_glass_table_b05_ccm_contemporary_bed_max2013_2011-3_gray.png,foreground,same as foreground,n04379243_8,n02818832_3,Stimuli/canonical view 2/img_n04379243_8_gray.jpg,Stimuli/canonical view 2/img_n02818832_3_gray.jpg,foreground,left,Experiments/experiment_16/412.jpg,Experiments/experiment_16/413.jpg,Experiments/experiment_16/414.jpg,Experiments/experiment_16/415.jpg,976,1,2023-05-26_14h36.31.004,Occlusion_Psychophysics,2022.1.4,Win32,143.9055979,,,left,"[""left""]",[0.6512999999523572],False,,0.0,,0.0,3.0,3.0,3.0,1.0,,,,,
,,,,,,,,,,,,,,,,,,,,,0.025,,,,,,,,,,Stimuli/psy_fixed_rotation_30_objects_occ0.7_0.9s/images/train/n03928116_0/n04405907_9/img_b02_piano_vray_004_2010_gray.jpg,n03928116_0,n04405907_9,fixed,0.758123,n04405907_9,Stimuli/psy_fixed_rotation_30_objects_occ0.7_0.9s/images/train/n03928116_0/n04405907_9/img_b02_piano_vray_004_2010-3_gray.png,foreground,same as foreground,n03928116_0,n03001627_8,Stimuli/canonical view 2/img_n03928116_0_gray.jpg,Stimuli/canonical view 2/img_n03001627_8_gray.jpg,random,left,Experiments/experiment_16/416.jpg,Experiments/experiment_16/417.jpg,Experiments/experiment_16/418.jpg,Experiments/experiment_16/419.jpg,976,1,2023-05-26_14h36.31.004,Occlusion_Psychophysics,2022.1.4,Win32,143.9055979,,,left,"[""left""]",[0.4962999999522708],False,,0.0,,0.0,4.0,4.0,4.0,1.0,,,,,
,,,,,,,,,,,,,,,,,,,,,0.05,,,,,,,,,,Stimuli/psy_fixed_rotation_30_objects_occ0.7_0.9s/images/train/n04256520_9/n02818832_0/img_napoleon_iii_sofa_b03_the_sofa_and_chair_company_-_stanley_bed_2014_2014_gray.jpg,n04256520_9,n02818832_0,fixed,0.808842,n02818832_0,Stimuli/psy_fixed_rotation_30_objects_occ0.7_0.9s/images/train/n04256520_9/n02818832_0/img_napoleon_iii_sofa_b03_the_sofa_and_chair_company_-_stanley_bed_2014_2014-3_gray.png,foreground,same as foreground,n04256520_9,n02818832_0,Stimuli/canonical view 2/img_n04256520_9_gray.jpg,Stimuli/canonical view 2/img_n02818832_0_gray.jpg,foreground,left,Experiments/experiment_16/420.jpg,Experiments/experiment_16/421.jpg,Experiments/experiment_16/422.jpg,Experiments/experiment_16/423.jpg,976,1,2023-05-26_14h36.31.004,Occlusion_Psychophysics,2022.1.4,Win32,143.9055979,,,right,"[""right""]",[0.68100000000004],False,,0.0,,0.0,5.0,5.0,5.0,1.0,,,,,
,,,,,,,,,,,,,,,,,,,,,0.05,,,,,,,,,,Stimuli/psy_fixed_rotation_30_objects_occ0.7_0.9s/images/train/n02883344_-1/n04256520_5/img_woven_box_meridiani_belmondo_bench_sofa_2010_gray.jpg,n02883344_-1,n04256520_5,fixed,0.764178,n04256520_5,Stimuli/psy_fixed_rotation_30_objects_occ0.7_0.9s/images/train/n02883344_-1/n04256520_5/img_woven_box_meridiani_belmondo_bench_sofa_2010-3_gray.png,foreground,same as foreground,n02883344_-1,n03928116_0,Stimuli/canonical view 2/img_n02883344_-1_gray.jpg,Stimuli/canonical view 2/img_n03928116_0_gray.jpg,random,right,Experiments/experiment_16/424.jpg,Experiments/experiment_16/425.jpg,Experiments/experiment_16/426.jpg,Experiments/experiment_16/427.jpg,976,1,2023-05-26_14h36.31.004,Occlusion_Psychophysics,2022.1.4,Win32,143.9055979,,,left,"[""left""]",[0.7882999999523008],False,,0.0,,0.0,6.0,6.0,6.0,1.0,,,,,
,,,,,,,,,,,,,,,,,,,,,0.025,,,,,,,,,,Stimuli/psy_fixed_rotation_30_objects_occ0.7_0.9s/images/train/n03928116_4/n04256520_9/img_dp_33_b_2013__vray_napoleon_iii_sofa_2014_gray.jpg,n03928116_4,n04256520_9,fixed,0.717042,n02883344_-1,Stimuli/psy_fixed_rotation_30_objects_occ0.7_0.9s/images/train/n02828884_4/n02883344_-1/img_b05_c-5_classic_series_bench-2012_woven_box_2006-3_gray.png,random,fixed,n03928116_4,n04405907_8,Stimuli/canonical view 2/img_n03928116_4_gray.jpg,Stimuli/canonical view 2/img_n04405907_8_gray.jpg,random,left,Experiments/experiment_16/428.jpg,Experiments/experiment_16/429.jpg,Experiments/experiment_16/430.jpg,Experiments/experiment_16/431.jpg,976,1,2023-05-26_14h36.31.004,Occlusion_Psychophysics,2022.1.4,Win32,143.9055979,,,right,"[""left""]",[1.3269999999999982],False,,0.0,,0.0,7.0,7.0,7.0,1.0,,,,,
,,,,,,,,,,,,,,,,,,,,,0.025,,,,,,,,,,Stimuli/psy_fixed_rotation_30_objects_occ0.7_0.9s/images/train/n04405907_5/n02883344_0/img_samsung_40_uhd_smart_tv_2011_b03_box_2002_gray.jpg,n04405907_5,n02883344_0,fixed,0.786521,n04379243_-7,Stimuli/psy_flexible_rotation_30_objects_occ0.7_0.9s/images/train/n02828884_4/n04379243_-7/img_b05_c-5_classic_series_bench-2012_quatre_dining_table_2002-3_gray.png,random,flexible,n04405907_5,n02933112_-18,Stimuli/canonical view 2/img_n04405907_5_gray.jpg,Stimuli/canonical view 2/img_n02933112_-18_gray.jpg,random,left,Experiments/experiment_16/432.jpg,Experiments/experiment_16/433.jpg,Experiments/experiment_16/434.jpg,Experiments/experiment_16/435.jpg,976,1,2023-05-26_14h36.31.004,Occlusion_Psychophysics,2022.1.4,Win32,143.9055979,,,left,"[""left""]",[0.6069000000953793],False,,0.0,,0.0,8.0,8.0,8.0,1.0,,,,,
,,,,,,,,,,,,,,,,,,,,,0.05,,,,,,,,,,Stimuli/psy_fixed_rotation_30_objects_occ0.7_0.9s/images/train/n02883344_-1/n04256520_5/img_woven_box_meridiani_belmondo_bench_sofa_2006_gray.jpg,n02883344_-1,n04256520_5,fixed,0.744952,n04405907_9,Stimuli/psy_flexible_rotation_30_objects_occ0.7_0.9s/images/train/n02933112_-2/n04405907_9/img_sink_base_white_wood_vray_004_2005-3_gray.png,random,flexible,n02883344_-1,n04379243_-7,Stimuli/canonical view 2/img_n02883344_-1_gray.jpg,Stimuli/canonical view 2/img_n04379243_-7_gray.jpg,random,right,Experiments/experiment_16/436.jpg,Experiments/experiment_16/437.jpg,Experiments/experiment_16/438.jpg,Experiments/experiment_16/439.jpg,976,1,2023-05-26_14h36.31.004,Occlusion_Psychophysics,2022.1.4,Win32,143.9055979,,,right,"[""right""]",[0.5196000001429866],False,,0.0,,0.0,9.0,9.0,9.0,1.0,,,,,
,,,,,,,,,,,,,,,,,,,,,0.05,,,,,,,,,,Stimuli/psy_fixed_rotation_30_objects_occ0.7_0.9s/images/train/n02828884_3/n02883344_-1/img_b04_wood_metal_park_bench_woven_box_2011_gray.jpg,n02828884_3,n02883344_-1,fixed,0.856768,n02883344_-1,Stimuli/psy_fixed_rotation_30_objects_occ0.7_0.9s/images/train/n02828884_3/n02883344_-1/img_b04_wood_metal_park_bench_woven_box_2011-3_gray.png,foreground,same as foreground,n02828884_3,n02883344_-1,Stimuli/canonical view 2/img_n02828884_3_gray.jpg,Stimuli/canonical view 2/img_n02883344_-1_gray.jpg,foreground,right,Experiments/experiment_16/440.jpg,Experiments/experiment_16/441.jpg,Experiments/experiment_16/442.jpg,Experiments/experiment_16/443.jpg,976,1,2023-05-26_14h36.31.004,Occlusion_Psychophysics,2022.1.4,Win32,143.9055979,,,right,"[""right""]",[0.6817999999523181],False,,0.0,,0.0,10.0,10.0,10.0,1.0,,,,,
,,,,,,,,,,,,,,,,,,,,,0.05,,,,,,,,,,Stimuli/psy_flexible_rotation_30_objects_occ0.7_0.9s/images/train/n03001627_9/n02883344_-1/img_chair_eames_plastic_armchair_woven_box_2008_gray.jpg,n03001627_9,n02883344_-1,flexible,0.879757,n02883344_-1,Stimuli/psy_flexible_rotation_30_objects_occ0.7_0.9s/images/train/n03001627_9/n02883344_-1/img_chair_eames_plastic_armchair_woven_box_2008-3_gray.png,foreground,same as foreground,n03001627_9,n03928116_10,Stimuli/canonical view 2/img_n03001627_9_gray.jpg,Stimuli/canonical view 2/img_n03928116_10_gray.jpg,random,right,Experiments/experiment_16/444.jpg,Experiments/experiment_16/445.jpg,Experiments/experiment_16/446.jpg,Experiments/experiment_16/447.jpg,976,1,2023-05-26_14h36.31.004,Occlusion_Psychophysics,2022.1.4,Win32,143.9055979,,,right,"[""left""]",[0.6979000000953874],False,,0.0,,0.0,11.0,11.0,11.0,1.0,,,,,
,,,,,,,,,,,,,,,,,,,,,0.025,,,,,,,,,,Stimuli/psy_fixed_rotation_30_objects_occ0.7_0.9s/images/train/n04405907_9/n04256520_5/img_vray_004_meridiani_belmondo_bench_sofa_2015_gray.jpg,n04405907_9,n04256520_5,fixed,0.761307,n03928116_0,Stimuli/psy_flexible_rotation_30_objects_occ0.7_0.9s/images/train/n02818832_3/n03928116_0/img_b05_ccm_contemporary_bed_max2013_b02_piano_2010-3_gray.png,random,flexible,n04405907_9,n04256520_5,Stimuli/canonical view 2/img_n04405907_9_gray.jpg,Stimuli/canonical view 2/img_n04256520_5_gray.jpg,foreground,left,Experiments/experiment_16/448.jpg,Experiments/experiment_16/449.jpg,Experiments/experiment_16/450.jpg,Experiments/experiment_16/451.jpg,976,1,2023-05-26_14h36.31.004,Occlusion_Psychophysics,2022.1.4,Win32,143.9055979,,,left,"[""left""]",[0.6100999999046053],False,,0.0,,0.0,12.0,12.0,12.0,1.0,,,,,
,,,,,,,,,,,,,,,,,,,,,0.025,,,,,,,,,,Stimuli/psy_flexible_rotation_30_objects_occ0.7_0.9s/images/train/n02818832_9/n04379243_0/img_bed01_blue_17th_c._monastery_dining_table_2010_2015_gray.jpg,n02818832_9,n04379243_0,flexible,0.805764,n04379243_0,Stimuli/psy_flexible_rotation_30_objects_occ0.7_0.9s/images/train/n02818832_9/n04379243_0/img_bed01_blue_17th_c._monastery_dining_table_2010_2015-3_gray.png,foreground,same as foreground,n02818832_9,n02883344_0,Stimuli/canonical view 2/img_n02818832_9_gray.jpg,Stimuli/canonical view 2/img_n02883344_0_gray.jpg,random,left,Experiments/experiment_16/452.jpg,Experiments/experiment_16/453.jpg,Experiments/experiment_16/454.jpg,Experiments/experiment_16/455.jpg,976,1,2023-05-26_14h36.31.004,Occlusion_Psychophysics,2022.1.4,Win32,143.9055979,,,left,"[""left""]",[0.820900000095321],False,,0.0,,0.0,13.0,13.0,13.0,1.0,,,,,
