in_color,Instructions_key.keys,Instructions_key.rt,Tutorial_instruction_key.keys,Tutorial_instruction_key.rt,Tutorial_fixation_ley.keys,Tutorial_fixation_ley.rt,Tutorial_single_img_key.keys,Tutorial_single_img_key.rt,Tutorial_intra_trial_fixation_key.keys,Tutorial_intra_trial_fixation_key.rt,Tutorial_stimulus_key.keys,Tutorial_stimulus_key.rt,Tutorial_response_key.keys,Tutorial_response_key.rt,Tutorial_attention_check_key.keys,Tutorial_attention_check_key.rt,advance_or_repeat.keys,advance_or_repeat.rt,End_tutorial.keys,End_tutorial.rt,Tutorial_loop.thisRepN,Tutorial_loop.thisTrialN,Tutorial_loop.thisN,Tutorial_loop.thisIndex,Tutorial_loop.ran,participant,session,date,expName,psychopyVersion,OS,frameRate,Practice_instructions_key.keys,Practice_instructions_key.rt,intra_trial_duration,Practice_key_response.keys,Practice_key_response.rt,Practice_react_key.keys,Practice_react_key.rt,Practice_loop.thisRepN,Practice_loop.thisTrialN,Practice_loop.thisN,Practice_loop.thisIndex,Practice_loop.ran,multi_object_filepath,background_id,foreground_id,multi_object_rotation,occlusion_level,single_object_id,single_object_filepath,single_is_foreground_or_random,single_object_rotation,background_choice_id,alt_choice_id,background_option_filepath,alternative_option_filepath,alternative_is_foreground_or_random,location_of_correct_answer,multi_object_exp_filename,single_object_exp_filename,background_option_exp_filename,alternative_option_exp_filename,Practice_end_key.keys,Practice_end_key.rt,correct_answer,Input_selection.keys,Input_selection.rt,Was_attention_check,Attention_check.keys,Attention_check.corr,Each_session_loop.thisRepN,Each_session_loop.thisTrialN,Each_session_loop.thisN,Each_session_loop.thisIndex,Each_session_loop.ran,Attention_check.rt,Num_sessions.thisRepN,Num_sessions.thisTrialN,Num_sessions.thisN,Num_sessions.thisIndex,Num_sessions.ran
False,space,28.0753,space,2.7405,down,1.1116,down,1.2146,down,0.7853,down,20.6345,down,7.1896,right,1.5004,r,4.5135,down,3.9246,0.0,0.0,0.0,0.0,1.0,985,1,2023-04-17_18h50.51.056,Occlusion_Psychophysics,2022.1.4,Linux x86_64,59.9880024,,,,,,,,,,,,,,,,,,,,,,,,,,,,,,,,,,,,,,,,,,,,,,,,,,
,,,,,,,,,,,,,,,,,,,,,,,,,,985,1,2023-04-17_18h50.51.056,Occlusion_Psychophysics,2022.1.4,Linux x86_64,59.9880024,down,2.118,0.025,left,1.6146,r,4.6828,0.0,0.0,0.0,0.0,1.0,Stimuli/psy_flexible_rotation_30_objects_occ0.7_0.9s/images/train/n03928116_4/n04405907_5/img_dp_33_b_2013__vray_samsung_40_uhd_smart_tv_2011_2015_gray.jpg,n03928116_4,n04405907_5,flexible,0.856802,n04405907_5,Stimuli/psy_flexible_rotation_30_objects_occ0.7_0.9s/images/train/n03928116_4/n04405907_5/img_dp_33_b_2013__vray_samsung_40_uhd_smart_tv_2011_2015-3_gray.png,foreground,same as foreground,n03928116_4,n04405907_5,Stimuli/canonical view 2/img_n03928116_4_gray.jpg,Stimuli/canonical view 2/img_n04405907_5_gray.jpg,foreground,right,Experiments/experiment_17/1000.jpg,Experiments/experiment_17/1001.jpg,Experiments/experiment_17/1002.jpg,Experiments/experiment_17/1003.jpg,,,,,,,,,,,,,,,,,,,
,,,,,,,,,,,,,,,,,,,,,,,,,,985,1,2023-04-17_18h50.51.056,Occlusion_Psychophysics,2022.1.4,Linux x86_64,59.9880024,,,0.025,right,1.3308,r,3.9684,0.0,1.0,1.0,1.0,1.0,Stimuli/psy_fixed_rotation_30_objects_occ0.7_0.9s/images/train/n02883344_15/n02883344_-1/img_microwave_box_woven_box_2006_gray.jpg,n02883344_15,n02883344_-1,fixed,0.762231,n02933112_-2,Stimuli/psy_fixed_rotation_30_objects_occ0.7_0.9s/images/train/n02828884_3/n02933112_-2/img_b04_wood_metal_park_bench_sink_base_white_wood_2004-3_gray.png,random,fixed,n02883344_15,n04379243_0,Stimuli/canonical view 2/img_n02883344_15_gray.jpg,Stimuli/canonical view 2/img_n04379243_0_gray.jpg,random,right,Experiments/experiment_17/1004.jpg,Experiments/experiment_17/1005.jpg,Experiments/experiment_17/1006.jpg,Experiments/experiment_17/1007.jpg,,,,,,,,,,,,,,,,,,,
,,,,,,,,,,,,,,,,,,,,,,,,,,985,1,2023-04-17_18h50.51.056,Occlusion_Psychophysics,2022.1.4,Linux x86_64,59.9880024,,,0.05,left,1.8498,r,3.3178,0.0,2.0,2.0,2.0,1.0,Stimuli/psy_flexible_rotation_30_objects_occ0.7_0.9s/images/train/n02933112_-18/n02818832_9/img_cgaxis_models_48_26_vray_composite_bed01_blue_2015_gray.jpg,n02933112_-18,n02818832_9,flexible,0.792879,n02828884_9,Stimuli/psy_flexible_rotation_30_objects_occ0.7_0.9s/images/train/n02883344_0/n02828884_9/img_b03_box_cr-96_bench_2003-3_gray.png,random,flexible,n02933112_-18,n02818832_9,Stimuli/canonical view 2/img_n02933112_-18_gray.jpg,Stimuli/canonical view 2/img_n02818832_9_gray.jpg,foreground,right,Experiments/experiment_17/1008.jpg,Experiments/experiment_17/1009.jpg,Experiments/experiment_17/1010.jpg,Experiments/experiment_17/1011.jpg,,,,,,,,,,,,,,,,,,,
,,,,,,,,,,,,,,,,,,,,,,,,,,985,1,2023-04-17_18h50.51.056,Occlusion_Psychophysics,2022.1.4,Linux x86_64,59.9880024,,,0.05,left,1.1297,r,1.9807,0.0,3.0,3.0,3.0,1.0,Stimuli/psy_flexible_rotation_30_objects_occ0.7_0.9s/images/train/n04379243_-7/n02883344_15/img_quatre_dining_table_microwave_box_2006_gray.jpg,n04379243_-7,n02883344_15,flexible,0.708006,n02883344_15,Stimuli/psy_flexible_rotation_30_objects_occ0.7_0.9s/images/train/n04379243_-7/n02883344_15/img_quatre_dining_table_microwave_box_2006-3_gray.png,foreground,same as foreground,n04379243_-7,n02883344_15,Stimuli/canonical view 2/img_n04379243_-7_gray.jpg,Stimuli/canonical view 2/img_n02883344_15_gray.jpg,foreground,left,Experiments/experiment_17/1012.jpg,Experiments/experiment_17/1013.jpg,Experiments/experiment_17/1014.jpg,Experiments/experiment_17/1015.jpg,,,,,,,,,,,,,,,,,,,
,,,,,,,,,,,,,,,,,,,,,,,,,,985,1,2023-04-17_18h50.51.056,Occlusion_Psychophysics,2022.1.4,Linux x86_64,59.9880024,,,0.05,right,1.8388,r,1.255,0.0,4.0,4.0,4.0,1.0,Stimuli/psy_flexible_rotation_30_objects_occ0.7_0.9s/images/train/n03001627_8/n03928116_0/img_chair_billiani_doll_b02_piano_2003_gray.jpg,n03001627_8,n03928116_0,flexible,0.716377,n03928116_0,Stimuli/psy_flexible_rotation_30_objects_occ0.7_0.9s/images/train/n03001627_8/n03928116_0/img_chair_billiani_doll_b02_piano_2003-3_gray.png,foreground,same as foreground,n03001627_8,n02883344_-1,Stimuli/canonical view 2/img_n03001627_8_gray.jpg,Stimuli/canonical view 2/img_n02883344_-1_gray.jpg,random,left,Experiments/experiment_17/1016.jpg,Experiments/experiment_17/1017.jpg,Experiments/experiment_17/1018.jpg,Experiments/experiment_17/1019.jpg,,,,,,,,,,,,,,,,,,,
,,,,,,,,,,,,,,,,,,,,,,,,,,985,1,2023-04-17_18h50.51.056,Occlusion_Psychophysics,2022.1.4,Linux x86_64,59.9880024,,,0.05,left,0.8997,r,1.8987,0.0,5.0,5.0,5.0,1.0,Stimuli/psy_fixed_rotation_30_objects_occ0.7_0.9s/images/train/n02883344_0/n03928116_0/img_b03_box_b02_piano_2015_gray.jpg,n02883344_0,n03928116_0,fixed,0.820068,n04405907_5,Stimuli/psy_flexible_rotation_30_objects_occ0.7_0.9s/images/train/n04405907_9/n04405907_5/img_vray_004_samsung_40_uhd_smart_tv_2011_2004-3_gray.png,random,flexible,n02883344_0,n03928116_0,Stimuli/canonical view 2/img_n02883344_0_gray.jpg,Stimuli/canonical view 2/img_n03928116_0_gray.jpg,foreground,right,Experiments/experiment_17/1020.jpg,Experiments/experiment_17/1021.jpg,Experiments/experiment_17/1022.jpg,Experiments/experiment_17/1023.jpg,,,,,,,,,,,,,,,,,,,
,,,,,,,,,,,,,,,,,,,,,,,,,,985,1,2023-04-17_18h50.51.056,Occlusion_Psychophysics,2022.1.4,Linux x86_64,59.9880024,,,0.05,left,1.249,r,1.6148,0.0,6.0,6.0,6.0,1.0,Stimuli/psy_fixed_rotation_30_objects_occ0.7_0.9s/images/train/n04379243_8/n02883344_15/img_glass_table_microwave_box_2011_gray.jpg,n04379243_8,n02883344_15,fixed,0.847062,n04405907_9,Stimuli/psy_flexible_rotation_30_objects_occ0.7_0.9s/images/train/n04256520_9/n04405907_9/img_napoleon_iii_sofa_vray_004_2000-3_gray.png,random,flexible,n04379243_8,n02883344_15,Stimuli/canonical view 2/img_n04379243_8_gray.jpg,Stimuli/canonical view 2/img_n02883344_15_gray.jpg,foreground,left,Experiments/experiment_17/1024.jpg,Experiments/experiment_17/1025.jpg,Experiments/experiment_17/1026.jpg,Experiments/experiment_17/1027.jpg,,,,,,,,,,,,,,,,,,,
,,,,,,,,,,,,,,,,,,,,,,,,,,985,1,2023-04-17_18h50.51.056,Occlusion_Psychophysics,2022.1.4,Linux x86_64,59.9880024,,,0.025,right,1.7028,r,2.0474,0.0,7.0,7.0,7.0,1.0,Stimuli/psy_fixed_rotation_30_objects_occ0.7_0.9s/images/train/n04379243_0/n02818832_9/img_17th_c._monastery_dining_table_2010_bed01_blue_2001_gray.jpg,n04379243_0,n02818832_9,fixed,0.797787,n02818832_9,Stimuli/psy_fixed_rotation_30_objects_occ0.7_0.9s/images/train/n04379243_0/n02818832_9/img_17th_c._monastery_dining_table_2010_bed01_blue_2001-3_gray.png,foreground,same as foreground,n04379243_0,n02818832_9,Stimuli/canonical view 2/img_n04379243_0_gray.jpg,Stimuli/canonical view 2/img_n02818832_9_gray.jpg,foreground,right,Experiments/experiment_17/1028.jpg,Experiments/experiment_17/1029.jpg,Experiments/experiment_17/1030.jpg,Experiments/experiment_17/1031.jpg,,,,,,,,,,,,,,,,,,,
,,,,,,,,,,,,,,,,,,,,,,,,,,985,1,2023-04-17_18h50.51.056,Occlusion_Psychophysics,2022.1.4,Linux x86_64,59.9880024,,,0.05,right,1.531,a,1.6481,0.0,8.0,8.0,8.0,1.0,Stimuli/psy_fixed_rotation_30_objects_occ0.7_0.9s/images/train/n02818832_9/n02818832_0/img_bed01_blue_b03_the_sofa_and_chair_company_-_stanley_bed_2014_2010_gray.jpg,n02818832_9,n02818832_0,fixed,0.709601,n02818832_0,Stimuli/psy_fixed_rotation_30_objects_occ0.7_0.9s/images/train/n02818832_9/n02818832_0/img_bed01_blue_b03_the_sofa_and_chair_company_-_stanley_bed_2014_2010-3_gray.png,foreground,same as foreground,n02818832_9,n02818832_0,Stimuli/canonical view 2/img_n02818832_9_gray.jpg,Stimuli/canonical view 2/img_n02818832_0_gray.jpg,foreground,right,Experiments/experiment_17/1032.jpg,Experiments/experiment_17/1033.jpg,Experiments/experiment_17/1034.jpg,Experiments/experiment_17/1035.jpg,,,,,,,,,,,,,,,,,,,
,,,,,,,,,,,,,,,,,,,,,,,,,,985,1,2023-04-17_18h50.51.056,Occlusion_Psychophysics,2022.1.4,Linux x86_64,59.9880024,,,0.025,,,,,,,,,,Stimuli/psy_fixed_rotation_30_objects_occ0.7_0.9s/images/train/n04405907_8/n04379243_0/img_stylized_tv_17th_c._monastery_dining_table_2010_2000_gray.jpg,n04405907_8,n04379243_0,fixed,0.705989,n03928116_10,Stimuli/psy_fixed_rotation_30_objects_occ0.7_0.9s/images/train/n04379243_0/n03928116_10/img_17th_c._monastery_dining_table_2010_ydp_103_r_2012__vray_2006-3_gray.png,random,fixed,n04405907_8,n04379243_0,Stimuli/canonical view 2/img_n04405907_8_gray.jpg,Stimuli/canonical view 2/img_n04379243_0_gray.jpg,foreground,left,Experiments/experiment_17/0.jpg,Experiments/experiment_17/1.jpg,Experiments/experiment_17/2.jpg,Experiments/experiment_17/3.jpg,down,2.1653,right,"[""left""]",[0.8117999997139123],False,,0.0,0.0,0.0,0.0,0.0,1.0,,,,,,
,,,,,,,,,,,,,,,,,,,,,,,,,,985,1,2023-04-17_18h50.51.056,Occlusion_Psychophysics,2022.1.4,Linux x86_64,59.9880024,,,0.025,,,,,,,,,,Stimuli/psy_fixed_rotation_30_objects_occ0.7_0.9s/images/train/n04379243_-7/n04405907_9/img_quatre_dining_table_vray_004_2010_gray.jpg,n04379243_-7,n04405907_9,fixed,0.70722,n04256520_4,Stimuli/psy_fixed_rotation_30_objects_occ0.7_0.9s/images/train/n04256520_5/n04256520_4/img_meridiani_belmondo_bench_sofa_club_house_italia_nautilus_sofa_2012-3_gray.png,random,fixed,n04379243_-7,n04405907_9,Stimuli/canonical view 2/img_n04379243_-7_gray.jpg,Stimuli/canonical view 2/img_n04405907_9_gray.jpg,foreground,right,Experiments/experiment_17/4.jpg,Experiments/experiment_17/5.jpg,Experiments/experiment_17/6.jpg,Experiments/experiment_17/7.jpg,,,right,"[""left""]",[0.8075999999045962],False,,0.0,0.0,1.0,1.0,1.0,1.0,,,,,,
,,,,,,,,,,,,,,,,,,,,,,,,,,985,1,2023-04-17_18h50.51.056,Occlusion_Psychophysics,2022.1.4,Linux x86_64,59.9880024,,,0.025,,,,,,,,,,Stimuli/psy_flexible_rotation_30_objects_occ0.7_0.9s/images/train/n03928116_4/n02818832_3/img_dp_33_b_2013__vray_b05_ccm_contemporary_bed_max2013_2013_gray.jpg,n03928116_4,n02818832_3,flexible,0.737799,n03928116_0,Stimuli/psy_fixed_rotation_30_objects_occ0.7_0.9s/images/train/n02933112_4/n03928116_0/img_buffet_b02_piano_2008-3_gray.png,random,fixed,n03928116_4,n02818832_3,Stimuli/canonical view 2/img_n03928116_4_gray.jpg,Stimuli/canonical view 2/img_n02818832_3_gray.jpg,foreground,right,Experiments/experiment_17/8.jpg,Experiments/experiment_17/9.jpg,Experiments/experiment_17/10.jpg,Experiments/experiment_17/11.jpg,,,right,"[""left""]",[0.7903000001907685],False,,0.0,0.0,2.0,2.0,2.0,1.0,,,,,,
,,,,,,,,,,,,,,,,,,,,,,,,,,985,1,2023-04-17_18h50.51.056,Occlusion_Psychophysics,2022.1.4,Linux x86_64,59.9880024,,,0.05,,,,,,,,,,Stimuli/psy_fixed_rotation_30_objects_occ0.7_0.9s/images/train/n04256520_5/n02828884_3/img_meridiani_belmondo_bench_sofa_b04_wood_metal_park_bench_2002_gray.jpg,n04256520_5,n02828884_3,fixed,0.810744,n02828884_3,Stimuli/psy_fixed_rotation_30_objects_occ0.7_0.9s/images/train/n04256520_5/n02828884_3/img_meridiani_belmondo_bench_sofa_b04_wood_metal_park_bench_2002-3_gray.png,foreground,same as foreground,n04256520_5,n02818832_0,Stimuli/canonical view 2/img_n04256520_5_gray.jpg,Stimuli/canonical view 2/img_n02818832_0_gray.jpg,random,right,Experiments/experiment_17/12.jpg,Experiments/experiment_17/13.jpg,Experiments/experiment_17/14.jpg,Experiments/experiment_17/15.jpg,,,left,"[""left""]",[1.7795999999046899],False,,0.0,0.0,3.0,3.0,3.0,1.0,,,,,,
,,,,,,,,,,,,,,,,,,,,,,,,,,985,1,2023-04-17_18h50.51.056,Occlusion_Psychophysics,2022.1.4,Linux x86_64,59.9880024,,,0.05,,,,,,,,,,Stimuli/psy_fixed_rotation_30_objects_occ0.7_0.9s/images/train/n04256520_9/n04379243_0/img_napoleon_iii_sofa_17th_c._monastery_dining_table_2010_2010_gray.jpg,n04256520_9,n04379243_0,fixed,0.818997,n04405907_8,Stimuli/psy_flexible_rotation_30_objects_occ0.7_0.9s/images/train/n02818832_3/n04405907_8/img_b05_ccm_contemporary_bed_max2013_stylized_tv_2000-3_gray.png,random,flexible,n04256520_9,n03928116_0,Stimuli/canonical view 2/img_n04256520_9_gray.jpg,Stimuli/canonical view 2/img_n03928116_0_gray.jpg,random,left,Experiments/experiment_17/16.jpg,Experiments/experiment_17/17.jpg,Experiments/experiment_17/18.jpg,Experiments/experiment_17/19.jpg,,,left,"[""right""]",[1.9273999996185012],False,,0.0,0.0,4.0,4.0,4.0,1.0,,,,,,
,,,,,,,,,,,,,,,,,,,,,,,,,,985,1,2023-04-17_18h50.51.056,Occlusion_Psychophysics,2022.1.4,Linux x86_64,59.9880024,,,0.025,,,,,,,,,,Stimuli/psy_flexible_rotation_30_objects_occ0.7_0.9s/images/train/n03001627_8/n04405907_8/img_chair_billiani_doll_stylized_tv_2015_gray.jpg,n03001627_8,n04405907_8,flexible,0.714106,n04405907_8,Stimuli/psy_flexible_rotation_30_objects_occ0.7_0.9s/images/train/n03001627_8/n04405907_8/img_chair_billiani_doll_stylized_tv_2015-3_gray.png,foreground,same as foreground,n03001627_8,n03928116_0,Stimuli/canonical view 2/img_n03001627_8_gray.jpg,Stimuli/canonical view 2/img_n03928116_0_gray.jpg,random,left,Experiments/experiment_17/20.jpg,Experiments/experiment_17/21.jpg,Experiments/experiment_17/22.jpg,Experiments/experiment_17/23.jpg,,,right,"[""right""]",[0.9139999999999873],False,,0.0,0.0,5.0,5.0,5.0,1.0,,,,,,
,,,,,,,,,,,,,,,,,,,,,,,,,,985,1,2023-04-17_18h50.51.056,Occlusion_Psychophysics,2022.1.4,Linux x86_64,59.9880024,,,0.025,,,,,,,,,,Stimuli/psy_fixed_rotation_30_objects_occ0.7_0.9s/images/train/n03928116_4/n02933112_4/img_dp_33_b_2013__vray_buffet_2003_gray.jpg,n03928116_4,n02933112_4,fixed,0.724645,n03928116_0,Stimuli/psy_flexible_rotation_30_objects_occ0.7_0.9s/images/train/n02818832_9/n03928116_0/img_bed01_blue_b02_piano_2007-3_gray.png,random,flexible,n03928116_4,n02828884_3,Stimuli/canonical view 2/img_n03928116_4_gray.jpg,Stimuli/canonical view 2/img_n02828884_3_gray.jpg,random,right,Experiments/experiment_17/24.jpg,Experiments/experiment_17/25.jpg,Experiments/experiment_17/26.jpg,Experiments/experiment_17/27.jpg,,,left,"[""left""]",[2.1578000001907185],False,,0.0,0.0,6.0,6.0,6.0,1.0,,,,,,
,,,,,,,,,,,,,,,,,,,,,,,,,,985,1,2023-04-17_18h50.51.056,Occlusion_Psychophysics,2022.1.4,Linux x86_64,59.9880024,,,0.025,,,,,,,,,,Stimuli/psy_flexible_rotation_30_objects_occ0.7_0.9s/images/train/n04256520_9/n02818832_9/img_napoleon_iii_sofa_bed01_blue_2002_gray.jpg,n04256520_9,n02818832_9,flexible,0.765333,n02818832_9,Stimuli/psy_flexible_rotation_30_objects_occ0.7_0.9s/images/train/n04256520_9/n02818832_9/img_napoleon_iii_sofa_bed01_blue_2002-3_gray.png,foreground,same as foreground,n04256520_9,n02818832_9,Stimuli/canonical view 2/img_n04256520_9_gray.jpg,Stimuli/canonical view 2/img_n02818832_9_gray.jpg,foreground,left,Experiments/experiment_17/28.jpg,Experiments/experiment_17/29.jpg,Experiments/experiment_17/30.jpg,Experiments/experiment_17/31.jpg,,,right,"[""left""]",[1.5021999998092497],False,,0.0,0.0,7.0,7.0,7.0,1.0,,,,,,
,,,,,,,,,,,,,,,,,,,,,,,,,,985,1,2023-04-17_18h50.51.056,Occlusion_Psychophysics,2022.1.4,Linux x86_64,59.9880024,,,0.05,,,,,,,,,,Stimuli/psy_fixed_rotation_30_objects_occ0.7_0.9s/images/train/n04379243_8/n03928116_4/img_glass_table_dp_33_b_2013__vray_2009_gray.jpg,n04379243_8,n03928116_4,fixed,0.719268,n04256520_9,Stimuli/psy_flexible_rotation_30_objects_occ0.7_0.9s/images/train/n02818832_0/n04256520_9/img_b03_the_sofa_and_chair_company_-_stanley_bed_2014_napoleon_iii_sofa_2014-3_gray.png,random,flexible,n04379243_8,n03928116_4,Stimuli/canonical view 2/img_n04379243_8_gray.jpg,Stimuli/canonical view 2/img_n03928116_4_gray.jpg,foreground,left,Experiments/experiment_17/32.jpg,Experiments/experiment_17/33.jpg,Experiments/experiment_17/34.jpg,Experiments/experiment_17/35.jpg,,,right,"[""right""]",[0.6808999996185321],False,,0.0,0.0,8.0,8.0,8.0,1.0,,,,,,
,,,,,,,,,,,,,,,,,,,,,,,,,,985,1,2023-04-17_18h50.51.056,Occlusion_Psychophysics,2022.1.4,Linux x86_64,59.9880024,,,0.025,,,,,,,,,,Stimuli/psy_fixed_rotation_30_objects_occ0.7_0.9s/images/train/n02883344_15/n04379243_-7/img_microwave_box_quatre_dining_table_2001_gray.jpg,n02883344_15,n04379243_-7,fixed,0.849605,n04379243_-7,Stimuli/psy_fixed_rotation_30_objects_occ0.7_0.9s/images/train/n02883344_15/n04379243_-7/img_microwave_box_quatre_dining_table_2001-3_gray.png,foreground,same as foreground,n02883344_15,n04379243_-7,Stimuli/canonical view 2/img_n02883344_15_gray.jpg,Stimuli/canonical view 2/img_n04379243_-7_gray.jpg,foreground,left,Experiments/experiment_17/36.jpg,Experiments/experiment_17/37.jpg,Experiments/experiment_17/38.jpg,Experiments/experiment_17/39.jpg,,,right,"[""left""]",[0.8234000000953756],False,,0.0,0.0,9.0,9.0,9.0,1.0,,,,,,
,,,,,,,,,,,,,,,,,,,,,,,,,,985,1,2023-04-17_18h50.51.056,Occlusion_Psychophysics,2022.1.4,Linux x86_64,59.9880024,,,0.05,,,,,,,,,,Stimuli/psy_flexible_rotation_30_objects_occ0.7_0.9s/images/train/n04256520_5/n04405907_8/img_meridiani_belmondo_bench_sofa_stylized_tv_2004_gray.jpg,n04256520_5,n04405907_8,flexible,0.701902,n04405907_8,Stimuli/psy_flexible_rotation_30_objects_occ0.7_0.9s/images/train/n04256520_5/n04405907_8/img_meridiani_belmondo_bench_sofa_stylized_tv_2004-3_gray.png,foreground,same as foreground,n04256520_5,n04379243_8,Stimuli/canonical view 2/img_n04256520_5_gray.jpg,Stimuli/canonical view 2/img_n04379243_8_gray.jpg,random,left,Experiments/experiment_17/40.jpg,Experiments/experiment_17/41.jpg,Experiments/experiment_17/42.jpg,Experiments/experiment_17/43.jpg,,,left,"[""left""]",[2.0788000001907676],False,,0.0,0.0,10.0,10.0,10.0,1.0,,,,,,
,,,,,,,,,,,,,,,,,,,,,,,,,,985,1,2023-04-17_18h50.51.056,Occlusion_Psychophysics,2022.1.4,Linux x86_64,59.9880024,,,0.025,,,,,,,,,,Stimuli/psy_fixed_rotation_30_objects_occ0.7_0.9s/images/train/n04405907_9/n04256520_5/img_vray_004_meridiani_belmondo_bench_sofa_2007_gray.jpg,n04405907_9,n04256520_5,fixed,0.781073,n04256520_5,Stimuli/psy_fixed_rotation_30_objects_occ0.7_0.9s/images/train/n04405907_9/n04256520_5/img_vray_004_meridiani_belmondo_bench_sofa_2007-3_gray.png,foreground,same as foreground,n04405907_9,n04256520_5,Stimuli/canonical view 2/img_n04405907_9_gray.jpg,Stimuli/canonical view 2/img_n04256520_5_gray.jpg,foreground,left,Experiments/experiment_17/44.jpg,Experiments/experiment_17/45.jpg,Experiments/experiment_17/46.jpg,Experiments/experiment_17/47.jpg,,,right,"[""left""]",[1.0565000000000282],False,,0.0,0.0,11.0,11.0,11.0,1.0,,,,,,
,,,,,,,,,,,,,,,,,,,,,,,,,,985,1,2023-04-17_18h50.51.056,Occlusion_Psychophysics,2022.1.4,Linux x86_64,59.9880024,,,0.05,,,,,,,,,,Stimuli/psy_flexible_rotation_30_objects_occ0.7_0.9s/images/train/n04256520_5/n04405907_9/img_meridiani_belmondo_bench_sofa_vray_004_2002_gray.jpg,n04256520_5,n04405907_9,flexible,0.701762,n04256520_5,Stimuli/psy_flexible_rotation_30_objects_occ0.7_0.9s/images/train/n02883344_-1/n04256520_5/img_woven_box_meridiani_belmondo_bench_sofa_2008-3_gray.png,random,flexible,n04256520_5,n04405907_9,Stimuli/canonical view 2/img_n04256520_5_gray.jpg,Stimuli/canonical view 2/img_n04405907_9_gray.jpg,foreground,left,Experiments/experiment_17/48.jpg,Experiments/experiment_17/49.jpg,Experiments/experiment_17/50.jpg,Experiments/experiment_17/51.jpg,,,left,"[""left""]",[1.5919999999999845],False,,0.0,0.0,12.0,12.0,12.0,1.0,,,,,,
,,,,,,,,,,,,,,,,,,,,,,,,,,985,1,2023-04-17_18h50.51.056,Occlusion_Psychophysics,2022.1.4,Linux x86_64,59.9880024,,,0.05,,,,,,,,,,Stimuli/psy_fixed_rotation_30_objects_occ0.7_0.9s/images/train/n02933112_4/n03928116_0/img_buffet_b02_piano_2004_gray.jpg,n02933112_4,n03928116_0,fixed,0.72255,n03928116_10,Stimuli/psy_flexible_rotation_30_objects_occ0.7_0.9s/images/train/n03001627_9/n03928116_10/img_chair_eames_plastic_armchair_ydp_103_r_2012__vray_2006-3_gray.png,random,flexible,n02933112_4,n03928116_0,Stimuli/canonical view 2/img_n02933112_4_gray.jpg,Stimuli/canonical view 2/img_n03928116_0_gray.jpg,foreground,left,Experiments/experiment_17/52.jpg,Experiments/experiment_17/53.jpg,Experiments/experiment_17/54.jpg,Experiments/experiment_17/55.jpg,,,right,"[""right""]",[1.0824999999999818],False,,0.0,0.0,13.0,13.0,13.0,1.0,,,,,,
,,,,,,,,,,,,,,,,,,,,,,,,,,985,1,2023-04-17_18h50.51.056,Occlusion_Psychophysics,2022.1.4,Linux x86_64,59.9880024,,,0.05,,,,,,,,,,Stimuli/psy_fixed_rotation_30_objects_occ0.7_0.9s/images/train/n04256520_5/n04379243_8/img_meridiani_belmondo_bench_sofa_glass_table_2013_gray.jpg,n04256520_5,n04379243_8,fixed,0.717438,n04379243_-7,Stimuli/psy_flexible_rotation_30_objects_occ0.7_0.9s/images/train/n02818832_9/n04379243_-7/img_bed01_blue_quatre_dining_table_2015-3_gray.png,random,flexible,n04256520_5,n04379243_8,Stimuli/canonical view 2/img_n04256520_5_gray.jpg,Stimuli/canonical view 2/img_n04379243_8_gray.jpg,foreground,right,Experiments/experiment_17/56.jpg,Experiments/experiment_17/57.jpg,Experiments/experiment_17/58.jpg,Experiments/experiment_17/59.jpg,,,right,"[""right""]",[1.5934000000953574],False,,0.0,0.0,14.0,14.0,14.0,1.0,,,,,,
,,,,,,,,,,,,,,,,,,,,,,,,,,985,1,2023-04-17_18h50.51.056,Occlusion_Psychophysics,2022.1.4,Linux x86_64,59.9880024,,,0.05,,,,,,,,,,Stimuli/psy_fixed_rotation_30_objects_occ0.7_0.9s/images/train/n02883344_15/n03928116_0/img_microwave_box_b02_piano_2011_gray.jpg,n02883344_15,n03928116_0,fixed,0.740041,n03928116_0,Stimuli/psy_fixed_rotation_30_objects_occ0.7_0.9s/images/train/n02883344_15/n03928116_0/img_microwave_box_b02_piano_2011-3_gray.png,foreground,same as foreground,n02883344_15,n04405907_5,Stimuli/canonical view 2/img_n02883344_15_gray.jpg,Stimuli/canonical view 2/img_n04405907_5_gray.jpg,random,left,Experiments/experiment_17/60.jpg,Experiments/experiment_17/61.jpg,Experiments/experiment_17/62.jpg,Experiments/experiment_17/63.jpg,,,left,"[""left""]",[1.789900000095372],False,,0.0,0.0,15.0,15.0,15.0,1.0,,,,,,
,,,,,,,,,,,,,,,,,,,,,,,,,,985,1,2023-04-17_18h50.51.056,Occlusion_Psychophysics,2022.1.4,Linux x86_64,59.9880024,,,0.025,,,,,,,,,,Stimuli/psy_fixed_rotation_30_objects_occ0.7_0.9s/images/train/n02828884_3/n02883344_-1/img_b04_wood_metal_park_bench_woven_box_2014_gray.jpg,n02828884_3,n02883344_-1,fixed,0.725546,n02883344_-1,Stimuli/psy_fixed_rotation_30_objects_occ0.7_0.9s/images/train/n02828884_3/n02883344_-1/img_b04_wood_metal_park_bench_woven_box_2014-3_gray.png,foreground,same as foreground,n02828884_3,n02818832_0,Stimuli/canonical view 2/img_n02828884_3_gray.jpg,Stimuli/canonical view 2/img_n02818832_0_gray.jpg,random,right,Experiments/experiment_17/64.jpg,Experiments/experiment_17/65.jpg,Experiments/experiment_17/66.jpg,Experiments/experiment_17/67.jpg,,,right,"[""right""]",[2.9405999999046344],True,left,1.0,0.0,16.0,16.0,16.0,1.0,1.0469,,,,,
,,,,,,,,,,,,,,,,,,,,,,,,,,985,1,2023-04-17_18h50.51.056,Occlusion_Psychophysics,2022.1.4,Linux x86_64,59.9880024,,,0.025,,,,,,,,,,Stimuli/psy_flexible_rotation_30_objects_occ0.7_0.9s/images/train/n04379243_0/n02818832_9/img_17th_c._monastery_dining_table_2010_bed01_blue_2000_gray.jpg,n04379243_0,n02818832_9,flexible,0.742142,n04405907_5,Stimuli/psy_fixed_rotation_30_objects_occ0.7_0.9s/images/train/n04379243_0/n04405907_5/img_17th_c._monastery_dining_table_2010_samsung_40_uhd_smart_tv_2011_2009-3_gray.png,random,fixed,n04379243_0,n02818832_9,Stimuli/canonical view 2/img_n04379243_0_gray.jpg,Stimuli/canonical view 2/img_n02818832_9_gray.jpg,foreground,left,Experiments/experiment_17/68.jpg,Experiments/experiment_17/69.jpg,Experiments/experiment_17/70.jpg,Experiments/experiment_17/71.jpg,,,left,"[""right""]",[0.8216999998093115],False,,0.0,0.0,17.0,17.0,17.0,1.0,,,,,,
,,,,,,,,,,,,,,,,,,,,,,,,,,985,1,2023-04-17_18h50.51.056,Occlusion_Psychophysics,2022.1.4,Linux x86_64,59.9880024,,,0.05,,,,,,,,,,Stimuli/psy_fixed_rotation_30_objects_occ0.7_0.9s/images/train/n02883344_0/n02883344_15/img_b03_box_microwave_box_2011_gray.jpg,n02883344_0,n02883344_15,fixed,0.729334,n02883344_15,Stimuli/psy_fixed_rotation_30_objects_occ0.7_0.9s/images/train/n02883344_0/n02883344_15/img_b03_box_microwave_box_2011-3_gray.png,foreground,same as foreground,n02883344_0,n02883344_15,Stimuli/canonical view 2/img_n02883344_0_gray.jpg,Stimuli/canonical view 2/img_n02883344_15_gray.jpg,foreground,left,Experiments/experiment_17/72.jpg,Experiments/experiment_17/73.jpg,Experiments/experiment_17/74.jpg,Experiments/experiment_17/75.jpg,,,right,"[""left""]",[1.7636000003815298],False,,0.0,0.0,18.0,18.0,18.0,1.0,,,,,,
,,,,,,,,,,,,,,,,,,,,,,,,,,985,1,2023-04-17_18h50.51.056,Occlusion_Psychophysics,2022.1.4,Linux x86_64,59.9880024,,,0.025,,,,,,,,,,Stimuli/psy_fixed_rotation_30_objects_occ0.7_0.9s/images/train/n02883344_15/n04405907_8/img_microwave_box_stylized_tv_2013_gray.jpg,n02883344_15,n04405907_8,fixed,0.700989,n04405907_8,Stimuli/psy_fixed_rotation_30_objects_occ0.7_0.9s/images/train/n02883344_15/n04405907_8/img_microwave_box_stylized_tv_2013-3_gray.png,foreground,same as foreground,n02883344_15,n04256520_5,Stimuli/canonical view 2/img_n02883344_15_gray.jpg,Stimuli/canonical view 2/img_n04256520_5_gray.jpg,random,right,Experiments/experiment_17/76.jpg,Experiments/experiment_17/77.jpg,Experiments/experiment_17/78.jpg,Experiments/experiment_17/79.jpg,,,left,"[""left""]",[1.2033000001907794],False,,0.0,0.0,19.0,19.0,19.0,1.0,,,,,,
,,,,,,,,,,,,,,,,,,,,,,,,,,985,1,2023-04-17_18h50.51.056,Occlusion_Psychophysics,2022.1.4,Linux x86_64,59.9880024,,,0.025,,,,,,,,,,Stimuli/psy_flexible_rotation_30_objects_occ0.7_0.9s/images/train/n02818832_9/n03928116_0/img_bed01_blue_b02_piano_2003_gray.jpg,n02818832_9,n03928116_0,flexible,0.700888,n03928116_0,Stimuli/psy_flexible_rotation_30_objects_occ0.7_0.9s/images/train/n02818832_9/n03928116_0/img_bed01_blue_b02_piano_2003-3_gray.png,foreground,same as foreground,n02818832_9,n03928116_0,Stimuli/canonical view 2/img_n02818832_9_gray.jpg,Stimuli/canonical view 2/img_n03928116_0_gray.jpg,foreground,left,Experiments/experiment_17/80.jpg,Experiments/experiment_17/81.jpg,Experiments/experiment_17/82.jpg,Experiments/experiment_17/83.jpg,,,left,"[""right""]",[0.9239999999999782],False,,0.0,0.0,20.0,20.0,20.0,1.0,,,,,,
,,,,,,,,,,,,,,,,,,,,,,,,,,985,1,2023-04-17_18h50.51.056,Occlusion_Psychophysics,2022.1.4,Linux x86_64,59.9880024,,,0.025,,,,,,,,,,Stimuli/psy_fixed_rotation_30_objects_occ0.7_0.9s/images/train/n02818832_3/n04379243_0/img_b05_ccm_contemporary_bed_max2013_17th_c._monastery_dining_table_2010_2010_gray.jpg,n02818832_3,n04379243_0,fixed,0.841883,n04379243_0,Stimuli/psy_fixed_rotation_30_objects_occ0.7_0.9s/images/train/n02818832_3/n04379243_0/img_b05_ccm_contemporary_bed_max2013_17th_c._monastery_dining_table_2010_2010-3_gray.png,foreground,same as foreground,n02818832_3,n02828884_3,Stimuli/canonical view 2/img_n02818832_3_gray.jpg,Stimuli/canonical view 2/img_n02828884_3_gray.jpg,random,right,Experiments/experiment_17/84.jpg,Experiments/experiment_17/85.jpg,Experiments/experiment_17/86.jpg,Experiments/experiment_17/87.jpg,,,right,"[""right""]",[1.645100000381376],False,,0.0,0.0,21.0,21.0,21.0,1.0,,,,,,
,,,,,,,,,,,,,,,,,,,,,,,,,,985,1,2023-04-17_18h50.51.056,Occlusion_Psychophysics,2022.1.4,Linux x86_64,59.9880024,,,0.05,,,,,,,,,,Stimuli/psy_fixed_rotation_30_objects_occ0.7_0.9s/images/train/n03928116_0/n04379243_-7/img_b02_piano_quatre_dining_table_2010_gray.jpg,n03928116_0,n04379243_-7,fixed,0.804459,n02883344_0,Stimuli/psy_fixed_rotation_30_objects_occ0.7_0.9s/images/train/n04256520_9/n02883344_0/img_napoleon_iii_sofa_b03_box_2009-3_gray.png,random,fixed,n03928116_0,n02818832_9,Stimuli/canonical view 2/img_n03928116_0_gray.jpg,Stimuli/canonical view 2/img_n02818832_9_gray.jpg,random,left,Experiments/experiment_17/88.jpg,Experiments/experiment_17/89.jpg,Experiments/experiment_17/90.jpg,Experiments/experiment_17/91.jpg,,,left,"[""right""]",[1.7749999999999773],False,,0.0,0.0,22.0,22.0,22.0,1.0,,,,,,
,,,,,,,,,,,,,,,,,,,,,,,,,,985,1,2023-04-17_18h50.51.056,Occlusion_Psychophysics,2022.1.4,Linux x86_64,59.9880024,,,0.025,,,,,,,,,,Stimuli/psy_flexible_rotation_30_objects_occ0.7_0.9s/images/train/n04256520_9/n04405907_8/img_napoleon_iii_sofa_stylized_tv_2009_gray.jpg,n04256520_9,n04405907_8,flexible,0.739971,n02883344_15,Stimuli/psy_flexible_rotation_30_objects_occ0.7_0.9s/images/train/n03928116_0/n02883344_15/img_b02_piano_microwave_box_2011-3_gray.png,random,flexible,n04256520_9,n04405907_9,Stimuli/canonical view 2/img_n04256520_9_gray.jpg,Stimuli/canonical view 2/img_n04405907_9_gray.jpg,random,left,Experiments/experiment_17/92.jpg,Experiments/experiment_17/93.jpg,Experiments/experiment_17/94.jpg,Experiments/experiment_17/95.jpg,,,left,"[""left""]",[1.0964000000954002],False,,0.0,0.0,23.0,23.0,23.0,1.0,,,,,,
,,,,,,,,,,,,,,,,,,,,,,,,,,985,1,2023-04-17_18h50.51.056,Occlusion_Psychophysics,2022.1.4,Linux x86_64,59.9880024,,,0.025,,,,,,,,,,Stimuli/psy_flexible_rotation_30_objects_occ0.7_0.9s/images/train/n02828884_3/n02933112_-18/img_b04_wood_metal_park_bench_cgaxis_models_48_26_vray_composite_2011_gray.jpg,n02828884_3,n02933112_-18,flexible,0.733416,n02933112_-18,Stimuli/psy_flexible_rotation_30_objects_occ0.7_0.9s/images/train/n02828884_3/n02933112_-18/img_b04_wood_metal_park_bench_cgaxis_models_48_26_vray_composite_2011-3_gray.png,foreground,same as foreground,n02828884_3,n02933112_-18,Stimuli/canonical view 2/img_n02828884_3_gray.jpg,Stimuli/canonical view 2/img_n02933112_-18_gray.jpg,foreground,right,Experiments/experiment_17/96.jpg,Experiments/experiment_17/97.jpg,Experiments/experiment_17/98.jpg,Experiments/experiment_17/99.jpg,,,left,"[""left""]",[0.8102000002861587],False,,0.0,0.0,24.0,24.0,24.0,1.0,,,,,,
,,,,,,,,,,,,,,,,,,,,,,,,,,985,1,2023-04-17_18h50.51.056,Occlusion_Psychophysics,2022.1.4,Linux x86_64,59.9880024,,,0.025,,,,,,,,,,Stimuli/psy_flexible_rotation_30_objects_occ0.7_0.9s/images/train/n03928116_0/n03001627_9/img_b02_piano_chair_eames_plastic_armchair_2013_gray.jpg,n03928116_0,n03001627_9,flexible,0.804031,n03001627_9,Stimuli/psy_flexible_rotation_30_objects_occ0.7_0.9s/images/train/n03928116_0/n03001627_9/img_b02_piano_chair_eames_plastic_armchair_2013-3_gray.png,foreground,same as foreground,n03928116_0,n02818832_3,Stimuli/canonical view 2/img_n03928116_0_gray.jpg,Stimuli/canonical view 2/img_n02818832_3_gray.jpg,random,right,Experiments/experiment_17/100.jpg,Experiments/experiment_17/101.jpg,Experiments/experiment_17/102.jpg,Experiments/experiment_17/103.jpg,,,right,"[""right""]",[0.9949999999998909],False,,0.0,0.0,25.0,25.0,25.0,1.0,,,,,,
,,,,,,,,,,,,,,,,,,,,,,,,,,985,1,2023-04-17_18h50.51.056,Occlusion_Psychophysics,2022.1.4,Linux x86_64,59.9880024,,,0.025,,,,,,,,,,Stimuli/psy_fixed_rotation_30_objects_occ0.7_0.9s/images/train/n04379243_8/n04256520_5/img_glass_table_meridiani_belmondo_bench_sofa_2012_gray.jpg,n04379243_8,n04256520_5,fixed,0.714098,n02883344_-1,Stimuli/psy_fixed_rotation_30_objects_occ0.7_0.9s/images/train/n02933112_-18/n02883344_-1/img_cgaxis_models_48_26_vray_composite_woven_box_2010-3_gray.png,random,fixed,n04379243_8,n04405907_9,Stimuli/canonical view 2/img_n04379243_8_gray.jpg,Stimuli/canonical view 2/img_n04405907_9_gray.jpg,random,left,Experiments/experiment_17/104.jpg,Experiments/experiment_17/105.jpg,Experiments/experiment_17/106.jpg,Experiments/experiment_17/107.jpg,,,left,"[""left""]",[0.9394000000953611],False,,0.0,0.0,26.0,26.0,26.0,1.0,,,,,,
,,,,,,,,,,,,,,,,,,,,,,,,,,985,1,2023-04-17_18h50.51.056,Occlusion_Psychophysics,2022.1.4,Linux x86_64,59.9880024,,,0.05,,,,,,,,,,Stimuli/psy_fixed_rotation_30_objects_occ0.7_0.9s/images/train/n02933112_4/n02883344_0/img_buffet_b03_box_2008_gray.jpg,n02933112_4,n02883344_0,fixed,0.817284,n04379243_-7,Stimuli/psy_fixed_rotation_30_objects_occ0.7_0.9s/images/train/n04405907_5/n04379243_-7/img_samsung_40_uhd_smart_tv_2011_quatre_dining_table_2003-3_gray.png,random,fixed,n02933112_4,n02818832_0,Stimuli/canonical view 2/img_n02933112_4_gray.jpg,Stimuli/canonical view 2/img_n02818832_0_gray.jpg,random,left,Experiments/experiment_17/108.jpg,Experiments/experiment_17/109.jpg,Experiments/experiment_17/110.jpg,Experiments/experiment_17/111.jpg,,,left,"[""left""]",[1.2482999997138222],False,,0.0,0.0,27.0,27.0,27.0,1.0,,,,,,
,,,,,,,,,,,,,,,,,,,,,,,,,,985,1,2023-04-17_18h50.51.056,Occlusion_Psychophysics,2022.1.4,Linux x86_64,59.9880024,,,0.05,,,,,,,,,,Stimuli/psy_flexible_rotation_30_objects_occ0.7_0.9s/images/train/n02818832_9/n04256520_9/img_bed01_blue_napoleon_iii_sofa_2014_gray.jpg,n02818832_9,n04256520_9,flexible,0.713214,n02933112_-2,Stimuli/psy_flexible_rotation_30_objects_occ0.7_0.9s/images/train/n03928116_4/n02933112_-2/img_dp_33_b_2013__vray_sink_base_white_wood_2005-3_gray.png,random,flexible,n02818832_9,n04256520_9,Stimuli/canonical view 2/img_n02818832_9_gray.jpg,Stimuli/canonical view 2/img_n04256520_9_gray.jpg,foreground,right,Experiments/experiment_17/112.jpg,Experiments/experiment_17/113.jpg,Experiments/experiment_17/114.jpg,Experiments/experiment_17/115.jpg,,,right,"[""left""]",[1.340100000381426],False,,0.0,0.0,28.0,28.0,28.0,1.0,,,,,,
,,,,,,,,,,,,,,,,,,,,,,,,,,985,1,2023-04-17_18h50.51.056,Occlusion_Psychophysics,2022.1.4,Linux x86_64,59.9880024,,,0.025,,,,,,,,,,Stimuli/psy_flexible_rotation_30_objects_occ0.7_0.9s/images/train/n02933112_-18/n04379243_0/img_cgaxis_models_48_26_vray_composite_17th_c._monastery_dining_table_2010_2012_gray.jpg,n02933112_-18,n04379243_0,flexible,0.730307,n04379243_0,Stimuli/psy_flexible_rotation_30_objects_occ0.7_0.9s/images/train/n02933112_-18/n04379243_0/img_cgaxis_models_48_26_vray_composite_17th_c._monastery_dining_table_2010_2012-3_gray.png,foreground,same as foreground,n02933112_-18,n04379243_0,Stimuli/canonical view 2/img_n02933112_-18_gray.jpg,Stimuli/canonical view 2/img_n04379243_0_gray.jpg,foreground,left,Experiments/experiment_17/116.jpg,Experiments/experiment_17/117.jpg,Experiments/experiment_17/118.jpg,Experiments/experiment_17/119.jpg,,,left,"[""left""]",[0.7295999999046217],True,right,1.0,0.0,29.0,29.0,29.0,1.0,1.0014,,,,,
,,,,,,,,,,,,,,,,,,,,,,,,,,985,1,2023-04-17_18h50.51.056,Occlusion_Psychophysics,2022.1.4,Linux x86_64,59.9880024,,,0.025,,,,,,,,,,Stimuli/psy_fixed_rotation_30_objects_occ0.7_0.9s/images/train/n03001627_-2/n03928116_4/img_wood_chair_dp_33_b_2013__vray_2014_gray.jpg,n03001627_-2,n03928116_4,fixed,0.722343,n02818832_3,Stimuli/psy_fixed_rotation_30_objects_occ0.7_0.9s/images/train/n04405907_9/n02818832_3/img_vray_004_b05_ccm_contemporary_bed_max2013_2014-3_gray.png,random,fixed,n03001627_-2,n04379243_0,Stimuli/canonical view 2/img_n03001627_-2_gray.jpg,Stimuli/canonical view 2/img_n04379243_0_gray.jpg,random,left,Experiments/experiment_17/120.jpg,Experiments/experiment_17/121.jpg,Experiments/experiment_17/122.jpg,Experiments/experiment_17/123.jpg,,,left,"[""right""]",[0.8231000003813733],False,,0.0,0.0,30.0,30.0,30.0,1.0,,,,,,
,,,,,,,,,,,,,,,,,,,,,,,,,,985,1,2023-04-17_18h50.51.056,Occlusion_Psychophysics,2022.1.4,Linux x86_64,59.9880024,,,0.05,,,,,,,,,,Stimuli/psy_flexible_rotation_30_objects_occ0.7_0.9s/images/train/n02818832_0/n04379243_0/img_b03_the_sofa_and_chair_company_-_stanley_bed_2014_17th_c._monastery_dining_table_2010_2007_gray.jpg,n02818832_0,n04379243_0,flexible,0.836015,n02818832_3,Stimuli/psy_flexible_rotation_30_objects_occ0.7_0.9s/images/train/n03928116_4/n02818832_3/img_dp_33_b_2013__vray_b05_ccm_contemporary_bed_max2013_2007-3_gray.png,random,flexible,n02818832_0,n04379243_0,Stimuli/canonical view 2/img_n02818832_0_gray.jpg,Stimuli/canonical view 2/img_n04379243_0_gray.jpg,foreground,left,Experiments/experiment_17/124.jpg,Experiments/experiment_17/125.jpg,Experiments/experiment_17/126.jpg,Experiments/experiment_17/127.jpg,,,right,"[""left""]",[1.8266999998091933],False,,0.0,0.0,31.0,31.0,31.0,1.0,,,,,,
,,,,,,,,,,,,,,,,,,,,,,,,,,985,1,2023-04-17_18h50.51.056,Occlusion_Psychophysics,2022.1.4,Linux x86_64,59.9880024,,,0.025,,,,,,,,,,Stimuli/psy_fixed_rotation_30_objects_occ0.7_0.9s/images/train/n03928116_0/n04405907_8/img_b02_piano_stylized_tv_2000_gray.jpg,n03928116_0,n04405907_8,fixed,0.786679,n02883344_15,Stimuli/psy_fixed_rotation_30_objects_occ0.7_0.9s/images/train/n04379243_8/n02883344_15/img_glass_table_microwave_box_2013-3_gray.png,random,fixed,n03928116_0,n02883344_0,Stimuli/canonical view 2/img_n03928116_0_gray.jpg,Stimuli/canonical view 2/img_n02883344_0_gray.jpg,random,right,Experiments/experiment_17/128.jpg,Experiments/experiment_17/129.jpg,Experiments/experiment_17/130.jpg,Experiments/experiment_17/131.jpg,,,right,"[""right""]",[0.9415999999046107],False,,0.0,0.0,32.0,32.0,32.0,1.0,,,,,,
,,,,,,,,,,,,,,,,,,,,,,,,,,985,1,2023-04-17_18h50.51.056,Occlusion_Psychophysics,2022.1.4,Linux x86_64,59.9880024,,,0.05,,,,,,,,,,Stimuli/psy_fixed_rotation_30_objects_occ0.7_0.9s/images/train/n03928116_4/n04405907_9/img_dp_33_b_2013__vray_vray_004_2004_gray.jpg,n03928116_4,n04405907_9,fixed,0.721897,n04405907_9,Stimuli/psy_fixed_rotation_30_objects_occ0.7_0.9s/images/train/n03928116_4/n04405907_9/img_dp_33_b_2013__vray_vray_004_2004-3_gray.png,foreground,same as foreground,n03928116_4,n02933112_-18,Stimuli/canonical view 2/img_n03928116_4_gray.jpg,Stimuli/canonical view 2/img_n02933112_-18_gray.jpg,random,left,Experiments/experiment_17/132.jpg,Experiments/experiment_17/133.jpg,Experiments/experiment_17/134.jpg,Experiments/experiment_17/135.jpg,,,left,"[""right""]",[2.6067999997138713],False,,0.0,0.0,33.0,33.0,33.0,1.0,,,,,,
,,,,,,,,,,,,,,,,,,,,,,,,,,985,1,2023-04-17_18h50.51.056,Occlusion_Psychophysics,2022.1.4,Linux x86_64,59.9880024,,,0.025,,,,,,,,,,Stimuli/psy_flexible_rotation_30_objects_occ0.7_0.9s/images/train/n03928116_10/n03928116_4/img_ydp_103_r_2012__vray_dp_33_b_2013__vray_2015_gray.jpg,n03928116_10,n03928116_4,flexible,0.730128,n04379243_-7,Stimuli/psy_flexible_rotation_30_objects_occ0.7_0.9s/images/train/n04405907_8/n04379243_-7/img_stylized_tv_quatre_dining_table_2003-3_gray.png,random,flexible,n03928116_10,n02818832_0,Stimuli/canonical view 2/img_n03928116_10_gray.jpg,Stimuli/canonical view 2/img_n02818832_0_gray.jpg,random,left,Experiments/experiment_17/136.jpg,Experiments/experiment_17/137.jpg,Experiments/experiment_17/138.jpg,Experiments/experiment_17/139.jpg,,,left,"[""left""]",[2.444300000190765],False,,0.0,0.0,34.0,34.0,34.0,1.0,,,,,,
,,,,,,,,,,,,,,,,,,,,,,,,,,985,1,2023-04-17_18h50.51.056,Occlusion_Psychophysics,2022.1.4,Linux x86_64,59.9880024,,,0.025,,,,,,,,,,Stimuli/psy_flexible_rotation_30_objects_occ0.7_0.9s/images/train/n02883344_-1/n03928116_0/img_woven_box_b02_piano_2001_gray.jpg,n02883344_-1,n03928116_0,flexible,0.710277,n02933112_-18,Stimuli/psy_fixed_rotation_30_objects_occ0.7_0.9s/images/train/n02818832_9/n02933112_-18/img_bed01_blue_cgaxis_models_48_26_vray_composite_2001-3_gray.png,random,fixed,n02883344_-1,n02883344_0,Stimuli/canonical view 2/img_n02883344_-1_gray.jpg,Stimuli/canonical view 2/img_n02883344_0_gray.jpg,random,left,Experiments/experiment_17/140.jpg,Experiments/experiment_17/141.jpg,Experiments/experiment_17/142.jpg,Experiments/experiment_17/143.jpg,,,right,"[""right""]",[1.325599999904739],False,,0.0,0.0,35.0,35.0,35.0,1.0,,,,,,
,,,,,,,,,,,,,,,,,,,,,,,,,,985,1,2023-04-17_18h50.51.056,Occlusion_Psychophysics,2022.1.4,Linux x86_64,59.9880024,,,0.025,,,,,,,,,,Stimuli/psy_flexible_rotation_30_objects_occ0.7_0.9s/images/train/n04379243_8/n04256520_5/img_glass_table_meridiani_belmondo_bench_sofa_2011_gray.jpg,n04379243_8,n04256520_5,flexible,0.700344,n04405907_5,Stimuli/psy_fixed_rotation_30_objects_occ0.7_0.9s/images/train/n03928116_0/n04405907_5/img_b02_piano_samsung_40_uhd_smart_tv_2011_2011-3_gray.png,random,fixed,n04379243_8,n02818832_3,Stimuli/canonical view 2/img_n04379243_8_gray.jpg,Stimuli/canonical view 2/img_n02818832_3_gray.jpg,random,right,Experiments/experiment_17/144.jpg,Experiments/experiment_17/145.jpg,Experiments/experiment_17/146.jpg,Experiments/experiment_17/147.jpg,,,right,"[""right""]",[0.994400000095311],False,,0.0,0.0,36.0,36.0,36.0,1.0,,,,,,
,,,,,,,,,,,,,,,,,,,,,,,,,,985,1,2023-04-17_18h50.51.056,Occlusion_Psychophysics,2022.1.4,Linux x86_64,59.9880024,,,0.05,,,,,,,,,,Stimuli/psy_flexible_rotation_30_objects_occ0.7_0.9s/images/train/n02883344_0/n04256520_5/img_b03_box_meridiani_belmondo_bench_sofa_2008_gray.jpg,n02883344_0,n04256520_5,flexible,0.727795,n02818832_3,Stimuli/psy_flexible_rotation_30_objects_occ0.7_0.9s/images/train/n02818832_9/n02818832_3/img_bed01_blue_b05_ccm_contemporary_bed_max2013_2002-3_gray.png,random,flexible,n02883344_0,n04256520_9,Stimuli/canonical view 2/img_n02883344_0_gray.jpg,Stimuli/canonical view 2/img_n04256520_9_gray.jpg,random,left,Experiments/experiment_17/148.jpg,Experiments/experiment_17/149.jpg,Experiments/experiment_17/150.jpg,Experiments/experiment_17/151.jpg,,,right,"[""right""]",[1.3915999999045425],False,,0.0,0.0,37.0,37.0,37.0,1.0,,,,,,
,,,,,,,,,,,,,,,,,,,,,,,,,,985,1,2023-04-17_18h50.51.056,Occlusion_Psychophysics,2022.1.4,Linux x86_64,59.9880024,,,0.05,,,,,,,,,,Stimuli/psy_flexible_rotation_30_objects_occ0.7_0.9s/images/train/n02933112_4/n04379243_0/img_buffet_17th_c._monastery_dining_table_2010_2001_gray.jpg,n02933112_4,n04379243_0,flexible,0.720595,n04379243_0,Stimuli/psy_flexible_rotation_30_objects_occ0.7_0.9s/images/train/n02933112_4/n04379243_0/img_buffet_17th_c._monastery_dining_table_2010_2001-3_gray.png,foreground,same as foreground,n02933112_4,n02933112_-2,Stimuli/canonical view 2/img_n02933112_4_gray.jpg,Stimuli/canonical view 2/img_n02933112_-2_gray.jpg,random,right,Experiments/experiment_17/152.jpg,Experiments/experiment_17/153.jpg,Experiments/experiment_17/154.jpg,Experiments/experiment_17/155.jpg,,,right,"[""left""]",[1.2730999999046162],False,,0.0,0.0,38.0,38.0,38.0,1.0,,,,,,
,,,,,,,,,,,,,,,,,,,,,,,,,,985,1,2023-04-17_18h50.51.056,Occlusion_Psychophysics,2022.1.4,Linux x86_64,59.9880024,,,0.05,,,,,,,,,,Stimuli/psy_fixed_rotation_30_objects_occ0.7_0.9s/images/train/n03928116_4/n02818832_9/img_dp_33_b_2013__vray_bed01_blue_2011_gray.jpg,n03928116_4,n02818832_9,fixed,0.797951,n02818832_9,Stimuli/psy_fixed_rotation_30_objects_occ0.7_0.9s/images/train/n03928116_4/n02818832_9/img_dp_33_b_2013__vray_bed01_blue_2011-3_gray.png,foreground,same as foreground,n03928116_4,n02818832_9,Stimuli/canonical view 2/img_n03928116_4_gray.jpg,Stimuli/canonical view 2/img_n02818832_9_gray.jpg,foreground,right,Experiments/experiment_17/156.jpg,Experiments/experiment_17/157.jpg,Experiments/experiment_17/158.jpg,Experiments/experiment_17/159.jpg,,,right,"[""right""]",[1.27800000000002],True,left,1.0,0.0,39.0,39.0,39.0,1.0,0.8556,,,,,
,,,,,,,,,,,,,,,,,,,,,,,,,,985,1,2023-04-17_18h50.51.056,Occlusion_Psychophysics,2022.1.4,Linux x86_64,59.9880024,,,0.05,,,,,,,,,,Stimuli/psy_flexible_rotation_30_objects_occ0.7_0.9s/images/train/n04256520_4/n02933112_-2/img_club_house_italia_nautilus_sofa_sink_base_white_wood_2007_gray.jpg,n04256520_4,n02933112_-2,flexible,0.738513,n04405907_5,Stimuli/psy_fixed_rotation_30_objects_occ0.7_0.9s/images/train/n04256520_9/n04405907_5/img_napoleon_iii_sofa_samsung_40_uhd_smart_tv_2011_2013-3_gray.png,random,fixed,n04256520_4,n03928116_0,Stimuli/canonical view 2/img_n04256520_4_gray.jpg,Stimuli/canonical view 2/img_n03928116_0_gray.jpg,random,right,Experiments/experiment_17/160.jpg,Experiments/experiment_17/161.jpg,Experiments/experiment_17/162.jpg,Experiments/experiment_17/163.jpg,,,right,"[""right""]",[1.587599999904569],False,,0.0,0.0,40.0,40.0,40.0,1.0,,,,,,
,,,,,,,,,,,,,,,,,,,,,,,,,,985,1,2023-04-17_18h50.51.056,Occlusion_Psychophysics,2022.1.4,Linux x86_64,59.9880024,,,0.025,,,,,,,,,,Stimuli/psy_flexible_rotation_30_objects_occ0.7_0.9s/images/train/n02818832_9/n03928116_0/img_bed01_blue_b02_piano_2013_gray.jpg,n02818832_9,n03928116_0,flexible,0.830374,n04405907_8,Stimuli/psy_fixed_rotation_30_objects_occ0.7_0.9s/images/train/n02818832_3/n04405907_8/img_b05_ccm_contemporary_bed_max2013_stylized_tv_2014-3_gray.png,random,fixed,n02818832_9,n03928116_0,Stimuli/canonical view 2/img_n02818832_9_gray.jpg,Stimuli/canonical view 2/img_n03928116_0_gray.jpg,foreground,left,Experiments/experiment_17/164.jpg,Experiments/experiment_17/165.jpg,Experiments/experiment_17/166.jpg,Experiments/experiment_17/167.jpg,,,left,"[""left""]",[0.9224000000953083],False,,0.0,0.0,41.0,41.0,41.0,1.0,,,,,,
,,,,,,,,,,,,,,,,,,,,,,,,,,985,1,2023-04-17_18h50.51.056,Occlusion_Psychophysics,2022.1.4,Linux x86_64,59.9880024,,,0.025,,,,,,,,,,Stimuli/psy_flexible_rotation_30_objects_occ0.7_0.9s/images/train/n02818832_9/n04379243_8/img_bed01_blue_glass_table_2003_gray.jpg,n02818832_9,n04379243_8,flexible,0.820094,n04379243_8,Stimuli/psy_flexible_rotation_30_objects_occ0.7_0.9s/images/train/n02818832_9/n04379243_8/img_bed01_blue_glass_table_2003-3_gray.png,foreground,same as foreground,n02818832_9,n02828884_9,Stimuli/canonical view 2/img_n02818832_9_gray.jpg,Stimuli/canonical view 2/img_n02828884_9_gray.jpg,random,right,Experiments/experiment_17/168.jpg,Experiments/experiment_17/169.jpg,Experiments/experiment_17/170.jpg,Experiments/experiment_17/171.jpg,,,right,"[""left""]",[1.1726999998093106],False,,0.0,0.0,42.0,42.0,42.0,1.0,,,,,,
,,,,,,,,,,,,,,,,,,,,,,,,,,985,1,2023-04-17_18h50.51.056,Occlusion_Psychophysics,2022.1.4,Linux x86_64,59.9880024,,,0.05,,,,,,,,,,Stimuli/psy_flexible_rotation_30_objects_occ0.7_0.9s/images/train/n04379243_8/n04405907_8/img_glass_table_stylized_tv_2005_gray.jpg,n04379243_8,n04405907_8,flexible,0.714121,n03928116_4,Stimuli/psy_flexible_rotation_30_objects_occ0.7_0.9s/images/train/n04379243_8/n03928116_4/img_glass_table_dp_33_b_2013__vray_2007-3_gray.png,random,flexible,n04379243_8,n03928116_10,Stimuli/canonical view 2/img_n04379243_8_gray.jpg,Stimuli/canonical view 2/img_n03928116_10_gray.jpg,random,left,Experiments/experiment_17/172.jpg,Experiments/experiment_17/173.jpg,Experiments/experiment_17/174.jpg,Experiments/experiment_17/175.jpg,,,left,"[""left""]",[0.8399999999999181],False,,0.0,0.0,43.0,43.0,43.0,1.0,,,,,,
,,,,,,,,,,,,,,,,,,,,,,,,,,985,1,2023-04-17_18h50.51.056,Occlusion_Psychophysics,2022.1.4,Linux x86_64,59.9880024,,,0.025,,,,,,,,,,Stimuli/psy_flexible_rotation_30_objects_occ0.7_0.9s/images/train/n04379243_0/n02883344_15/img_17th_c._monastery_dining_table_2010_microwave_box_2005_gray.jpg,n04379243_0,n02883344_15,flexible,0.74807,n02818832_0,Stimuli/psy_fixed_rotation_30_objects_occ0.7_0.9s/images/train/n02818832_9/n02818832_0/img_bed01_blue_b03_the_sofa_and_chair_company_-_stanley_bed_2014_2013-3_gray.png,random,fixed,n04379243_0,n02883344_15,Stimuli/canonical view 2/img_n04379243_0_gray.jpg,Stimuli/canonical view 2/img_n02883344_15_gray.jpg,foreground,right,Experiments/experiment_17/176.jpg,Experiments/experiment_17/177.jpg,Experiments/experiment_17/178.jpg,Experiments/experiment_17/179.jpg,,,right,"[""right""]",[1.1089999999999236],False,,0.0,0.0,44.0,44.0,44.0,1.0,,,,,,
,,,,,,,,,,,,,,,,,,,,,,,,,,985,1,2023-04-17_18h50.51.056,Occlusion_Psychophysics,2022.1.4,Linux x86_64,59.9880024,,,0.025,,,,,,,,,,Stimuli/psy_flexible_rotation_30_objects_occ0.7_0.9s/images/train/n03928116_0/n04405907_8/img_b02_piano_stylized_tv_2000_gray.jpg,n03928116_0,n04405907_8,flexible,0.873284,n04405907_8,Stimuli/psy_flexible_rotation_30_objects_occ0.7_0.9s/images/train/n03928116_0/n04405907_8/img_b02_piano_stylized_tv_2000-3_gray.png,foreground,same as foreground,n03928116_0,n02818832_9,Stimuli/canonical view 2/img_n03928116_0_gray.jpg,Stimuli/canonical view 2/img_n02818832_9_gray.jpg,random,right,Experiments/experiment_17/180.jpg,Experiments/experiment_17/181.jpg,Experiments/experiment_17/182.jpg,Experiments/experiment_17/183.jpg,,,left,"[""left""]",[0.6899000000953492],False,,0.0,0.0,45.0,45.0,45.0,1.0,,,,,,
,,,,,,,,,,,,,,,,,,,,,,,,,,985,1,2023-04-17_18h50.51.056,Occlusion_Psychophysics,2022.1.4,Linux x86_64,59.9880024,,,0.025,,,,,,,,,,Stimuli/psy_fixed_rotation_30_objects_occ0.7_0.9s/images/train/n02818832_9/n02818832_3/img_bed01_blue_b05_ccm_contemporary_bed_max2013_2007_gray.jpg,n02818832_9,n02818832_3,fixed,0.837687,n02818832_3,Stimuli/psy_fixed_rotation_30_objects_occ0.7_0.9s/images/train/n02818832_9/n02818832_3/img_bed01_blue_b05_ccm_contemporary_bed_max2013_2007-3_gray.png,foreground,same as foreground,n02818832_9,n02818832_3,Stimuli/canonical view 2/img_n02818832_9_gray.jpg,Stimuli/canonical view 2/img_n02818832_3_gray.jpg,foreground,left,Experiments/experiment_17/184.jpg,Experiments/experiment_17/185.jpg,Experiments/experiment_17/186.jpg,Experiments/experiment_17/187.jpg,,,right,"[""right""]",[2.408299999713904],False,,0.0,0.0,46.0,46.0,46.0,1.0,,,,,,
,,,,,,,,,,,,,,,,,,,,,,,,,,985,1,2023-04-17_18h50.51.056,Occlusion_Psychophysics,2022.1.4,Linux x86_64,59.9880024,,,0.05,,,,,,,,,,Stimuli/psy_flexible_rotation_30_objects_occ0.7_0.9s/images/train/n04256520_9/n02818832_0/img_napoleon_iii_sofa_b03_the_sofa_and_chair_company_-_stanley_bed_2014_2014_gray.jpg,n04256520_9,n02818832_0,flexible,0.781997,n02818832_0,Stimuli/psy_flexible_rotation_30_objects_occ0.7_0.9s/images/train/n04256520_9/n02818832_0/img_napoleon_iii_sofa_b03_the_sofa_and_chair_company_-_stanley_bed_2014_2014-3_gray.png,foreground,same as foreground,n04256520_9,n03928116_4,Stimuli/canonical view 2/img_n04256520_9_gray.jpg,Stimuli/canonical view 2/img_n03928116_4_gray.jpg,random,right,Experiments/experiment_17/188.jpg,Experiments/experiment_17/189.jpg,Experiments/experiment_17/190.jpg,Experiments/experiment_17/191.jpg,,,left,"[""left""]",[0.9964999999999691],False,,0.0,0.0,47.0,47.0,47.0,1.0,,,,,,
,,,,,,,,,,,,,,,,,,,,,,,,,,985,1,2023-04-17_18h50.51.056,Occlusion_Psychophysics,2022.1.4,Linux x86_64,59.9880024,,,0.025,,,,,,,,,,Stimuli/psy_fixed_rotation_30_objects_occ0.7_0.9s/images/train/n04405907_8/n02818832_3/img_stylized_tv_b05_ccm_contemporary_bed_max2013_2014_gray.jpg,n04405907_8,n02818832_3,fixed,0.76007,n04379243_0,Stimuli/psy_fixed_rotation_30_objects_occ0.7_0.9s/images/train/n02933112_4/n04379243_0/img_buffet_17th_c._monastery_dining_table_2010_2010-3_gray.png,random,fixed,n04405907_8,n02818832_3,Stimuli/canonical view 2/img_n04405907_8_gray.jpg,Stimuli/canonical view 2/img_n02818832_3_gray.jpg,foreground,right,Experiments/experiment_17/192.jpg,Experiments/experiment_17/193.jpg,Experiments/experiment_17/194.jpg,Experiments/experiment_17/195.jpg,,,right,"[""left""]",[0.7679000000953238],False,,0.0,0.0,48.0,48.0,48.0,1.0,,,,,,
,,,,,,,,,,,,,,,,,,,,,,,,,,985,1,2023-04-17_18h50.51.056,Occlusion_Psychophysics,2022.1.4,Linux x86_64,59.9880024,,,0.025,,,,,,,,,,Stimuli/psy_flexible_rotation_30_objects_occ0.7_0.9s/images/train/n02883344_-1/n04256520_5/img_woven_box_meridiani_belmondo_bench_sofa_2015_gray.jpg,n02883344_-1,n04256520_5,flexible,0.7414,n02818832_9,Stimuli/psy_fixed_rotation_30_objects_occ0.7_0.9s/images/train/n02933112_-2/n02818832_9/img_sink_base_white_wood_bed01_blue_2007-3_gray.png,random,fixed,n02883344_-1,n02883344_0,Stimuli/canonical view 2/img_n02883344_-1_gray.jpg,Stimuli/canonical view 2/img_n02883344_0_gray.jpg,random,right,Experiments/experiment_17/196.jpg,Experiments/experiment_17/197.jpg,Experiments/experiment_17/198.jpg,Experiments/experiment_17/199.jpg,,,right,"[""right""]",[0.9866999998092751],False,,0.0,0.0,49.0,49.0,49.0,1.0,,,,,,
,,,,,,,,,,,,,,,,,,,,,,,,,,985,1,2023-04-17_18h50.51.056,Occlusion_Psychophysics,2022.1.4,Linux x86_64,59.9880024,,,0.025,,,,,,,,,,Stimuli/psy_flexible_rotation_30_objects_occ0.7_0.9s/images/train/n02883344_-1/n02818832_0/img_woven_box_b03_the_sofa_and_chair_company_-_stanley_bed_2014_2007_gray.jpg,n02883344_-1,n02818832_0,flexible,0.744603,n03001627_8,Stimuli/psy_fixed_rotation_30_objects_occ0.7_0.9s/images/train/n02933112_-18/n03001627_8/img_cgaxis_models_48_26_vray_composite_chair_billiani_doll_2001-3_gray.png,random,fixed,n02883344_-1,n02883344_0,Stimuli/canonical view 2/img_n02883344_-1_gray.jpg,Stimuli/canonical view 2/img_n02883344_0_gray.jpg,random,right,Experiments/experiment_17/200.jpg,Experiments/experiment_17/201.jpg,Experiments/experiment_17/202.jpg,Experiments/experiment_17/203.jpg,,,right,"[""right""]",[1.0895999999046353],False,,0.0,0.0,50.0,50.0,50.0,1.0,,,,,,
,,,,,,,,,,,,,,,,,,,,,,,,,,985,1,2023-04-17_18h50.51.056,Occlusion_Psychophysics,2022.1.4,Linux x86_64,59.9880024,,,0.025,,,,,,,,,,Stimuli/psy_fixed_rotation_30_objects_occ0.7_0.9s/images/train/n02883344_15/n02933112_4/img_microwave_box_buffet_2011_gray.jpg,n02883344_15,n02933112_4,fixed,0.804727,n02818832_0,Stimuli/psy_flexible_rotation_30_objects_occ0.7_0.9s/images/train/n02818832_3/n02818832_0/img_b05_ccm_contemporary_bed_max2013_b03_the_sofa_and_chair_company_-_stanley_bed_2014_2012-3_gray.png,random,flexible,n02883344_15,n02933112_4,Stimuli/canonical view 2/img_n02883344_15_gray.jpg,Stimuli/canonical view 2/img_n02933112_4_gray.jpg,foreground,right,Experiments/experiment_17/204.jpg,Experiments/experiment_17/205.jpg,Experiments/experiment_17/206.jpg,Experiments/experiment_17/207.jpg,,,right,"[""right""]",[0.7894999999999754],False,,0.0,0.0,51.0,51.0,51.0,1.0,,,,,,
,,,,,,,,,,,,,,,,,,,,,,,,,,985,1,2023-04-17_18h50.51.056,Occlusion_Psychophysics,2022.1.4,Linux x86_64,59.9880024,,,0.025,,,,,,,,,,Stimuli/psy_fixed_rotation_30_objects_occ0.7_0.9s/images/train/n02818832_0/n04379243_0/img_b03_the_sofa_and_chair_company_-_stanley_bed_2014_17th_c._monastery_dining_table_2010_2009_gray.jpg,n02818832_0,n04379243_0,fixed,0.716153,n03928116_0,Stimuli/psy_fixed_rotation_30_objects_occ0.7_0.9s/images/train/n02818832_3/n03928116_0/img_b05_ccm_contemporary_bed_max2013_b02_piano_2014-3_gray.png,random,fixed,n02818832_0,n04379243_-7,Stimuli/canonical view 2/img_n02818832_0_gray.jpg,Stimuli/canonical view 2/img_n04379243_-7_gray.jpg,random,right,Experiments/experiment_17/208.jpg,Experiments/experiment_17/209.jpg,Experiments/experiment_17/210.jpg,Experiments/experiment_17/211.jpg,,,left,"[""left""]",[0.7633999996185139],True,left,1.0,0.0,52.0,52.0,52.0,1.0,0.8784,,,,,
,,,,,,,,,,,,,,,,,,,,,,,,,,985,1,2023-04-17_18h50.51.056,Occlusion_Psychophysics,2022.1.4,Linux x86_64,59.9880024,,,0.025,,,,,,,,,,Stimuli/psy_fixed_rotation_30_objects_occ0.7_0.9s/images/train/n02828884_3/n02883344_-1/img_b04_wood_metal_park_bench_woven_box_2014_gray.jpg,n02828884_3,n02883344_-1,fixed,0.725546,n02883344_-1,Stimuli/psy_fixed_rotation_30_objects_occ0.7_0.9s/images/train/n02828884_3/n02883344_-1/img_b04_wood_metal_park_bench_woven_box_2014-3_gray.png,foreground,same as foreground,n02828884_3,n02883344_-1,Stimuli/canonical view 2/img_n02828884_3_gray.jpg,Stimuli/canonical view 2/img_n02883344_-1_gray.jpg,foreground,right,Experiments/experiment_17/212.jpg,Experiments/experiment_17/213.jpg,Experiments/experiment_17/214.jpg,Experiments/experiment_17/215.jpg,,,left,"[""left""]",[0.7553999996185894],False,,0.0,0.0,53.0,53.0,53.0,1.0,,,,,,
,,,,,,,,,,,,,,,,,,,,,,,,,,985,1,2023-04-17_18h50.51.056,Occlusion_Psychophysics,2022.1.4,Linux x86_64,59.9880024,,,0.025,,,,,,,,,,Stimuli/psy_flexible_rotation_30_objects_occ0.7_0.9s/images/train/n04256520_9/n04379243_0/img_napoleon_iii_sofa_17th_c._monastery_dining_table_2010_2012_gray.jpg,n04256520_9,n04379243_0,flexible,0.81058,n02883344_15,Stimuli/psy_flexible_rotation_30_objects_occ0.7_0.9s/images/train/n02818832_0/n02883344_15/img_b03_the_sofa_and_chair_company_-_stanley_bed_2014_microwave_box_2001-3_gray.png,random,flexible,n04256520_9,n04379243_0,Stimuli/canonical view 2/img_n04256520_9_gray.jpg,Stimuli/canonical view 2/img_n04379243_0_gray.jpg,foreground,left,Experiments/experiment_17/216.jpg,Experiments/experiment_17/217.jpg,Experiments/experiment_17/218.jpg,Experiments/experiment_17/219.jpg,,,left,"[""right""]",[1.543900000095391],True,left,1.0,0.0,54.0,54.0,54.0,1.0,0.6386,,,,,
,,,,,,,,,,,,,,,,,,,,,,,,,,985,1,2023-04-17_18h50.51.056,Occlusion_Psychophysics,2022.1.4,Linux x86_64,59.9880024,,,0.025,,,,,,,,,,Stimuli/psy_flexible_rotation_30_objects_occ0.7_0.9s/images/train/n02818832_9/n02828884_3/img_bed01_blue_b04_wood_metal_park_bench_2010_gray.jpg,n02818832_9,n02828884_3,flexible,0.773294,n04379243_0,Stimuli/psy_fixed_rotation_30_objects_occ0.7_0.9s/images/train/n02933112_-18/n04379243_0/img_cgaxis_models_48_26_vray_composite_17th_c._monastery_dining_table_2010_2011-3_gray.png,random,fixed,n02818832_9,n02828884_3,Stimuli/canonical view 2/img_n02818832_9_gray.jpg,Stimuli/canonical view 2/img_n02828884_3_gray.jpg,foreground,right,Experiments/experiment_17/220.jpg,Experiments/experiment_17/221.jpg,Experiments/experiment_17/222.jpg,Experiments/experiment_17/223.jpg,,,left,"[""left""]",[0.7280999999046571],False,,0.0,0.0,55.0,55.0,55.0,1.0,,,,,,
,,,,,,,,,,,,,,,,,,,,,,,,,,985,1,2023-04-17_18h50.51.056,Occlusion_Psychophysics,2022.1.4,Linux x86_64,59.9880024,,,0.05,,,,,,,,,,Stimuli/psy_fixed_rotation_30_objects_occ0.7_0.9s/images/train/n04379243_-7/n03928116_10/img_quatre_dining_table_ydp_103_r_2012__vray_2005_gray.jpg,n04379243_-7,n03928116_10,fixed,0.784378,n02828884_3,Stimuli/psy_fixed_rotation_30_objects_occ0.7_0.9s/images/train/n02828884_4/n02828884_3/img_b05_c-5_classic_series_bench-2012_b04_wood_metal_park_bench_2005-3_gray.png,random,fixed,n04379243_-7,n03928116_10,Stimuli/canonical view 2/img_n04379243_-7_gray.jpg,Stimuli/canonical view 2/img_n03928116_10_gray.jpg,foreground,left,Experiments/experiment_17/224.jpg,Experiments/experiment_17/225.jpg,Experiments/experiment_17/226.jpg,Experiments/experiment_17/227.jpg,,,right,"[""right""]",[0.9719000000953884],False,,0.0,0.0,56.0,56.0,56.0,1.0,,,,,,
,,,,,,,,,,,,,,,,,,,,,,,,,,985,1,2023-04-17_18h50.51.056,Occlusion_Psychophysics,2022.1.4,Linux x86_64,59.9880024,,,0.05,,,,,,,,,,Stimuli/psy_flexible_rotation_30_objects_occ0.7_0.9s/images/train/n02828884_3/n02883344_-1/img_b04_wood_metal_park_bench_woven_box_2012_gray.jpg,n02828884_3,n02883344_-1,flexible,0.714582,n02883344_-1,Stimuli/psy_flexible_rotation_30_objects_occ0.7_0.9s/images/train/n02828884_3/n02883344_-1/img_b04_wood_metal_park_bench_woven_box_2012-3_gray.png,foreground,same as foreground,n02828884_3,n02883344_-1,Stimuli/canonical view 2/img_n02828884_3_gray.jpg,Stimuli/canonical view 2/img_n02883344_-1_gray.jpg,foreground,left,Experiments/experiment_17/228.jpg,Experiments/experiment_17/229.jpg,Experiments/experiment_17/230.jpg,Experiments/experiment_17/231.jpg,,,right,"[""right""]",[1.1024999999999636],False,,0.0,0.0,57.0,57.0,57.0,1.0,,,,,,
,,,,,,,,,,,,,,,,,,,,,,,,,,985,1,2023-04-17_18h50.51.056,Occlusion_Psychophysics,2022.1.4,Linux x86_64,59.9880024,,,0.05,,,,,,,,,,Stimuli/psy_flexible_rotation_30_objects_occ0.7_0.9s/images/train/n04379243_0/n04405907_9/img_17th_c._monastery_dining_table_2010_vray_004_2007_gray.jpg,n04379243_0,n04405907_9,flexible,0.746778,n04379243_8,Stimuli/psy_flexible_rotation_30_objects_occ0.7_0.9s/images/train/n04379243_8/n04379243_8/img_glass_table_glass_table_2013-3_gray.png,random,flexible,n04379243_0,n02933112_-2,Stimuli/canonical view 2/img_n04379243_0_gray.jpg,Stimuli/canonical view 2/img_n02933112_-2_gray.jpg,random,left,Experiments/experiment_17/232.jpg,Experiments/experiment_17/233.jpg,Experiments/experiment_17/234.jpg,Experiments/experiment_17/235.jpg,,,right,"[""right""]",[0.5517000002861323],False,,0.0,0.0,58.0,58.0,58.0,1.0,,,,,,
,,,,,,,,,,,,,,,,,,,,,,,,,,985,1,2023-04-17_18h50.51.056,Occlusion_Psychophysics,2022.1.4,Linux x86_64,59.9880024,,,0.05,,,,,,,,,,Stimuli/psy_flexible_rotation_30_objects_occ0.7_0.9s/images/train/n04379243_-7/n03928116_10/img_quatre_dining_table_ydp_103_r_2012__vray_2007_gray.jpg,n04379243_-7,n03928116_10,flexible,0.709851,n02933112_-2,Stimuli/psy_flexible_rotation_30_objects_occ0.7_0.9s/images/train/n04379243_8/n02933112_-2/img_glass_table_sink_base_white_wood_2012-3_gray.png,random,flexible,n04379243_-7,n04405907_8,Stimuli/canonical view 2/img_n04379243_-7_gray.jpg,Stimuli/canonical view 2/img_n04405907_8_gray.jpg,random,right,Experiments/experiment_17/236.jpg,Experiments/experiment_17/237.jpg,Experiments/experiment_17/238.jpg,Experiments/experiment_17/239.jpg,,,left,"[""right""]",[1.057099999904608],False,,0.0,0.0,59.0,59.0,59.0,1.0,,,,,,
,,,,,,,,,,,,,,,,,,,,,,,,,,985,1,2023-04-17_18h50.51.056,Occlusion_Psychophysics,2022.1.4,Linux x86_64,59.9880024,,,0.05,,,,,,,,,,Stimuli/psy_fixed_rotation_30_objects_occ0.7_0.9s/images/train/n04379243_0/n02883344_-1/img_17th_c._monastery_dining_table_2010_woven_box_2009_gray.jpg,n04379243_0,n02883344_-1,fixed,0.705831,n02883344_-1,Stimuli/psy_fixed_rotation_30_objects_occ0.7_0.9s/images/train/n04379243_0/n02883344_-1/img_17th_c._monastery_dining_table_2010_woven_box_2009-3_gray.png,foreground,same as foreground,n04379243_0,n03928116_10,Stimuli/canonical view 2/img_n04379243_0_gray.jpg,Stimuli/canonical view 2/img_n03928116_10_gray.jpg,random,left,Experiments/experiment_17/240.jpg,Experiments/experiment_17/241.jpg,Experiments/experiment_17/242.jpg,Experiments/experiment_17/243.jpg,,,right,"[""right""]",[0.572399999618483],False,,0.0,0.0,60.0,60.0,60.0,1.0,,,,,,
,,,,,,,,,,,,,,,,,,,,,,,,,,985,1,2023-04-17_18h50.51.056,Occlusion_Psychophysics,2022.1.4,Linux x86_64,59.9880024,,,0.025,,,,,,,,,,Stimuli/psy_fixed_rotation_30_objects_occ0.7_0.9s/images/train/n02933112_-18/n02933112_4/img_cgaxis_models_48_26_vray_composite_buffet_2004_gray.jpg,n02933112_-18,n02933112_4,fixed,0.734821,n02933112_4,Stimuli/psy_fixed_rotation_30_objects_occ0.7_0.9s/images/train/n02933112_-18/n02933112_4/img_cgaxis_models_48_26_vray_composite_buffet_2004-3_gray.png,foreground,same as foreground,n02933112_-18,n04379243_0,Stimuli/canonical view 2/img_n02933112_-18_gray.jpg,Stimuli/canonical view 2/img_n04379243_0_gray.jpg,random,right,Experiments/experiment_17/244.jpg,Experiments/experiment_17/245.jpg,Experiments/experiment_17/246.jpg,Experiments/experiment_17/247.jpg,,,right,"[""left""]",[1.0664000000953138],False,,0.0,0.0,61.0,61.0,61.0,1.0,,,,,,
,,,,,,,,,,,,,,,,,,,,,,,,,,985,1,2023-04-17_18h50.51.056,Occlusion_Psychophysics,2022.1.4,Linux x86_64,59.9880024,,,0.025,,,,,,,,,,Stimuli/psy_fixed_rotation_30_objects_occ0.7_0.9s/images/train/n02883344_-1/n04405907_5/img_woven_box_samsung_40_uhd_smart_tv_2011_2003_gray.jpg,n02883344_-1,n04405907_5,fixed,0.710402,n02828884_3,Stimuli/psy_fixed_rotation_30_objects_occ0.7_0.9s/images/train/n03928116_0/n02828884_3/img_b02_piano_b04_wood_metal_park_bench_2012-3_gray.png,random,fixed,n02883344_-1,n04405907_5,Stimuli/canonical view 2/img_n02883344_-1_gray.jpg,Stimuli/canonical view 2/img_n04405907_5_gray.jpg,foreground,left,Experiments/experiment_17/248.jpg,Experiments/experiment_17/249.jpg,Experiments/experiment_17/250.jpg,Experiments/experiment_17/251.jpg,,,right,"[""right""]",[1.2283000001907567],False,,0.0,0.0,62.0,62.0,62.0,1.0,,,,,,
,,,,,,,,,,,,,,,,,,,,,,,,,,985,1,2023-04-17_18h50.51.056,Occlusion_Psychophysics,2022.1.4,Linux x86_64,59.9880024,,,0.05,,,,,,,,,,Stimuli/psy_fixed_rotation_30_objects_occ0.7_0.9s/images/train/n04405907_5/n02818832_0/img_samsung_40_uhd_smart_tv_2011_b03_the_sofa_and_chair_company_-_stanley_bed_2014_2010_gray.jpg,n04405907_5,n02818832_0,fixed,0.722451,n03928116_0,Stimuli/psy_flexible_rotation_30_objects_occ0.7_0.9s/images/train/n04256520_5/n03928116_0/img_meridiani_belmondo_bench_sofa_b02_piano_2002-3_gray.png,random,flexible,n04405907_5,n02818832_0,Stimuli/canonical view 2/img_n04405907_5_gray.jpg,Stimuli/canonical view 2/img_n02818832_0_gray.jpg,foreground,left,Experiments/experiment_17/252.jpg,Experiments/experiment_17/253.jpg,Experiments/experiment_17/254.jpg,Experiments/experiment_17/255.jpg,,,right,"[""right""]",[1.1901999998093515],False,,0.0,0.0,63.0,63.0,63.0,1.0,,,,,,
,,,,,,,,,,,,,,,,,,,,,,,,,,985,1,2023-04-17_18h50.51.056,Occlusion_Psychophysics,2022.1.4,Linux x86_64,59.9880024,,,0.025,,,,,,,,,,Stimuli/psy_flexible_rotation_30_objects_occ0.7_0.9s/images/train/n04379243_8/n03928116_4/img_glass_table_dp_33_b_2013__vray_2011_gray.jpg,n04379243_8,n03928116_4,flexible,0.700601,n03928116_4,Stimuli/psy_flexible_rotation_30_objects_occ0.7_0.9s/images/train/n04379243_8/n03928116_4/img_glass_table_dp_33_b_2013__vray_2011-3_gray.png,foreground,same as foreground,n04379243_8,n03928116_4,Stimuli/canonical view 2/img_n04379243_8_gray.jpg,Stimuli/canonical view 2/img_n03928116_4_gray.jpg,foreground,left,Experiments/experiment_17/256.jpg,Experiments/experiment_17/257.jpg,Experiments/experiment_17/258.jpg,Experiments/experiment_17/259.jpg,,,right,"[""right""]",[0.5851000003814306],False,,0.0,0.0,64.0,64.0,64.0,1.0,,,,,,
,,,,,,,,,,,,,,,,,,,,,,,,,,985,1,2023-04-17_18h50.51.056,Occlusion_Psychophysics,2022.1.4,Linux x86_64,59.9880024,,,0.025,,,,,,,,,,Stimuli/psy_flexible_rotation_30_objects_occ0.7_0.9s/images/train/n02818832_9/n02883344_0/img_bed01_blue_b03_box_2006_gray.jpg,n02818832_9,n02883344_0,flexible,0.714305,n02883344_0,Stimuli/psy_flexible_rotation_30_objects_occ0.7_0.9s/images/train/n02818832_9/n02883344_0/img_bed01_blue_b03_box_2006-3_gray.png,foreground,same as foreground,n02818832_9,n02883344_0,Stimuli/canonical view 2/img_n02818832_9_gray.jpg,Stimuli/canonical view 2/img_n02883344_0_gray.jpg,foreground,left,Experiments/experiment_17/260.jpg,Experiments/experiment_17/261.jpg,Experiments/experiment_17/262.jpg,Experiments/experiment_17/263.jpg,,,left,"[""left""]",[0.5928999996185667],False,,0.0,0.0,65.0,65.0,65.0,1.0,,,,,,
,,,,,,,,,,,,,,,,,,,,,,,,,,985,1,2023-04-17_18h50.51.056,Occlusion_Psychophysics,2022.1.4,Linux x86_64,59.9880024,,,0.05,,,,,,,,,,Stimuli/psy_flexible_rotation_30_objects_occ0.7_0.9s/images/train/n03928116_4/n03928116_0/img_dp_33_b_2013__vray_b02_piano_2001_gray.jpg,n03928116_4,n03928116_0,flexible,0.735272,n04256520_9,Stimuli/psy_flexible_rotation_30_objects_occ0.7_0.9s/images/train/n02828884_4/n04256520_9/img_b05_c-5_classic_series_bench-2012_napoleon_iii_sofa_2006-3_gray.png,random,flexible,n03928116_4,n03928116_0,Stimuli/canonical view 2/img_n03928116_4_gray.jpg,Stimuli/canonical view 2/img_n03928116_0_gray.jpg,foreground,right,Experiments/experiment_17/264.jpg,Experiments/experiment_17/265.jpg,Experiments/experiment_17/266.jpg,Experiments/experiment_17/267.jpg,,,left,"[""left""]",[0.6812999997138149],False,,0.0,0.0,66.0,66.0,66.0,1.0,,,,,,
,,,,,,,,,,,,,,,,,,,,,,,,,,985,1,2023-04-17_18h50.51.056,Occlusion_Psychophysics,2022.1.4,Linux x86_64,59.9880024,,,0.05,,,,,,,,,,Stimuli/psy_fixed_rotation_30_objects_occ0.7_0.9s/images/train/n02883344_15/n03928116_0/img_microwave_box_b02_piano_2009_gray.jpg,n02883344_15,n03928116_0,fixed,0.703186,n04379243_0,Stimuli/psy_fixed_rotation_30_objects_occ0.7_0.9s/images/train/n02883344_-1/n04379243_0/img_woven_box_17th_c._monastery_dining_table_2010_2012-3_gray.png,random,fixed,n02883344_15,n03001627_9,Stimuli/canonical view 2/img_n02883344_15_gray.jpg,Stimuli/canonical view 2/img_n03001627_9_gray.jpg,random,right,Experiments/experiment_17/268.jpg,Experiments/experiment_17/269.jpg,Experiments/experiment_17/270.jpg,Experiments/experiment_17/271.jpg,,,left,"[""right""]",[1.5470000000000255],False,,0.0,0.0,67.0,67.0,67.0,1.0,,,,,,
,,,,,,,,,,,,,,,,,,,,,,,,,,985,1,2023-04-17_18h50.51.056,Occlusion_Psychophysics,2022.1.4,Linux x86_64,59.9880024,,,0.025,,,,,,,,,,Stimuli/psy_fixed_rotation_30_objects_occ0.7_0.9s/images/train/n04379243_8/n02818832_0/img_glass_table_b03_the_sofa_and_chair_company_-_stanley_bed_2014_2012_gray.jpg,n04379243_8,n02818832_0,fixed,0.70796,n04256520_5,Stimuli/psy_flexible_rotation_30_objects_occ0.7_0.9s/images/train/n04379243_0/n04256520_5/img_17th_c._monastery_dining_table_2010_meridiani_belmondo_bench_sofa_2003-3_gray.png,random,flexible,n04379243_8,n03928116_4,Stimuli/canonical view 2/img_n04379243_8_gray.jpg,Stimuli/canonical view 2/img_n03928116_4_gray.jpg,random,right,Experiments/experiment_17/272.jpg,Experiments/experiment_17/273.jpg,Experiments/experiment_17/274.jpg,Experiments/experiment_17/275.jpg,,,right,"[""right""]",[0.6933000001906748],True,right,1.0,0.0,68.0,68.0,68.0,1.0,1.2346,,,,,
,,,,,,,,,,,,,,,,,,,,,,,,,,985,1,2023-04-17_18h50.51.056,Occlusion_Psychophysics,2022.1.4,Linux x86_64,59.9880024,,,0.05,,,,,,,,,,Stimuli/psy_fixed_rotation_30_objects_occ0.7_0.9s/images/train/n04256520_9/n02933112_-2/img_napoleon_iii_sofa_sink_base_white_wood_2013_gray.jpg,n04256520_9,n02933112_-2,fixed,0.700563,n02933112_-2,Stimuli/psy_fixed_rotation_30_objects_occ0.7_0.9s/images/train/n04256520_9/n02933112_-2/img_napoleon_iii_sofa_sink_base_white_wood_2013-3_gray.png,foreground,same as foreground,n04256520_9,n02828884_9,Stimuli/canonical view 2/img_n04256520_9_gray.jpg,Stimuli/canonical view 2/img_n02828884_9_gray.jpg,random,left,Experiments/experiment_17/276.jpg,Experiments/experiment_17/277.jpg,Experiments/experiment_17/278.jpg,Experiments/experiment_17/279.jpg,,,left,"[""left""]",[0.5802999997139295],False,,0.0,0.0,69.0,69.0,69.0,1.0,,,,,,
,,,,,,,,,,,,,,,,,,,,,,,,,,985,1,2023-04-17_18h50.51.056,Occlusion_Psychophysics,2022.1.4,Linux x86_64,59.9880024,,,0.025,,,,,,,,,,Stimuli/psy_flexible_rotation_30_objects_occ0.7_0.9s/images/train/n02818832_0/n02828884_4/img_b03_the_sofa_and_chair_company_-_stanley_bed_2014_b05_c-5_classic_series_bench-2012_2005_gray.jpg,n02818832_0,n02828884_4,flexible,0.731824,n02828884_4,Stimuli/psy_flexible_rotation_30_objects_occ0.7_0.9s/images/train/n02818832_0/n02828884_4/img_b03_the_sofa_and_chair_company_-_stanley_bed_2014_b05_c-5_classic_series_bench-2012_2005-3_gray.png,foreground,same as foreground,n02818832_0,n02828884_4,Stimuli/canonical view 2/img_n02818832_0_gray.jpg,Stimuli/canonical view 2/img_n02828884_4_gray.jpg,foreground,right,Experiments/experiment_17/280.jpg,Experiments/experiment_17/281.jpg,Experiments/experiment_17/282.jpg,Experiments/experiment_17/283.jpg,,,right,"[""right""]",[0.7719000000953429],False,,0.0,0.0,70.0,70.0,70.0,1.0,,,,,,
,,,,,,,,,,,,,,,,,,,,,,,,,,985,1,2023-04-17_18h50.51.056,Occlusion_Psychophysics,2022.1.4,Linux x86_64,59.9880024,,,0.025,,,,,,,,,,Stimuli/psy_fixed_rotation_30_objects_occ0.7_0.9s/images/train/n04256520_5/n04256520_4/img_meridiani_belmondo_bench_sofa_club_house_italia_nautilus_sofa_2007_gray.jpg,n04256520_5,n04256520_4,fixed,0.733418,n04405907_8,Stimuli/psy_flexible_rotation_30_objects_occ0.7_0.9s/images/train/n02883344_-1/n04405907_8/img_woven_box_stylized_tv_2006-3_gray.png,random,flexible,n04256520_5,n02883344_-1,Stimuli/canonical view 2/img_n04256520_5_gray.jpg,Stimuli/canonical view 2/img_n02883344_-1_gray.jpg,random,left,Experiments/experiment_17/284.jpg,Experiments/experiment_17/285.jpg,Experiments/experiment_17/286.jpg,Experiments/experiment_17/287.jpg,,,right,"[""right""]",[0.8455000000000155],False,,0.0,0.0,71.0,71.0,71.0,1.0,,,,,,
,,,,,,,,,,,,,,,,,,,,,,,,,,985,1,2023-04-17_18h50.51.056,Occlusion_Psychophysics,2022.1.4,Linux x86_64,59.9880024,,,0.05,,,,,,,,,,Stimuli/psy_fixed_rotation_30_objects_occ0.7_0.9s/images/train/n02933112_4/n04379243_-7/img_buffet_quatre_dining_table_2014_gray.jpg,n02933112_4,n04379243_-7,fixed,0.742374,n02933112_-2,Stimuli/psy_flexible_rotation_30_objects_occ0.7_0.9s/images/train/n03928116_0/n02933112_-2/img_b02_piano_sink_base_white_wood_2009-3_gray.png,random,flexible,n02933112_4,n04256520_5,Stimuli/canonical view 2/img_n02933112_4_gray.jpg,Stimuli/canonical view 2/img_n04256520_5_gray.jpg,random,right,Experiments/experiment_17/288.jpg,Experiments/experiment_17/289.jpg,Experiments/experiment_17/290.jpg,Experiments/experiment_17/291.jpg,,,right,"[""right""]",[0.6107999997138904],False,,0.0,0.0,72.0,72.0,72.0,1.0,,,,,,
,,,,,,,,,,,,,,,,,,,,,,,,,,985,1,2023-04-17_18h50.51.056,Occlusion_Psychophysics,2022.1.4,Linux x86_64,59.9880024,,,0.05,,,,,,,,,,Stimuli/psy_fixed_rotation_30_objects_occ0.7_0.9s/images/train/n02933112_-18/n04405907_5/img_cgaxis_models_48_26_vray_composite_samsung_40_uhd_smart_tv_2011_2010_gray.jpg,n02933112_-18,n04405907_5,fixed,0.750894,n04405907_5,Stimuli/psy_fixed_rotation_30_objects_occ0.7_0.9s/images/train/n02933112_-18/n04405907_5/img_cgaxis_models_48_26_vray_composite_samsung_40_uhd_smart_tv_2011_2010-3_gray.png,foreground,same as foreground,n02933112_-18,n03001627_-2,Stimuli/canonical view 2/img_n02933112_-18_gray.jpg,Stimuli/canonical view 2/img_n03001627_-2_gray.jpg,random,right,Experiments/experiment_17/292.jpg,Experiments/experiment_17/293.jpg,Experiments/experiment_17/294.jpg,Experiments/experiment_17/295.jpg,,,left,"[""right""]",[0.7977000002861132],False,,0.0,0.0,73.0,73.0,73.0,1.0,,,,,,
,,,,,,,,,,,,,,,,,,,,,,,,,,985,1,2023-04-17_18h50.51.056,Occlusion_Psychophysics,2022.1.4,Linux x86_64,59.9880024,,,0.05,,,,,,,,,,Stimuli/psy_fixed_rotation_30_objects_occ0.7_0.9s/images/train/n02828884_3/n03928116_0/img_b04_wood_metal_park_bench_b02_piano_2014_gray.jpg,n02828884_3,n03928116_0,fixed,0.823666,n02818832_0,Stimuli/psy_fixed_rotation_30_objects_occ0.7_0.9s/images/train/n04070727_5/n02818832_0/img_b05_db_apps_tech_06_13_composite_b03_the_sofa_and_chair_company_-_stanley_bed_2014_2012-3_gray.png,random,fixed,n02828884_3,n03928116_0,Stimuli/canonical view 2/img_n02828884_3_gray.jpg,Stimuli/canonical view 2/img_n03928116_0_gray.jpg,foreground,right,Experiments/experiment_17/296.jpg,Experiments/experiment_17/297.jpg,Experiments/experiment_17/298.jpg,Experiments/experiment_17/299.jpg,,,right,"[""right""]",[1.0395000000000891],True,left,1.0,0.0,74.0,74.0,74.0,1.0,0.7032,,,,,
,,,,,,,,,,,,,,,,,,,,,,,,,,985,1,2023-04-17_18h50.51.056,Occlusion_Psychophysics,2022.1.4,Linux x86_64,59.9880024,,,0.05,,,,,,,,,,Stimuli/psy_flexible_rotation_30_objects_occ0.7_0.9s/images/train/n04405907_9/n04405907_5/img_vray_004_samsung_40_uhd_smart_tv_2011_2008_gray.jpg,n04405907_9,n04405907_5,flexible,0.791172,n04405907_5,Stimuli/psy_flexible_rotation_30_objects_occ0.7_0.9s/images/train/n04405907_9/n04405907_5/img_vray_004_samsung_40_uhd_smart_tv_2011_2008-3_gray.png,foreground,same as foreground,n04405907_9,n02933112_4,Stimuli/canonical view 2/img_n04405907_9_gray.jpg,Stimuli/canonical view 2/img_n02933112_4_gray.jpg,random,right,Experiments/experiment_17/300.jpg,Experiments/experiment_17/301.jpg,Experiments/experiment_17/302.jpg,Experiments/experiment_17/303.jpg,,,right,"[""right""]",[1.3550000000000182],False,,0.0,0.0,75.0,75.0,75.0,1.0,,,,,,
,,,,,,,,,,,,,,,,,,,,,,,,,,985,1,2023-04-17_18h50.51.056,Occlusion_Psychophysics,2022.1.4,Linux x86_64,59.9880024,,,0.025,,,,,,,,,,Stimuli/psy_flexible_rotation_30_objects_occ0.7_0.9s/images/train/n04405907_8/n04256520_4/img_stylized_tv_club_house_italia_nautilus_sofa_2012_gray.jpg,n04405907_8,n04256520_4,flexible,0.708656,n04256520_4,Stimuli/psy_flexible_rotation_30_objects_occ0.7_0.9s/images/train/n04405907_8/n04256520_4/img_stylized_tv_club_house_italia_nautilus_sofa_2012-3_gray.png,foreground,same as foreground,n04405907_8,n04256520_4,Stimuli/canonical view 2/img_n04405907_8_gray.jpg,Stimuli/canonical view 2/img_n04256520_4_gray.jpg,foreground,left,Experiments/experiment_17/304.jpg,Experiments/experiment_17/305.jpg,Experiments/experiment_17/306.jpg,Experiments/experiment_17/307.jpg,,,right,"[""left""]",[1.0312999997138377],False,,0.0,0.0,76.0,76.0,76.0,1.0,,,,,,
,,,,,,,,,,,,,,,,,,,,,,,,,,985,1,2023-04-17_18h50.51.056,Occlusion_Psychophysics,2022.1.4,Linux x86_64,59.9880024,,,0.025,,,,,,,,,,Stimuli/psy_flexible_rotation_30_objects_occ0.7_0.9s/images/train/n02818832_9/n02883344_0/img_bed01_blue_b03_box_2006_gray.jpg,n02818832_9,n02883344_0,flexible,0.714305,n02883344_0,Stimuli/psy_flexible_rotation_30_objects_occ0.7_0.9s/images/train/n02818832_9/n02883344_0/img_bed01_blue_b03_box_2006-3_gray.png,foreground,same as foreground,n02818832_9,n03928116_4,Stimuli/canonical view 2/img_n02818832_9_gray.jpg,Stimuli/canonical view 2/img_n03928116_4_gray.jpg,random,left,Experiments/experiment_17/308.jpg,Experiments/experiment_17/309.jpg,Experiments/experiment_17/310.jpg,Experiments/experiment_17/311.jpg,,,right,"[""right""]",[0.6595999999046853],False,,0.0,0.0,77.0,77.0,77.0,1.0,,,,,,
,,,,,,,,,,,,,,,,,,,,,,,,,,985,1,2023-04-17_18h50.51.056,Occlusion_Psychophysics,2022.1.4,Linux x86_64,59.9880024,,,0.025,,,,,,,,,,Stimuli/psy_flexible_rotation_30_objects_occ0.7_0.9s/images/train/n03928116_10/n02933112_-2/img_ydp_103_r_2012__vray_sink_base_white_wood_2006_gray.jpg,n03928116_10,n02933112_-2,flexible,0.704227,n02933112_-2,Stimuli/psy_flexible_rotation_30_objects_occ0.7_0.9s/images/train/n03928116_10/n02933112_-2/img_ydp_103_r_2012__vray_sink_base_white_wood_2006-3_gray.png,foreground,same as foreground,n03928116_10,n02883344_-1,Stimuli/canonical view 2/img_n03928116_10_gray.jpg,Stimuli/canonical view 2/img_n02883344_-1_gray.jpg,random,left,Experiments/experiment_17/312.jpg,Experiments/experiment_17/313.jpg,Experiments/experiment_17/314.jpg,Experiments/experiment_17/315.jpg,,,right,"[""right""]",[0.8776000003815625],False,,0.0,0.0,78.0,78.0,78.0,1.0,,,,,,
,,,,,,,,,,,,,,,,,,,,,,,,,,985,1,2023-04-17_18h50.51.056,Occlusion_Psychophysics,2022.1.4,Linux x86_64,59.9880024,,,0.05,,,,,,,,,,Stimuli/psy_fixed_rotation_30_objects_occ0.7_0.9s/images/train/n03928116_0/n04256520_4/img_b02_piano_club_house_italia_nautilus_sofa_2003_gray.jpg,n03928116_0,n04256520_4,fixed,0.731103,n02818832_0,Stimuli/psy_fixed_rotation_30_objects_occ0.7_0.9s/images/train/n04256520_4/n02818832_0/img_club_house_italia_nautilus_sofa_b03_the_sofa_and_chair_company_-_stanley_bed_2014_2011-3_gray.png,random,fixed,n03928116_0,n02828884_4,Stimuli/canonical view 2/img_n03928116_0_gray.jpg,Stimuli/canonical view 2/img_n02828884_4_gray.jpg,random,right,Experiments/experiment_17/316.jpg,Experiments/experiment_17/317.jpg,Experiments/experiment_17/318.jpg,Experiments/experiment_17/319.jpg,,,right,"[""left""]",[1.4285999999046908],False,,0.0,0.0,79.0,79.0,79.0,1.0,,,,,,
,,,,,,,,,,,,,,,,,,,,,,,,,,985,1,2023-04-17_18h50.51.056,Occlusion_Psychophysics,2022.1.4,Linux x86_64,59.9880024,,,0.025,,,,,,,,,,Stimuli/psy_flexible_rotation_30_objects_occ0.7_0.9s/images/train/n02883344_0/n02818832_9/img_b03_box_bed01_blue_2015_gray.jpg,n02883344_0,n02818832_9,flexible,0.722821,n02883344_0,Stimuli/psy_fixed_rotation_30_objects_occ0.7_0.9s/images/train/n04256520_4/n02883344_0/img_club_house_italia_nautilus_sofa_b03_box_2008-3_gray.png,random,fixed,n02883344_0,n02818832_9,Stimuli/canonical view 2/img_n02883344_0_gray.jpg,Stimuli/canonical view 2/img_n02818832_9_gray.jpg,foreground,right,Experiments/experiment_17/320.jpg,Experiments/experiment_17/321.jpg,Experiments/experiment_17/322.jpg,Experiments/experiment_17/323.jpg,,,left,"[""right""]",[0.7810999999046544],False,,0.0,0.0,80.0,80.0,80.0,1.0,,,,,,
,,,,,,,,,,,,,,,,,,,,,,,,,,985,1,2023-04-17_18h50.51.056,Occlusion_Psychophysics,2022.1.4,Linux x86_64,59.9880024,,,0.05,,,,,,,,,,Stimuli/psy_fixed_rotation_30_objects_occ0.7_0.9s/images/train/n02933112_-2/n02818832_0/img_sink_base_white_wood_b03_the_sofa_and_chair_company_-_stanley_bed_2014_2010_gray.jpg,n02933112_-2,n02818832_0,fixed,0.772423,n04405907_8,Stimuli/psy_flexible_rotation_30_objects_occ0.7_0.9s/images/train/n03001627_8/n04405907_8/img_chair_billiani_doll_stylized_tv_2015-3_gray.png,random,flexible,n02933112_-2,n03928116_4,Stimuli/canonical view 2/img_n02933112_-2_gray.jpg,Stimuli/canonical view 2/img_n03928116_4_gray.jpg,random,right,Experiments/experiment_17/324.jpg,Experiments/experiment_17/325.jpg,Experiments/experiment_17/326.jpg,Experiments/experiment_17/327.jpg,,,right,"[""right""]",[0.6481999998093215],False,,0.0,0.0,81.0,81.0,81.0,1.0,,,,,,
,,,,,,,,,,,,,,,,,,,,,,,,,,985,1,2023-04-17_18h50.51.056,Occlusion_Psychophysics,2022.1.4,Linux x86_64,59.9880024,,,0.025,,,,,,,,,,Stimuli/psy_flexible_rotation_30_objects_occ0.7_0.9s/images/train/n04379243_8/n02933112_-2/img_glass_table_sink_base_white_wood_2006_gray.jpg,n04379243_8,n02933112_-2,flexible,0.701162,n02828884_3,Stimuli/psy_flexible_rotation_30_objects_occ0.7_0.9s/images/train/n04405907_5/n02828884_3/img_samsung_40_uhd_smart_tv_2011_b04_wood_metal_park_bench_2005-3_gray.png,random,flexible,n04379243_8,n04256520_4,Stimuli/canonical view 2/img_n04379243_8_gray.jpg,Stimuli/canonical view 2/img_n04256520_4_gray.jpg,random,right,Experiments/experiment_17/328.jpg,Experiments/experiment_17/329.jpg,Experiments/experiment_17/330.jpg,Experiments/experiment_17/331.jpg,,,left,"[""left""]",[0.99350000000004],False,,0.0,0.0,82.0,82.0,82.0,1.0,,,,,,
,,,,,,,,,,,,,,,,,,,,,,,,,,985,1,2023-04-17_18h50.51.056,Occlusion_Psychophysics,2022.1.4,Linux x86_64,59.9880024,,,0.025,,,,,,,,,,Stimuli/psy_fixed_rotation_30_objects_occ0.7_0.9s/images/train/n04256520_9/n02933112_-2/img_napoleon_iii_sofa_sink_base_white_wood_2013_gray.jpg,n04256520_9,n02933112_-2,fixed,0.700563,n02933112_-2,Stimuli/psy_fixed_rotation_30_objects_occ0.7_0.9s/images/train/n04256520_9/n02933112_-2/img_napoleon_iii_sofa_sink_base_white_wood_2013-3_gray.png,foreground,same as foreground,n04256520_9,n02933112_-2,Stimuli/canonical view 2/img_n04256520_9_gray.jpg,Stimuli/canonical view 2/img_n02933112_-2_gray.jpg,foreground,left,Experiments/experiment_17/332.jpg,Experiments/experiment_17/333.jpg,Experiments/experiment_17/334.jpg,Experiments/experiment_17/335.jpg,,,left,"[""left""]",[0.8228999996183575],False,,0.0,0.0,83.0,83.0,83.0,1.0,,,,,,
,,,,,,,,,,,,,,,,,,,,,,,,,,985,1,2023-04-17_18h50.51.056,Occlusion_Psychophysics,2022.1.4,Linux x86_64,59.9880024,,,0.025,,,,,,,,,,Stimuli/psy_flexible_rotation_30_objects_occ0.7_0.9s/images/train/n04379243_8/n03928116_10/img_glass_table_ydp_103_r_2012__vray_2001_gray.jpg,n04379243_8,n03928116_10,flexible,0.752665,n03928116_10,Stimuli/psy_flexible_rotation_30_objects_occ0.7_0.9s/images/train/n04379243_8/n03928116_10/img_glass_table_ydp_103_r_2012__vray_2001-3_gray.png,foreground,same as foreground,n04379243_8,n03928116_10,Stimuli/canonical view 2/img_n04379243_8_gray.jpg,Stimuli/canonical view 2/img_n03928116_10_gray.jpg,foreground,left,Experiments/experiment_17/336.jpg,Experiments/experiment_17/337.jpg,Experiments/experiment_17/338.jpg,Experiments/experiment_17/339.jpg,,,right,"[""right""]",[0.5065999999046653],True,right,1.0,0.0,84.0,84.0,84.0,1.0,0.6562,,,,,
,,,,,,,,,,,,,,,,,,,,,,,,,,985,1,2023-04-17_18h50.51.056,Occlusion_Psychophysics,2022.1.4,Linux x86_64,59.9880024,,,0.025,,,,,,,,,,Stimuli/psy_flexible_rotation_30_objects_occ0.7_0.9s/images/train/n02828884_4/n04405907_8/img_b05_c-5_classic_series_bench-2012_stylized_tv_2011_gray.jpg,n02828884_4,n04405907_8,flexible,0.708134,n04405907_8,Stimuli/psy_flexible_rotation_30_objects_occ0.7_0.9s/images/train/n02828884_4/n04405907_8/img_b05_c-5_classic_series_bench-2012_stylized_tv_2011-3_gray.png,foreground,same as foreground,n02828884_4,n04405907_8,Stimuli/canonical view 2/img_n02828884_4_gray.jpg,Stimuli/canonical view 2/img_n04405907_8_gray.jpg,foreground,left,Experiments/experiment_17/340.jpg,Experiments/experiment_17/341.jpg,Experiments/experiment_17/342.jpg,Experiments/experiment_17/343.jpg,,,right,"[""right""]",[0.8885000000000218],False,,0.0,0.0,85.0,85.0,85.0,1.0,,,,,,
,,,,,,,,,,,,,,,,,,,,,,,,,,985,1,2023-04-17_18h50.51.056,Occlusion_Psychophysics,2022.1.4,Linux x86_64,59.9880024,,,0.05,,,,,,,,,,Stimuli/psy_flexible_rotation_30_objects_occ0.7_0.9s/images/train/n02933112_-18/n04405907_8/img_cgaxis_models_48_26_vray_composite_stylized_tv_2000_gray.jpg,n02933112_-18,n04405907_8,flexible,0.770255,n02828884_3,Stimuli/psy_fixed_rotation_30_objects_occ0.7_0.9s/images/train/n02828884_4/n02828884_3/img_b05_c-5_classic_series_bench-2012_b04_wood_metal_park_bench_2013-3_gray.png,random,fixed,n02933112_-18,n04405907_8,Stimuli/canonical view 2/img_n02933112_-18_gray.jpg,Stimuli/canonical view 2/img_n04405907_8_gray.jpg,foreground,right,Experiments/experiment_17/344.jpg,Experiments/experiment_17/345.jpg,Experiments/experiment_17/346.jpg,Experiments/experiment_17/347.jpg,,,right,"[""right""]",[1.1562999997138377],False,,0.0,0.0,86.0,86.0,86.0,1.0,,,,,,
,,,,,,,,,,,,,,,,,,,,,,,,,,985,1,2023-04-17_18h50.51.056,Occlusion_Psychophysics,2022.1.4,Linux x86_64,59.9880024,,,0.05,,,,,,,,,,Stimuli/psy_fixed_rotation_30_objects_occ0.7_0.9s/images/train/n03001627_9/n03928116_0/img_chair_eames_plastic_armchair_b02_piano_2006_gray.jpg,n03001627_9,n03928116_0,fixed,0.835589,n03928116_0,Stimuli/psy_fixed_rotation_30_objects_occ0.7_0.9s/images/train/n03001627_9/n03928116_0/img_chair_eames_plastic_armchair_b02_piano_2006-3_gray.png,foreground,same as foreground,n03001627_9,n03928116_0,Stimuli/canonical view 2/img_n03001627_9_gray.jpg,Stimuli/canonical view 2/img_n03928116_0_gray.jpg,foreground,right,Experiments/experiment_17/348.jpg,Experiments/experiment_17/349.jpg,Experiments/experiment_17/350.jpg,Experiments/experiment_17/351.jpg,,,left,"[""left""]",[0.755500000000211],False,,0.0,0.0,87.0,87.0,87.0,1.0,,,,,,
,,,,,,,,,,,,,,,,,,,,,,,,,,985,1,2023-04-17_18h50.51.056,Occlusion_Psychophysics,2022.1.4,Linux x86_64,59.9880024,,,0.025,,,,,,,,,,Stimuli/psy_flexible_rotation_30_objects_occ0.7_0.9s/images/train/n03928116_0/n04256520_5/img_b02_piano_meridiani_belmondo_bench_sofa_2000_gray.jpg,n03928116_0,n04256520_5,flexible,0.74554,n03928116_0,Stimuli/psy_fixed_rotation_30_objects_occ0.7_0.9s/images/train/n02828884_3/n03928116_0/img_b04_wood_metal_park_bench_b02_piano_2002-3_gray.png,random,fixed,n03928116_0,n02933112_-2,Stimuli/canonical view 2/img_n03928116_0_gray.jpg,Stimuli/canonical view 2/img_n02933112_-2_gray.jpg,random,left,Experiments/experiment_17/352.jpg,Experiments/experiment_17/353.jpg,Experiments/experiment_17/354.jpg,Experiments/experiment_17/355.jpg,,,right,"[""right""]",[1.760799999713754],False,,0.0,0.0,88.0,88.0,88.0,1.0,,,,,,
,,,,,,,,,,,,,,,,,,,,,,,,,,985,1,2023-04-17_18h50.51.056,Occlusion_Psychophysics,2022.1.4,Linux x86_64,59.9880024,,,0.05,,,,,,,,,,Stimuli/psy_fixed_rotation_30_objects_occ0.7_0.9s/images/train/n02933112_-2/n02883344_0/img_sink_base_white_wood_b03_box_2001_gray.jpg,n02933112_-2,n02883344_0,fixed,0.733103,n02883344_15,Stimuli/psy_flexible_rotation_30_objects_occ0.7_0.9s/images/train/n04379243_-7/n02883344_15/img_quatre_dining_table_microwave_box_2005-3_gray.png,random,flexible,n02933112_-2,n02818832_9,Stimuli/canonical view 2/img_n02933112_-2_gray.jpg,Stimuli/canonical view 2/img_n02818832_9_gray.jpg,random,right,Experiments/experiment_17/356.jpg,Experiments/experiment_17/357.jpg,Experiments/experiment_17/358.jpg,Experiments/experiment_17/359.jpg,,,left,"[""left""]",[0.881400000095482],False,,0.0,0.0,89.0,89.0,89.0,1.0,,,,,,
,,,,,,,,,,,,,,,,,,,,,,,,,,985,1,2023-04-17_18h50.51.056,Occlusion_Psychophysics,2022.1.4,Linux x86_64,59.9880024,,,0.05,,,,,,,,,,Stimuli/psy_flexible_rotation_30_objects_occ0.7_0.9s/images/train/n02933112_4/n02883344_0/img_buffet_b03_box_2011_gray.jpg,n02933112_4,n02883344_0,flexible,0.709024,n02883344_15,Stimuli/psy_flexible_rotation_30_objects_occ0.7_0.9s/images/train/n04070727_0/n02883344_15/img_b03_ka90ivi20r_2013__vray_microwave_box_2011-3_gray.png,random,flexible,n02933112_4,n03928116_0,Stimuli/canonical view 2/img_n02933112_4_gray.jpg,Stimuli/canonical view 2/img_n03928116_0_gray.jpg,random,left,Experiments/experiment_17/360.jpg,Experiments/experiment_17/361.jpg,Experiments/experiment_17/362.jpg,Experiments/experiment_17/363.jpg,,,left,"[""left""]",[0.7258000001907021],False,,0.0,0.0,90.0,90.0,90.0,1.0,,,,,,
,,,,,,,,,,,,,,,,,,,,,,,,,,985,1,2023-04-17_18h50.51.056,Occlusion_Psychophysics,2022.1.4,Linux x86_64,59.9880024,,,0.025,,,,,,,,,,Stimuli/psy_flexible_rotation_30_objects_occ0.7_0.9s/images/train/n03928116_10/n02933112_4/img_ydp_103_r_2012__vray_buffet_2008_gray.jpg,n03928116_10,n02933112_4,flexible,0.747192,n02933112_4,Stimuli/psy_flexible_rotation_30_objects_occ0.7_0.9s/images/train/n03928116_10/n02933112_4/img_ydp_103_r_2012__vray_buffet_2008-3_gray.png,foreground,same as foreground,n03928116_10,n04405907_9,Stimuli/canonical view 2/img_n03928116_10_gray.jpg,Stimuli/canonical view 2/img_n04405907_9_gray.jpg,random,right,Experiments/experiment_17/364.jpg,Experiments/experiment_17/365.jpg,Experiments/experiment_17/366.jpg,Experiments/experiment_17/367.jpg,,,left,"[""left""]",[0.8235999999046726],False,,0.0,0.0,91.0,91.0,91.0,1.0,,,,,,
,,,,,,,,,,,,,,,,,,,,,,,,,,985,1,2023-04-17_18h50.51.056,Occlusion_Psychophysics,2022.1.4,Linux x86_64,59.9880024,,,0.05,,,,,,,,,,Stimuli/psy_fixed_rotation_30_objects_occ0.7_0.9s/images/train/n02828884_4/n04405907_8/img_b05_c-5_classic_series_bench-2012_stylized_tv_2002_gray.jpg,n02828884_4,n04405907_8,fixed,0.701316,n04405907_8,Stimuli/psy_fixed_rotation_30_objects_occ0.7_0.9s/images/train/n02828884_4/n04405907_8/img_b05_c-5_classic_series_bench-2012_stylized_tv_2002-3_gray.png,foreground,same as foreground,n02828884_4,n04405907_8,Stimuli/canonical view 2/img_n02828884_4_gray.jpg,Stimuli/canonical view 2/img_n04405907_8_gray.jpg,foreground,right,Experiments/experiment_17/368.jpg,Experiments/experiment_17/369.jpg,Experiments/experiment_17/370.jpg,Experiments/experiment_17/371.jpg,,,right,"[""right""]",[0.572399999618483],False,,0.0,0.0,92.0,92.0,92.0,1.0,,,,,,
,,,,,,,,,,,,,,,,,,,,,,,,,,985,1,2023-04-17_18h50.51.056,Occlusion_Psychophysics,2022.1.4,Linux x86_64,59.9880024,,,0.05,,,,,,,,,,Stimuli/psy_flexible_rotation_30_objects_occ0.7_0.9s/images/train/n02933112_-18/n02933112_-2/img_cgaxis_models_48_26_vray_composite_sink_base_white_wood_2007_gray.jpg,n02933112_-18,n02933112_-2,flexible,0.758483,n02933112_-2,Stimuli/psy_flexible_rotation_30_objects_occ0.7_0.9s/images/train/n02933112_-18/n02933112_-2/img_cgaxis_models_48_26_vray_composite_sink_base_white_wood_2007-3_gray.png,foreground,same as foreground,n02933112_-18,n02933112_-2,Stimuli/canonical view 2/img_n02933112_-18_gray.jpg,Stimuli/canonical view 2/img_n02933112_-2_gray.jpg,foreground,left,Experiments/experiment_17/372.jpg,Experiments/experiment_17/373.jpg,Experiments/experiment_17/374.jpg,Experiments/experiment_17/375.jpg,,,right,"[""right""]",[1.4278000001907003],False,,0.0,0.0,93.0,93.0,93.0,1.0,,,,,,
,,,,,,,,,,,,,,,,,,,,,,,,,,985,1,2023-04-17_18h50.51.056,Occlusion_Psychophysics,2022.1.4,Linux x86_64,59.9880024,,,0.05,,,,,,,,,,Stimuli/psy_fixed_rotation_30_objects_occ0.7_0.9s/images/train/n03001627_9/n03928116_0/img_chair_eames_plastic_armchair_b02_piano_2001_gray.jpg,n03001627_9,n03928116_0,fixed,0.816057,n03928116_0,Stimuli/psy_fixed_rotation_30_objects_occ0.7_0.9s/images/train/n03001627_9/n03928116_0/img_chair_eames_plastic_armchair_b02_piano_2001-3_gray.png,foreground,same as foreground,n03001627_9,n03928116_0,Stimuli/canonical view 2/img_n03001627_9_gray.jpg,Stimuli/canonical view 2/img_n03928116_0_gray.jpg,foreground,left,Experiments/experiment_17/376.jpg,Experiments/experiment_17/377.jpg,Experiments/experiment_17/378.jpg,Experiments/experiment_17/379.jpg,,,right,"[""right""]",[0.8597999997139141],False,,0.0,0.0,94.0,94.0,94.0,1.0,,,,,,
,,,,,,,,,,,,,,,,,,,,,,,,,,985,1,2023-04-17_18h50.51.056,Occlusion_Psychophysics,2022.1.4,Linux x86_64,59.9880024,,,0.05,,,,,,,,,,Stimuli/psy_flexible_rotation_30_objects_occ0.7_0.9s/images/train/n03001627_9/n03928116_0/img_chair_eames_plastic_armchair_b02_piano_2013_gray.jpg,n03001627_9,n03928116_0,flexible,0.723361,n04256520_9,Stimuli/psy_flexible_rotation_30_objects_occ0.7_0.9s/images/train/n02818832_9/n04256520_9/img_bed01_blue_napoleon_iii_sofa_2000-3_gray.png,random,flexible,n03001627_9,n02883344_-1,Stimuli/canonical view 2/img_n03001627_9_gray.jpg,Stimuli/canonical view 2/img_n02883344_-1_gray.jpg,random,right,Experiments/experiment_17/380.jpg,Experiments/experiment_17/381.jpg,Experiments/experiment_17/382.jpg,Experiments/experiment_17/383.jpg,,,right,"[""right""]",[0.7100000000000364],False,,0.0,0.0,95.0,95.0,95.0,1.0,,,,,,
,,,,,,,,,,,,,,,,,,,,,,,,,,985,1,2023-04-17_18h50.51.056,Occlusion_Psychophysics,2022.1.4,Linux x86_64,59.9880024,,,0.025,,,,,,,,,,Stimuli/psy_fixed_rotation_30_objects_occ0.7_0.9s/images/train/n02933112_4/n04405907_5/img_buffet_samsung_40_uhd_smart_tv_2011_2007_gray.jpg,n02933112_4,n04405907_5,fixed,0.729443,n04256520_4,Stimuli/psy_flexible_rotation_30_objects_occ0.7_0.9s/images/train/n02883344_15/n04256520_4/img_microwave_box_club_house_italia_nautilus_sofa_2001-3_gray.png,random,flexible,n02933112_4,n04405907_5,Stimuli/canonical view 2/img_n02933112_4_gray.jpg,Stimuli/canonical view 2/img_n04405907_5_gray.jpg,foreground,left,Experiments/experiment_17/384.jpg,Experiments/experiment_17/385.jpg,Experiments/experiment_17/386.jpg,Experiments/experiment_17/387.jpg,,,left,"[""left""]",[0.6069999999999709],False,,0.0,0.0,96.0,96.0,96.0,1.0,,,,,,
,,,,,,,,,,,,,,,,,,,,,,,,,,985,1,2023-04-17_18h50.51.056,Occlusion_Psychophysics,2022.1.4,Linux x86_64,59.9880024,,,0.025,,,,,,,,,,Stimuli/psy_flexible_rotation_30_objects_occ0.7_0.9s/images/train/n03928116_10/n02883344_0/img_ydp_103_r_2012__vray_b03_box_2009_gray.jpg,n03928116_10,n02883344_0,flexible,0.81529,n02828884_3,Stimuli/psy_flexible_rotation_30_objects_occ0.7_0.9s/images/train/n04405907_9/n02828884_3/img_vray_004_b04_wood_metal_park_bench_2010-3_gray.png,random,flexible,n03928116_10,n02883344_0,Stimuli/canonical view 2/img_n03928116_10_gray.jpg,Stimuli/canonical view 2/img_n02883344_0_gray.jpg,foreground,left,Experiments/experiment_17/388.jpg,Experiments/experiment_17/389.jpg,Experiments/experiment_17/390.jpg,Experiments/experiment_17/391.jpg,,,left,"[""left""]",[0.6600000000000819],False,,0.0,0.0,97.0,97.0,97.0,1.0,,,,,,
,,,,,,,,,,,,,,,,,,,,,,,,,,985,1,2023-04-17_18h50.51.056,Occlusion_Psychophysics,2022.1.4,Linux x86_64,59.9880024,,,0.025,,,,,,,,,,Stimuli/psy_fixed_rotation_30_objects_occ0.7_0.9s/images/train/n03001627_-2/n03928116_0/img_wood_chair_b02_piano_2001_gray.jpg,n03001627_-2,n03928116_0,fixed,0.813159,n02883344_-1,Stimuli/psy_fixed_rotation_30_objects_occ0.7_0.9s/images/train/n04256520_9/n02883344_-1/img_napoleon_iii_sofa_woven_box_2014-3_gray.png,random,fixed,n03001627_-2,n02828884_3,Stimuli/canonical view 2/img_n03001627_-2_gray.jpg,Stimuli/canonical view 2/img_n02828884_3_gray.jpg,random,left,Experiments/experiment_17/392.jpg,Experiments/experiment_17/393.jpg,Experiments/experiment_17/394.jpg,Experiments/experiment_17/395.jpg,,,right,"[""right""]",[1.4714999999998781],False,,0.0,0.0,98.0,98.0,98.0,1.0,,,,,,
,,,,,,,,,,,,,,,,,,,,,,,,,,985,1,2023-04-17_18h50.51.056,Occlusion_Psychophysics,2022.1.4,Linux x86_64,59.9880024,,,0.025,,,,,,,,,,Stimuli/psy_fixed_rotation_30_objects_occ0.7_0.9s/images/train/n03928116_10/n03928116_0/img_ydp_103_r_2012__vray_b02_piano_2009_gray.jpg,n03928116_10,n03928116_0,fixed,0.735328,n03928116_0,Stimuli/psy_fixed_rotation_30_objects_occ0.7_0.9s/images/train/n03928116_10/n03928116_0/img_ydp_103_r_2012__vray_b02_piano_2009-3_gray.png,foreground,same as foreground,n03928116_10,n03928116_0,Stimuli/canonical view 2/img_n03928116_10_gray.jpg,Stimuli/canonical view 2/img_n03928116_0_gray.jpg,foreground,right,Experiments/experiment_17/396.jpg,Experiments/experiment_17/397.jpg,Experiments/experiment_17/398.jpg,Experiments/experiment_17/399.jpg,,,right,"[""right""]",[0.6426999998091105],False,,0.0,0.0,99.0,99.0,99.0,1.0,,,,,,
,,,,,,,,,,,,,,,,,,,,,,,,,,985,1,2023-04-17_18h50.51.056,Occlusion_Psychophysics,2022.1.4,Linux x86_64,59.9880024,,,,,,,,,,,,,,,,,,,,,,,,,,,,,,,,,,,,,,,,,,,,,,0.0,0.0,0.0,0.0,1.0
,,,,,,,,,,,,,,,,,,,,,,,,,,985,1,2023-04-17_18h50.51.056,Occlusion_Psychophysics,2022.1.4,Linux x86_64,59.9880024,,,0.025,,,,,,,,,,Stimuli/psy_flexible_rotation_30_objects_occ0.7_0.9s/images/train/n02818832_0/n04256520_9/img_b03_the_sofa_and_chair_company_-_stanley_bed_2014_napoleon_iii_sofa_2005_gray.jpg,n02818832_0,n04256520_9,flexible,0.81787,n02883344_-1,Stimuli/psy_flexible_rotation_30_objects_occ0.7_0.9s/images/train/n03001627_-2/n02883344_-1/img_wood_chair_woven_box_2006-3_gray.png,random,flexible,n02818832_0,n04256520_9,Stimuli/canonical view 2/img_n02818832_0_gray.jpg,Stimuli/canonical view 2/img_n04256520_9_gray.jpg,foreground,right,Experiments/experiment_17/400.jpg,Experiments/experiment_17/401.jpg,Experiments/experiment_17/402.jpg,Experiments/experiment_17/403.jpg,,,left,"[""left""]",[1.093499999999949],False,,0.0,0.0,0.0,0.0,0.0,1.0,,,,,,
,,,,,,,,,,,,,,,,,,,,,,,,,,985,1,2023-04-17_18h50.51.056,Occlusion_Psychophysics,2022.1.4,Linux x86_64,59.9880024,,,0.025,,,,,,,,,,Stimuli/psy_flexible_rotation_30_objects_occ0.7_0.9s/images/train/n03001627_-2/n02933112_-18/img_wood_chair_cgaxis_models_48_26_vray_composite_2002_gray.jpg,n03001627_-2,n02933112_-18,flexible,0.827007,n02933112_-18,Stimuli/psy_flexible_rotation_30_objects_occ0.7_0.9s/images/train/n03001627_-2/n02933112_-18/img_wood_chair_cgaxis_models_48_26_vray_composite_2002-3_gray.png,foreground,same as foreground,n03001627_-2,n02933112_-18,Stimuli/canonical view 2/img_n03001627_-2_gray.jpg,Stimuli/canonical view 2/img_n02933112_-18_gray.jpg,foreground,right,Experiments/experiment_17/404.jpg,Experiments/experiment_17/405.jpg,Experiments/experiment_17/406.jpg,Experiments/experiment_17/407.jpg,,,left,"[""left""]",[0.7616999998092524],True,left,1.0,0.0,1.0,1.0,1.0,1.0,0.7692,,,,,
,,,,,,,,,,,,,,,,,,,,,,,,,,985,1,2023-04-17_18h50.51.056,Occlusion_Psychophysics,2022.1.4,Linux x86_64,59.9880024,,,0.05,,,,,,,,,,Stimuli/psy_fixed_rotation_30_objects_occ0.7_0.9s/images/train/n02818832_3/n02933112_4/img_b05_ccm_contemporary_bed_max2013_buffet_2008_gray.jpg,n02818832_3,n02933112_4,fixed,0.742497,n02933112_4,Stimuli/psy_fixed_rotation_30_objects_occ0.7_0.9s/images/train/n02818832_3/n02933112_4/img_b05_ccm_contemporary_bed_max2013_buffet_2008-3_gray.png,foreground,same as foreground,n02818832_3,n02933112_4,Stimuli/canonical view 2/img_n02818832_3_gray.jpg,Stimuli/canonical view 2/img_n02933112_4_gray.jpg,foreground,left,Experiments/experiment_17/408.jpg,Experiments/experiment_17/409.jpg,Experiments/experiment_17/410.jpg,Experiments/experiment_17/411.jpg,,,left,"[""left""]",[0.5436999998091778],False,,0.0,0.0,2.0,2.0,2.0,1.0,,,,,,
,,,,,,,,,,,,,,,,,,,,,,,,,,985,1,2023-04-17_18h50.51.056,Occlusion_Psychophysics,2022.1.4,Linux x86_64,59.9880024,,,0.025,,,,,,,,,,Stimuli/psy_fixed_rotation_30_objects_occ0.7_0.9s/images/train/n03001627_-2/n02933112_4/img_wood_chair_buffet_2004_gray.jpg,n03001627_-2,n02933112_4,fixed,0.729158,n04256520_4,Stimuli/psy_fixed_rotation_30_objects_occ0.7_0.9s/images/train/n04379243_-7/n04256520_4/img_quatre_dining_table_club_house_italia_nautilus_sofa_2014-3_gray.png,random,fixed,n03001627_-2,n03001627_9,Stimuli/canonical view 2/img_n03001627_-2_gray.jpg,Stimuli/canonical view 2/img_n03001627_9_gray.jpg,random,right,Experiments/experiment_17/412.jpg,Experiments/experiment_17/413.jpg,Experiments/experiment_17/414.jpg,Experiments/experiment_17/415.jpg,,,left,"[""left""]",[1.3394000000953383],False,,0.0,0.0,3.0,3.0,3.0,1.0,,,,,,
