in_color,Instructions_key.keys,Instructions_key.rt,Tutorial_instruction_key.keys,Tutorial_instruction_key.rt,Tutorial_fixation_ley.keys,Tutorial_fixation_ley.rt,Tutorial_single_img_key.keys,Tutorial_single_img_key.rt,Tutorial_intra_trial_fixation_key.keys,Tutorial_intra_trial_fixation_key.rt,Tutorial_stimulus_key.keys,Tutorial_stimulus_key.rt,Tutorial_response_key.keys,Tutorial_response_key.rt,Tutorial_attention_check_key.keys,Tutorial_attention_check_key.rt,advance_or_repeat.keys,advance_or_repeat.rt,Practice_instructions_key.keys,Practice_instructions_key.rt,intra_trial_duration,Practice_key_response.keys,Practice_key_response.rt,Practice_react_key.keys,Practice_react_key.rt,Practice_loop.thisRepN,Practice_loop.thisTrialN,Practice_loop.thisN,Practice_loop.thisIndex,Practice_loop.ran,multi_object_filepath,background_id,foreground_id,multi_object_rotation,occlusion_level,single_object_id,single_object_filepath,single_is_foreground_or_random,single_object_rotation,background_choice_id,alt_choice_id,background_option_filepath,alternative_option_filepath,alternative_is_foreground_or_random,location_of_correct_answer,multi_object_exp_filename,single_object_exp_filename,background_option_exp_filename,alternative_option_exp_filename,participant,session,date,expName,psychopyVersion,OS,frameRate,Practice_end_key.keys,Practice_end_key.rt,correct_answer,Input_selection.keys,Input_selection.rt,Was_attention_check,Attention_check.keys,Attention_check.corr,Each_session_loop.thisRepN,Each_session_loop.thisTrialN,Each_session_loop.thisN,Each_session_loop.thisIndex,Each_session_loop.ran,Num_sessions.thisRepN,Num_sessions.thisTrialN,Num_sessions.thisN,Num_sessions.thisIndex,Num_sessions.ran,Attention_check.rt
False,return,28.2766,return,7.5512,return,6.4596,return,6.0485,return,3.3744,return,21.5659,return,6.3512,return,10.2777,a,154.3553,return,2.1689,0.025,left,4.7935,r,4.2702,0.0,0.0,0.0,0.0,1.0,Stimuli/psy_fixed_rotation_30_objects_occ0.7_0.9s/images/train/n02818832_0/n04379243_0/img_b03_the_sofa_and_chair_company_-_stanley_bed_2014_17th_c._monastery_dining_table_2010_2013_gray.jpg,n02818832_0,n04379243_0,fixed,0.740627,n04379243_0,Stimuli/psy_fixed_rotation_30_objects_occ0.7_0.9s/images/train/n02818832_0/n04379243_0/img_b03_the_sofa_and_chair_company_-_stanley_bed_2014_17th_c._monastery_dining_table_2010_2013-3_gray.png,foreground,same as foreground,n02818832_0,n04379243_0,Stimuli/canonical view 2/img_n02818832_0_gray.jpg,Stimuli/canonical view 2/img_n04379243_0_gray.jpg,foreground,left,Experiments/experiment_34/1000.jpg,Experiments/experiment_34/1001.jpg,Experiments/experiment_34/1002.jpg,Experiments/experiment_34/1003.jpg,988,1,2023-06-28_13h38.00.368,Occlusion_Psychophysics,2022.1.4,Win32,59.88741167,,,,,,,,,,,,,,,,,,,
,,,,,,,,,,,,,,,,,,,,,0.05,right,5.1921,r,4.5531,0.0,1.0,1.0,1.0,1.0,Stimuli/psy_fixed_rotation_30_objects_occ0.7_0.9s/images/train/n03001627_8/n04405907_5/img_chair_billiani_doll_samsung_40_uhd_smart_tv_2011_2012_gray.jpg,n03001627_8,n04405907_5,fixed,0.709608,n04405907_5,Stimuli/psy_fixed_rotation_30_objects_occ0.7_0.9s/images/train/n03001627_8/n04405907_5/img_chair_billiani_doll_samsung_40_uhd_smart_tv_2011_2012-3_gray.png,foreground,same as foreground,n03001627_8,n02828884_9,Stimuli/canonical view 2/img_n03001627_8_gray.jpg,Stimuli/canonical view 2/img_n02828884_9_gray.jpg,random,right,Experiments/experiment_34/1004.jpg,Experiments/experiment_34/1005.jpg,Experiments/experiment_34/1006.jpg,Experiments/experiment_34/1007.jpg,988,1,2023-06-28_13h38.00.368,Occlusion_Psychophysics,2022.1.4,Win32,59.88741167,,,,,,,,,,,,,,,,,,,
,,,,,,,,,,,,,,,,,,,,,0.025,left,2.313,a,395.4476,0.0,2.0,2.0,2.0,1.0,Stimuli/psy_fixed_rotation_30_objects_occ0.7_0.9s/images/train/n03001627_-2/n02818832_0/img_wood_chair_b03_the_sofa_and_chair_company_-_stanley_bed_2014_2001_gray.jpg,n03001627_-2,n02818832_0,fixed,0.813074,n02818832_0,Stimuli/psy_fixed_rotation_30_objects_occ0.7_0.9s/images/train/n03001627_-2/n02818832_0/img_wood_chair_b03_the_sofa_and_chair_company_-_stanley_bed_2014_2001-3_gray.png,foreground,same as foreground,n03001627_-2,n02818832_9,Stimuli/canonical view 2/img_n03001627_-2_gray.jpg,Stimuli/canonical view 2/img_n02818832_9_gray.jpg,random,right,Experiments/experiment_34/1008.jpg,Experiments/experiment_34/1009.jpg,Experiments/experiment_34/1010.jpg,Experiments/experiment_34/1011.jpg,988,1,2023-06-28_13h38.00.368,Occlusion_Psychophysics,2022.1.4,Win32,59.88741167,,,,,,,,,,,,,,,,,,,
,,,,,,,,,,,,,,,,,,,,,0.025,,,,,,,,,,Stimuli/psy_fixed_rotation_30_objects_occ0.7_0.9s/images/train/n02883344_-1/n03928116_4/img_woven_box_dp_33_b_2013__vray_2015_gray.jpg,n02883344_-1,n03928116_4,fixed,0.729685,n04405907_8,Stimuli/psy_fixed_rotation_30_objects_occ0.7_0.9s/images/train/n04256520_5/n04405907_8/img_meridiani_belmondo_bench_sofa_stylized_tv_2013-3_gray.png,random,fixed,n02883344_-1,n03928116_4,Stimuli/canonical view 2/img_n02883344_-1_gray.jpg,Stimuli/canonical view 2/img_n03928116_4_gray.jpg,foreground,right,Experiments/experiment_34/0.jpg,Experiments/experiment_34/1.jpg,Experiments/experiment_34/2.jpg,Experiments/experiment_34/3.jpg,988,1,2023-06-28_13h38.00.368,Occlusion_Psychophysics,2022.1.4,Win32,59.88741167,return,1.9687,right,"[""left""]",[2.4004999999999654],False,,0.0,0.0,0.0,0.0,0.0,1.0,,,,,,
,,,,,,,,,,,,,,,,,,,,,0.025,,,,,,,,,,Stimuli/psy_fixed_rotation_30_objects_occ0.7_0.9s/images/train/n02883344_0/n03928116_10/img_b03_box_ydp_103_r_2012__vray_2009_gray.jpg,n02883344_0,n03928116_10,fixed,0.771006,n02933112_4,Stimuli/psy_fixed_rotation_30_objects_occ0.7_0.9s/images/train/n04379243_-7/n02933112_4/img_quatre_dining_table_buffet_2000-3_gray.png,random,fixed,n02883344_0,n02818832_3,Stimuli/canonical view 2/img_n02883344_0_gray.jpg,Stimuli/canonical view 2/img_n02818832_3_gray.jpg,random,right,Experiments/experiment_34/4.jpg,Experiments/experiment_34/5.jpg,Experiments/experiment_34/6.jpg,Experiments/experiment_34/7.jpg,988,1,2023-06-28_13h38.00.368,Occlusion_Psychophysics,2022.1.4,Win32,59.88741167,,,right,,,False,,0.0,0.0,1.0,1.0,1.0,1.0,,,,,,
,,,,,,,,,,,,,,,,,,,,,0.025,,,,,,,,,,Stimuli/psy_fixed_rotation_30_objects_occ0.7_0.9s/images/train/n04256520_9/n02818832_9/img_napoleon_iii_sofa_bed01_blue_2003_gray.jpg,n04256520_9,n02818832_9,fixed,0.829212,n04256520_5,Stimuli/psy_fixed_rotation_30_objects_occ0.7_0.9s/images/train/n02883344_0/n04256520_5/img_b03_box_meridiani_belmondo_bench_sofa_2006-3_gray.png,random,fixed,n04256520_9,n02818832_9,Stimuli/canonical view 2/img_n04256520_9_gray.jpg,Stimuli/canonical view 2/img_n02818832_9_gray.jpg,foreground,right,Experiments/experiment_34/8.jpg,Experiments/experiment_34/9.jpg,Experiments/experiment_34/10.jpg,Experiments/experiment_34/11.jpg,988,1,2023-06-28_13h38.00.368,Occlusion_Psychophysics,2022.1.4,Win32,59.88741167,,,right,"[""left""]",[1.1440999999995256],False,,0.0,0.0,2.0,2.0,2.0,1.0,,,,,,
,,,,,,,,,,,,,,,,,,,,,0.05,,,,,,,,,,Stimuli/psy_flexible_rotation_30_objects_occ0.7_0.9s/images/train/n03928116_0/n03001627_9/img_b02_piano_chair_eames_plastic_armchair_2014_gray.jpg,n03928116_0,n03001627_9,flexible,0.727955,n02818832_3,Stimuli/psy_flexible_rotation_30_objects_occ0.7_0.9s/images/train/n02883344_0/n02818832_3/img_b03_box_b05_ccm_contemporary_bed_max2013_2002-3_gray.png,random,flexible,n03928116_0,n03001627_9,Stimuli/canonical view 2/img_n03928116_0_gray.jpg,Stimuli/canonical view 2/img_n03001627_9_gray.jpg,foreground,right,Experiments/experiment_34/12.jpg,Experiments/experiment_34/13.jpg,Experiments/experiment_34/14.jpg,Experiments/experiment_34/15.jpg,988,1,2023-06-28_13h38.00.368,Occlusion_Psychophysics,2022.1.4,Win32,59.88741167,,,right,"[""left""]",[0.9025999999994383],False,,0.0,0.0,3.0,3.0,3.0,1.0,,,,,,
,,,,,,,,,,,,,,,,,,,,,0.05,,,,,,,,,,Stimuli/psy_flexible_rotation_30_objects_occ0.7_0.9s/images/train/n02818832_9/n03928116_10/img_bed01_blue_ydp_103_r_2012__vray_2000_gray.jpg,n02818832_9,n03928116_10,flexible,0.712751,n03928116_10,Stimuli/psy_flexible_rotation_30_objects_occ0.7_0.9s/images/train/n02818832_9/n03928116_10/img_bed01_blue_ydp_103_r_2012__vray_2000-3_gray.png,foreground,same as foreground,n02818832_9,n02828884_4,Stimuli/canonical view 2/img_n02818832_9_gray.jpg,Stimuli/canonical view 2/img_n02828884_4_gray.jpg,random,right,Experiments/experiment_34/16.jpg,Experiments/experiment_34/17.jpg,Experiments/experiment_34/18.jpg,Experiments/experiment_34/19.jpg,988,1,2023-06-28_13h38.00.368,Occlusion_Psychophysics,2022.1.4,Win32,59.88741167,,,left,"[""left""]",[1.5515000000000327],False,,0.0,0.0,4.0,4.0,4.0,1.0,,,,,,
,,,,,,,,,,,,,,,,,,,,,0.05,,,,,,,,,,Stimuli/psy_flexible_rotation_30_objects_occ0.7_0.9s/images/train/n02883344_0/n04256520_5/img_b03_box_meridiani_belmondo_bench_sofa_2002_gray.jpg,n02883344_0,n04256520_5,flexible,0.704644,n02933112_-2,Stimuli/psy_fixed_rotation_30_objects_occ0.7_0.9s/images/train/n03928116_4/n02933112_-2/img_dp_33_b_2013__vray_sink_base_white_wood_2008-3_gray.png,random,fixed,n02883344_0,n02933112_-2,Stimuli/canonical view 2/img_n02883344_0_gray.jpg,Stimuli/canonical view 2/img_n02933112_-2_gray.jpg,random,left,Experiments/experiment_34/20.jpg,Experiments/experiment_34/21.jpg,Experiments/experiment_34/22.jpg,Experiments/experiment_34/23.jpg,988,1,2023-06-28_13h38.00.368,Occlusion_Psychophysics,2022.1.4,Win32,59.88741167,,,right,"[""right""]",[1.302800000000616],False,,0.0,0.0,5.0,5.0,5.0,1.0,,,,,,
,,,,,,,,,,,,,,,,,,,,,0.05,,,,,,,,,,Stimuli/psy_fixed_rotation_30_objects_occ0.7_0.9s/images/train/n02883344_0/n03928116_10/img_b03_box_ydp_103_r_2012__vray_2015_gray.jpg,n02883344_0,n03928116_10,fixed,0.732819,n03928116_0,Stimuli/psy_fixed_rotation_30_objects_occ0.7_0.9s/images/train/n02883344_-1/n03928116_0/img_woven_box_b02_piano_2002-3_gray.png,random,fixed,n02883344_0,n03928116_10,Stimuli/canonical view 2/img_n02883344_0_gray.jpg,Stimuli/canonical view 2/img_n03928116_10_gray.jpg,foreground,right,Experiments/experiment_34/24.jpg,Experiments/experiment_34/25.jpg,Experiments/experiment_34/26.jpg,Experiments/experiment_34/27.jpg,988,1,2023-06-28_13h38.00.368,Occlusion_Psychophysics,2022.1.4,Win32,59.88741167,,,right,"[""right""]",[2.35910000000149],False,,0.0,0.0,6.0,6.0,6.0,1.0,,,,,,
,,,,,,,,,,,,,,,,,,,,,0.05,,,,,,,,,,Stimuli/psy_flexible_rotation_30_objects_occ0.7_0.9s/images/train/n02818832_3/n02933112_4/img_b05_ccm_contemporary_bed_max2013_buffet_2015_gray.jpg,n02818832_3,n02933112_4,flexible,0.745802,n02933112_4,Stimuli/psy_flexible_rotation_30_objects_occ0.7_0.9s/images/train/n02818832_3/n02933112_4/img_b05_ccm_contemporary_bed_max2013_buffet_2015-3_gray.png,foreground,same as foreground,n02818832_3,n03928116_4,Stimuli/canonical view 2/img_n02818832_3_gray.jpg,Stimuli/canonical view 2/img_n03928116_4_gray.jpg,random,left,Experiments/experiment_34/28.jpg,Experiments/experiment_34/29.jpg,Experiments/experiment_34/30.jpg,Experiments/experiment_34/31.jpg,988,1,2023-06-28_13h38.00.368,Occlusion_Psychophysics,2022.1.4,Win32,59.88741167,,,right,"[""right""]",[2.7264000000002397],False,,0.0,0.0,7.0,7.0,7.0,1.0,,,,,,
,,,,,,,,,,,,,,,,,,,,,0.025,,,,,,,,,,Stimuli/psy_flexible_rotation_30_objects_occ0.7_0.9s/images/train/n02883344_-1/n02818832_3/img_woven_box_b05_ccm_contemporary_bed_max2013_2009_gray.jpg,n02883344_-1,n02818832_3,flexible,0.77008,n02818832_3,Stimuli/psy_flexible_rotation_30_objects_occ0.7_0.9s/images/train/n02883344_-1/n02818832_3/img_woven_box_b05_ccm_contemporary_bed_max2013_2009-3_gray.png,foreground,same as foreground,n02883344_-1,n02818832_0,Stimuli/canonical view 2/img_n02883344_-1_gray.jpg,Stimuli/canonical view 2/img_n02818832_0_gray.jpg,random,left,Experiments/experiment_34/32.jpg,Experiments/experiment_34/33.jpg,Experiments/experiment_34/34.jpg,Experiments/experiment_34/35.jpg,988,1,2023-06-28_13h38.00.368,Occlusion_Psychophysics,2022.1.4,Win32,59.88741167,,,left,"[""left""]",[1.3245999999996911],False,,0.0,0.0,8.0,8.0,8.0,1.0,,,,,,
,,,,,,,,,,,,,,,,,,,,,0.025,,,,,,,,,,Stimuli/psy_fixed_rotation_30_objects_occ0.7_0.9s/images/train/n04256520_4/n04256520_5/img_club_house_italia_nautilus_sofa_meridiani_belmondo_bench_sofa_2004_gray.jpg,n04256520_4,n04256520_5,fixed,0.764143,n04256520_5,Stimuli/psy_fixed_rotation_30_objects_occ0.7_0.9s/images/train/n04256520_4/n04256520_5/img_club_house_italia_nautilus_sofa_meridiani_belmondo_bench_sofa_2004-3_gray.png,foreground,same as foreground,n04256520_4,n04256520_5,Stimuli/canonical view 2/img_n04256520_4_gray.jpg,Stimuli/canonical view 2/img_n04256520_5_gray.jpg,foreground,right,Experiments/experiment_34/36.jpg,Experiments/experiment_34/37.jpg,Experiments/experiment_34/38.jpg,Experiments/experiment_34/39.jpg,988,1,2023-06-28_13h38.00.368,Occlusion_Psychophysics,2022.1.4,Win32,59.88741167,,,right,"[""right""]",[0.8377999999988788],False,,0.0,0.0,9.0,9.0,9.0,1.0,,,,,,
,,,,,,,,,,,,,,,,,,,,,0.025,,,,,,,,,,Stimuli/psy_fixed_rotation_30_objects_occ0.7_0.9s/images/train/n02818832_9/n02933112_-18/img_bed01_blue_cgaxis_models_48_26_vray_composite_2006_gray.jpg,n02818832_9,n02933112_-18,fixed,0.710574,n02818832_0,Stimuli/psy_flexible_rotation_30_objects_occ0.7_0.9s/images/train/n02828884_3/n02818832_0/img_b04_wood_metal_park_bench_b03_the_sofa_and_chair_company_-_stanley_bed_2014_2001-3_gray.png,random,flexible,n02818832_9,n02933112_-18,Stimuli/canonical view 2/img_n02818832_9_gray.jpg,Stimuli/canonical view 2/img_n02933112_-18_gray.jpg,foreground,left,Experiments/experiment_34/40.jpg,Experiments/experiment_34/41.jpg,Experiments/experiment_34/42.jpg,Experiments/experiment_34/43.jpg,988,1,2023-06-28_13h38.00.368,Occlusion_Psychophysics,2022.1.4,Win32,59.88741167,,,right,"[""right""]",[1.570199999999204],False,,0.0,0.0,10.0,10.0,10.0,1.0,,,,,,
,,,,,,,,,,,,,,,,,,,,,0.025,,,,,,,,,,Stimuli/psy_flexible_rotation_30_objects_occ0.7_0.9s/images/train/n02933112_-18/n04379243_-7/img_cgaxis_models_48_26_vray_composite_quatre_dining_table_2010_gray.jpg,n02933112_-18,n04379243_-7,flexible,0.793329,n04379243_-7,Stimuli/psy_flexible_rotation_30_objects_occ0.7_0.9s/images/train/n02933112_-18/n04379243_-7/img_cgaxis_models_48_26_vray_composite_quatre_dining_table_2010-3_gray.png,foreground,same as foreground,n02933112_-18,n04379243_-7,Stimuli/canonical view 2/img_n02933112_-18_gray.jpg,Stimuli/canonical view 2/img_n04379243_-7_gray.jpg,foreground,right,Experiments/experiment_34/44.jpg,Experiments/experiment_34/45.jpg,Experiments/experiment_34/46.jpg,Experiments/experiment_34/47.jpg,988,1,2023-06-28_13h38.00.368,Occlusion_Psychophysics,2022.1.4,Win32,59.88741167,,,left,"[""right""]",[1.591700000001083],False,,0.0,0.0,11.0,11.0,11.0,1.0,,,,,,
,,,,,,,,,,,,,,,,,,,,,0.025,,,,,,,,,,Stimuli/psy_fixed_rotation_30_objects_occ0.7_0.9s/images/train/n02883344_0/n03928116_10/img_b03_box_ydp_103_r_2012__vray_2014_gray.jpg,n02883344_0,n03928116_10,fixed,0.87849,n03928116_0,Stimuli/psy_flexible_rotation_30_objects_occ0.7_0.9s/images/train/n04405907_8/n03928116_0/img_stylized_tv_b02_piano_2010-3_gray.png,random,flexible,n02883344_0,n02818832_9,Stimuli/canonical view 2/img_n02883344_0_gray.jpg,Stimuli/canonical view 2/img_n02818832_9_gray.jpg,random,left,Experiments/experiment_34/48.jpg,Experiments/experiment_34/49.jpg,Experiments/experiment_34/50.jpg,Experiments/experiment_34/51.jpg,988,1,2023-06-28_13h38.00.368,Occlusion_Psychophysics,2022.1.4,Win32,59.88741167,,,left,"[""left""]",[1.7708000000006905],False,,0.0,0.0,12.0,12.0,12.0,1.0,,,,,,
,,,,,,,,,,,,,,,,,,,,,0.05,,,,,,,,,,Stimuli/psy_fixed_rotation_30_objects_occ0.7_0.9s/images/train/n03001627_9/n03928116_0/img_chair_eames_plastic_armchair_b02_piano_2010_gray.jpg,n03001627_9,n03928116_0,fixed,0.760771,n03928116_0,Stimuli/psy_fixed_rotation_30_objects_occ0.7_0.9s/images/train/n03001627_9/n03928116_0/img_chair_eames_plastic_armchair_b02_piano_2010-3_gray.png,foreground,same as foreground,n03001627_9,n04405907_5,Stimuli/canonical view 2/img_n03001627_9_gray.jpg,Stimuli/canonical view 2/img_n04405907_5_gray.jpg,random,left,Experiments/experiment_34/52.jpg,Experiments/experiment_34/53.jpg,Experiments/experiment_34/54.jpg,Experiments/experiment_34/55.jpg,988,1,2023-06-28_13h38.00.368,Occlusion_Psychophysics,2022.1.4,Win32,59.88741167,,,left,"[""right""]",[1.7714000000003125],False,,0.0,0.0,13.0,13.0,13.0,1.0,,,,,,
,,,,,,,,,,,,,,,,,,,,,0.05,,,,,,,,,,Stimuli/psy_fixed_rotation_30_objects_occ0.7_0.9s/images/train/n04379243_0/n02828884_3/img_17th_c._monastery_dining_table_2010_b04_wood_metal_park_bench_2004_gray.jpg,n04379243_0,n02828884_3,fixed,0.72862,n02828884_3,Stimuli/psy_fixed_rotation_30_objects_occ0.7_0.9s/images/train/n04379243_0/n02828884_3/img_17th_c._monastery_dining_table_2010_b04_wood_metal_park_bench_2004-3_gray.png,foreground,same as foreground,n04379243_0,n02828884_3,Stimuli/canonical view 2/img_n04379243_0_gray.jpg,Stimuli/canonical view 2/img_n02828884_3_gray.jpg,foreground,left,Experiments/experiment_34/56.jpg,Experiments/experiment_34/57.jpg,Experiments/experiment_34/58.jpg,Experiments/experiment_34/59.jpg,988,1,2023-06-28_13h38.00.368,Occlusion_Psychophysics,2022.1.4,Win32,59.88741167,,,right,"[""right""]",[1.4197999999987587],True,,0.0,0.0,14.0,14.0,14.0,1.0,,,,,,
,,,,,,,,,,,,,,,,,,,,,0.025,,,,,,,,,,Stimuli/psy_flexible_rotation_30_objects_occ0.7_0.9s/images/train/n04256520_4/n02933112_-2/img_club_house_italia_nautilus_sofa_sink_base_white_wood_2011_gray.jpg,n04256520_4,n02933112_-2,flexible,0.712321,n02933112_-18,Stimuli/psy_flexible_rotation_30_objects_occ0.7_0.9s/images/train/n04379243_8/n02933112_-18/img_glass_table_cgaxis_models_48_26_vray_composite_2012-3_gray.png,random,flexible,n04256520_4,n02933112_-2,Stimuli/canonical view 2/img_n04256520_4_gray.jpg,Stimuli/canonical view 2/img_n02933112_-2_gray.jpg,foreground,right,Experiments/experiment_34/60.jpg,Experiments/experiment_34/61.jpg,Experiments/experiment_34/62.jpg,Experiments/experiment_34/63.jpg,988,1,2023-06-28_13h38.00.368,Occlusion_Psychophysics,2022.1.4,Win32,59.88741167,,,left,"[""right""]",[1.206400000000258],False,,0.0,0.0,15.0,15.0,15.0,1.0,,,,,,
,,,,,,,,,,,,,,,,,,,,,0.05,,,,,,,,,,Stimuli/psy_flexible_rotation_30_objects_occ0.7_0.9s/images/train/n02828884_4/n03928116_0/img_b05_c-5_classic_series_bench-2012_b02_piano_2002_gray.jpg,n02828884_4,n03928116_0,flexible,0.70494,n02883344_15,Stimuli/psy_fixed_rotation_30_objects_occ0.7_0.9s/images/train/n04256520_9/n02883344_15/img_napoleon_iii_sofa_microwave_box_2005-3_gray.png,random,fixed,n02828884_4,n02883344_0,Stimuli/canonical view 2/img_n02828884_4_gray.jpg,Stimuli/canonical view 2/img_n02883344_0_gray.jpg,random,right,Experiments/experiment_34/64.jpg,Experiments/experiment_34/65.jpg,Experiments/experiment_34/66.jpg,Experiments/experiment_34/67.jpg,988,1,2023-06-28_13h38.00.368,Occlusion_Psychophysics,2022.1.4,Win32,59.88741167,,,left,"[""left""]",[1.4860999999996238],False,,0.0,0.0,16.0,16.0,16.0,1.0,,,,,,
,,,,,,,,,,,,,,,,,,,,,0.05,,,,,,,,,,Stimuli/psy_flexible_rotation_30_objects_occ0.7_0.9s/images/train/n02933112_4/n02828884_3/img_buffet_b04_wood_metal_park_bench_2001_gray.jpg,n02933112_4,n02828884_3,flexible,0.809571,n02818832_3,Stimuli/psy_fixed_rotation_30_objects_occ0.7_0.9s/images/train/n04070727_3/n02818832_3/img_b05_db_apps_tech_06_02_2_composite_b05_ccm_contemporary_bed_max2013_2004-3_gray.png,random,fixed,n02933112_4,n02828884_3,Stimuli/canonical view 2/img_n02933112_4_gray.jpg,Stimuli/canonical view 2/img_n02828884_3_gray.jpg,foreground,left,Experiments/experiment_34/68.jpg,Experiments/experiment_34/69.jpg,Experiments/experiment_34/70.jpg,Experiments/experiment_34/71.jpg,988,1,2023-06-28_13h38.00.368,Occlusion_Psychophysics,2022.1.4,Win32,59.88741167,,,left,"[""left""]",[1.4205000000001746],False,,0.0,0.0,17.0,17.0,17.0,1.0,,,,,,
,,,,,,,,,,,,,,,,,,,,,0.025,,,,,,,,,,Stimuli/psy_flexible_rotation_30_objects_occ0.7_0.9s/images/train/n02933112_-18/n04379243_-7/img_cgaxis_models_48_26_vray_composite_quatre_dining_table_2006_gray.jpg,n02933112_-18,n04379243_-7,flexible,0.847585,n04379243_-7,Stimuli/psy_flexible_rotation_30_objects_occ0.7_0.9s/images/train/n02933112_-18/n04379243_-7/img_cgaxis_models_48_26_vray_composite_quatre_dining_table_2006-3_gray.png,foreground,same as foreground,n02933112_-18,n04379243_-7,Stimuli/canonical view 2/img_n02933112_-18_gray.jpg,Stimuli/canonical view 2/img_n04379243_-7_gray.jpg,foreground,right,Experiments/experiment_34/72.jpg,Experiments/experiment_34/73.jpg,Experiments/experiment_34/74.jpg,Experiments/experiment_34/75.jpg,988,1,2023-06-28_13h38.00.368,Occlusion_Psychophysics,2022.1.4,Win32,59.88741167,,,left,"[""right""]",[0.6183000000007723],False,,0.0,0.0,18.0,18.0,18.0,1.0,,,,,,
,,,,,,,,,,,,,,,,,,,,,0.025,,,,,,,,,,Stimuli/psy_flexible_rotation_30_objects_occ0.7_0.9s/images/train/n03928116_0/n02883344_15/img_b02_piano_microwave_box_2000_gray.jpg,n03928116_0,n02883344_15,flexible,0.719566,n04405907_9,Stimuli/psy_fixed_rotation_30_objects_occ0.7_0.9s/images/train/n04379243_0/n04405907_9/img_17th_c._monastery_dining_table_2010_vray_004_2004-3_gray.png,random,fixed,n03928116_0,n02883344_15,Stimuli/canonical view 2/img_n03928116_0_gray.jpg,Stimuli/canonical view 2/img_n02883344_15_gray.jpg,foreground,right,Experiments/experiment_34/76.jpg,Experiments/experiment_34/77.jpg,Experiments/experiment_34/78.jpg,Experiments/experiment_34/79.jpg,988,1,2023-06-28_13h38.00.368,Occlusion_Psychophysics,2022.1.4,Win32,59.88741167,,,left,"[""left""]",[0.7980999999997493],False,,0.0,0.0,19.0,19.0,19.0,1.0,,,,,,
,,,,,,,,,,,,,,,,,,,,,0.05,,,,,,,,,,Stimuli/psy_flexible_rotation_30_objects_occ0.7_0.9s/images/train/n04379243_8/n02818832_9/img_glass_table_bed01_blue_2011_gray.jpg,n04379243_8,n02818832_9,flexible,0.714286,n04405907_8,Stimuli/psy_flexible_rotation_30_objects_occ0.7_0.9s/images/train/n02933112_4/n04405907_8/img_buffet_stylized_tv_2007-3_gray.png,random,flexible,n04379243_8,n02818832_9,Stimuli/canonical view 2/img_n04379243_8_gray.jpg,Stimuli/canonical view 2/img_n02818832_9_gray.jpg,foreground,right,Experiments/experiment_34/80.jpg,Experiments/experiment_34/81.jpg,Experiments/experiment_34/82.jpg,Experiments/experiment_34/83.jpg,988,1,2023-06-28_13h38.00.368,Occlusion_Psychophysics,2022.1.4,Win32,59.88741167,,,right,"[""right""]",[0.7536999999990712],False,,0.0,0.0,20.0,20.0,20.0,1.0,,,,,,
,,,,,,,,,,,,,,,,,,,,,0.05,,,,,,,,,,Stimuli/psy_fixed_rotation_30_objects_occ0.7_0.9s/images/train/n03928116_4/n03928116_0/img_dp_33_b_2013__vray_b02_piano_2010_gray.jpg,n03928116_4,n03928116_0,fixed,0.802589,n02828884_3,Stimuli/psy_fixed_rotation_30_objects_occ0.7_0.9s/images/train/n04070727_0/n02828884_3/img_b03_ka90ivi20r_2013__vray_b04_wood_metal_park_bench_2000-3_gray.png,random,fixed,n03928116_4,n03928116_0,Stimuli/canonical view 2/img_n03928116_4_gray.jpg,Stimuli/canonical view 2/img_n03928116_0_gray.jpg,foreground,right,Experiments/experiment_34/84.jpg,Experiments/experiment_34/85.jpg,Experiments/experiment_34/86.jpg,Experiments/experiment_34/87.jpg,988,1,2023-06-28_13h38.00.368,Occlusion_Psychophysics,2022.1.4,Win32,59.88741167,,,left,"[""right""]",[0.8969999999999345],False,,0.0,0.0,21.0,21.0,21.0,1.0,,,,,,
,,,,,,,,,,,,,,,,,,,,,0.05,,,,,,,,,,Stimuli/psy_flexible_rotation_30_objects_occ0.7_0.9s/images/train/n04379243_8/n02818832_9/img_glass_table_bed01_blue_2007_gray.jpg,n04379243_8,n02818832_9,flexible,0.741072,n02818832_9,Stimuli/psy_flexible_rotation_30_objects_occ0.7_0.9s/images/train/n04379243_8/n02818832_9/img_glass_table_bed01_blue_2007-3_gray.png,foreground,same as foreground,n04379243_8,n02933112_4,Stimuli/canonical view 2/img_n04379243_8_gray.jpg,Stimuli/canonical view 2/img_n02933112_4_gray.jpg,random,left,Experiments/experiment_34/88.jpg,Experiments/experiment_34/89.jpg,Experiments/experiment_34/90.jpg,Experiments/experiment_34/91.jpg,988,1,2023-06-28_13h38.00.368,Occlusion_Psychophysics,2022.1.4,Win32,59.88741167,,,right,"[""right""]",[0.7056999999992968],False,,0.0,0.0,22.0,22.0,22.0,1.0,,,,,,
,,,,,,,,,,,,,,,,,,,,,0.025,,,,,,,,,,Stimuli/psy_flexible_rotation_30_objects_occ0.7_0.9s/images/train/n03928116_0/n03001627_9/img_b02_piano_chair_eames_plastic_armchair_2006_gray.jpg,n03928116_0,n03001627_9,flexible,0.770791,n03001627_9,Stimuli/psy_flexible_rotation_30_objects_occ0.7_0.9s/images/train/n03928116_0/n03001627_9/img_b02_piano_chair_eames_plastic_armchair_2006-3_gray.png,foreground,same as foreground,n03928116_0,n04256520_5,Stimuli/canonical view 2/img_n03928116_0_gray.jpg,Stimuli/canonical view 2/img_n04256520_5_gray.jpg,random,left,Experiments/experiment_34/92.jpg,Experiments/experiment_34/93.jpg,Experiments/experiment_34/94.jpg,Experiments/experiment_34/95.jpg,988,1,2023-06-28_13h38.00.368,Occlusion_Psychophysics,2022.1.4,Win32,59.88741167,,,left,"[""left""]",[0.8315000000000055],False,,0.0,0.0,23.0,23.0,23.0,1.0,,,,,,
,,,,,,,,,,,,,,,,,,,,,0.05,,,,,,,,,,Stimuli/psy_flexible_rotation_30_objects_occ0.7_0.9s/images/train/n02818832_9/n04256520_4/img_bed01_blue_club_house_italia_nautilus_sofa_2014_gray.jpg,n02818832_9,n04256520_4,flexible,0.773643,n02818832_0,Stimuli/psy_fixed_rotation_30_objects_occ0.7_0.9s/images/train/n02818832_9/n02818832_0/img_bed01_blue_b03_the_sofa_and_chair_company_-_stanley_bed_2014_2004-3_gray.png,random,fixed,n02818832_9,n04379243_0,Stimuli/canonical view 2/img_n02818832_9_gray.jpg,Stimuli/canonical view 2/img_n04379243_0_gray.jpg,random,left,Experiments/experiment_34/96.jpg,Experiments/experiment_34/97.jpg,Experiments/experiment_34/98.jpg,Experiments/experiment_34/99.jpg,988,1,2023-06-28_13h38.00.368,Occlusion_Psychophysics,2022.1.4,Win32,59.88741167,,,right,"[""right""]",[1.2710999999994783],False,,0.0,0.0,24.0,24.0,24.0,1.0,,,,,,
,,,,,,,,,,,,,,,,,,,,,0.05,,,,,,,,,,Stimuli/psy_fixed_rotation_30_objects_occ0.7_0.9s/images/train/n02933112_-18/n03001627_8/img_cgaxis_models_48_26_vray_composite_chair_billiani_doll_2015_gray.jpg,n02933112_-18,n03001627_8,fixed,0.762153,n03001627_8,Stimuli/psy_fixed_rotation_30_objects_occ0.7_0.9s/images/train/n02933112_-18/n03001627_8/img_cgaxis_models_48_26_vray_composite_chair_billiani_doll_2015-3_gray.png,foreground,same as foreground,n02933112_-18,n03001627_9,Stimuli/canonical view 2/img_n02933112_-18_gray.jpg,Stimuli/canonical view 2/img_n03001627_9_gray.jpg,random,left,Experiments/experiment_34/100.jpg,Experiments/experiment_34/101.jpg,Experiments/experiment_34/102.jpg,Experiments/experiment_34/103.jpg,988,1,2023-06-28_13h38.00.368,Occlusion_Psychophysics,2022.1.4,Win32,59.88741167,,,left,"[""left""]",[1.2028000000007069],False,,0.0,0.0,25.0,25.0,25.0,1.0,,,,,,
,,,,,,,,,,,,,,,,,,,,,0.025,,,,,,,,,,Stimuli/psy_flexible_rotation_30_objects_occ0.7_0.9s/images/train/n04379243_8/n02883344_0/img_glass_table_b03_box_2014_gray.jpg,n04379243_8,n02883344_0,flexible,0.743791,n02883344_0,Stimuli/psy_flexible_rotation_30_objects_occ0.7_0.9s/images/train/n04379243_8/n02883344_0/img_glass_table_b03_box_2014-3_gray.png,foreground,same as foreground,n04379243_8,n02883344_0,Stimuli/canonical view 2/img_n04379243_8_gray.jpg,Stimuli/canonical view 2/img_n02883344_0_gray.jpg,foreground,right,Experiments/experiment_34/104.jpg,Experiments/experiment_34/105.jpg,Experiments/experiment_34/106.jpg,Experiments/experiment_34/107.jpg,988,1,2023-06-28_13h38.00.368,Occlusion_Psychophysics,2022.1.4,Win32,59.88741167,,,right,"[""right""]",[0.7515999999995984],False,,0.0,0.0,26.0,26.0,26.0,1.0,,,,,,
,,,,,,,,,,,,,,,,,,,,,0.025,,,,,,,,,,Stimuli/psy_flexible_rotation_30_objects_occ0.7_0.9s/images/train/n04256520_9/n04405907_5/img_napoleon_iii_sofa_samsung_40_uhd_smart_tv_2011_2000_gray.jpg,n04256520_9,n04405907_5,flexible,0.720031,n02933112_4,Stimuli/psy_flexible_rotation_30_objects_occ0.7_0.9s/images/train/n04256520_9/n02933112_4/img_napoleon_iii_sofa_buffet_2000-3_gray.png,random,flexible,n04256520_9,n04405907_5,Stimuli/canonical view 2/img_n04256520_9_gray.jpg,Stimuli/canonical view 2/img_n04405907_5_gray.jpg,foreground,left,Experiments/experiment_34/108.jpg,Experiments/experiment_34/109.jpg,Experiments/experiment_34/110.jpg,Experiments/experiment_34/111.jpg,988,1,2023-06-28_13h38.00.368,Occlusion_Psychophysics,2022.1.4,Win32,59.88741167,,,right,"[""right""]",[0.7849000000003343],False,,0.0,0.0,27.0,27.0,27.0,1.0,,,,,,
,,,,,,,,,,,,,,,,,,,,,0.05,,,,,,,,,,Stimuli/psy_flexible_rotation_30_objects_occ0.7_0.9s/images/train/n02883344_15/n04379243_-7/img_microwave_box_quatre_dining_table_2011_gray.jpg,n02883344_15,n04379243_-7,flexible,0.705828,n04379243_-7,Stimuli/psy_flexible_rotation_30_objects_occ0.7_0.9s/images/train/n02883344_15/n04379243_-7/img_microwave_box_quatre_dining_table_2011-3_gray.png,foreground,same as foreground,n02883344_15,n04379243_-7,Stimuli/canonical view 2/img_n02883344_15_gray.jpg,Stimuli/canonical view 2/img_n04379243_-7_gray.jpg,foreground,right,Experiments/experiment_34/112.jpg,Experiments/experiment_34/113.jpg,Experiments/experiment_34/114.jpg,Experiments/experiment_34/115.jpg,988,1,2023-06-28_13h38.00.368,Occlusion_Psychophysics,2022.1.4,Win32,59.88741167,,,left,"[""left""]",[1.1710999999997966],False,,0.0,0.0,28.0,28.0,28.0,1.0,,,,,,
,,,,,,,,,,,,,,,,,,,,,0.05,,,,,,,,,,Stimuli/psy_fixed_rotation_30_objects_occ0.7_0.9s/images/train/n04256520_9/n03928116_4/img_napoleon_iii_sofa_dp_33_b_2013__vray_2015_gray.jpg,n04256520_9,n03928116_4,fixed,0.728188,n04256520_9,Stimuli/psy_flexible_rotation_30_objects_occ0.7_0.9s/images/train/n04256520_4/n04256520_9/img_club_house_italia_nautilus_sofa_napoleon_iii_sofa_2001-3_gray.png,random,flexible,n04256520_9,n03928116_4,Stimuli/canonical view 2/img_n04256520_9_gray.jpg,Stimuli/canonical view 2/img_n03928116_4_gray.jpg,foreground,left,Experiments/experiment_34/116.jpg,Experiments/experiment_34/117.jpg,Experiments/experiment_34/118.jpg,Experiments/experiment_34/119.jpg,988,1,2023-06-28_13h38.00.368,Occlusion_Psychophysics,2022.1.4,Win32,59.88741167,,,left,"[""right""]",[0.6897000000012667],False,,0.0,0.0,29.0,29.0,29.0,1.0,,,,,,
,,,,,,,,,,,,,,,,,,,,,0.05,,,,,,,,,,Stimuli/psy_fixed_rotation_30_objects_occ0.7_0.9s/images/train/n02818832_9/n04256520_9/img_bed01_blue_napoleon_iii_sofa_2013_gray.jpg,n02818832_9,n04256520_9,fixed,0.734401,n04256520_9,Stimuli/psy_fixed_rotation_30_objects_occ0.7_0.9s/images/train/n02818832_9/n04256520_9/img_bed01_blue_napoleon_iii_sofa_2013-3_gray.png,foreground,same as foreground,n02818832_9,n04256520_9,Stimuli/canonical view 2/img_n02818832_9_gray.jpg,Stimuli/canonical view 2/img_n04256520_9_gray.jpg,foreground,right,Experiments/experiment_34/120.jpg,Experiments/experiment_34/121.jpg,Experiments/experiment_34/122.jpg,Experiments/experiment_34/123.jpg,988,1,2023-06-28_13h38.00.368,Occlusion_Psychophysics,2022.1.4,Win32,59.88741167,,,left,"[""left""]",[0.7463000000007014],False,,0.0,0.0,30.0,30.0,30.0,1.0,,,,,,
,,,,,,,,,,,,,,,,,,,,,0.05,,,,,,,,,,Stimuli/psy_fixed_rotation_30_objects_occ0.7_0.9s/images/train/n04379243_8/n04405907_8/img_glass_table_stylized_tv_2004_gray.jpg,n04379243_8,n04405907_8,fixed,0.720164,n02828884_4,Stimuli/psy_flexible_rotation_30_objects_occ0.7_0.9s/images/train/n04379243_8/n02828884_4/img_glass_table_b05_c-5_classic_series_bench-2012_2000-3_gray.png,random,flexible,n04379243_8,n04405907_8,Stimuli/canonical view 2/img_n04379243_8_gray.jpg,Stimuli/canonical view 2/img_n04405907_8_gray.jpg,foreground,right,Experiments/experiment_34/124.jpg,Experiments/experiment_34/125.jpg,Experiments/experiment_34/126.jpg,Experiments/experiment_34/127.jpg,988,1,2023-06-28_13h38.00.368,Occlusion_Psychophysics,2022.1.4,Win32,59.88741167,,,left,"[""right""]",[0.6355000000000928],False,,0.0,0.0,31.0,31.0,31.0,1.0,,,,,,
,,,,,,,,,,,,,,,,,,,,,0.025,,,,,,,,,,Stimuli/psy_fixed_rotation_30_objects_occ0.7_0.9s/images/train/n02828884_4/n02883344_15/img_b05_c-5_classic_series_bench-2012_microwave_box_2004_gray.jpg,n02828884_4,n02883344_15,fixed,0.728984,n02883344_15,Stimuli/psy_fixed_rotation_30_objects_occ0.7_0.9s/images/train/n02828884_4/n02883344_15/img_b05_c-5_classic_series_bench-2012_microwave_box_2004-3_gray.png,foreground,same as foreground,n02828884_4,n02883344_15,Stimuli/canonical view 2/img_n02828884_4_gray.jpg,Stimuli/canonical view 2/img_n02883344_15_gray.jpg,foreground,right,Experiments/experiment_34/128.jpg,Experiments/experiment_34/129.jpg,Experiments/experiment_34/130.jpg,Experiments/experiment_34/131.jpg,988,1,2023-06-28_13h38.00.368,Occlusion_Psychophysics,2022.1.4,Win32,59.88741167,,,right,"[""right""]",[1.0048999999985426],False,,0.0,0.0,32.0,32.0,32.0,1.0,,,,,,
,,,,,,,,,,,,,,,,,,,,,0.025,,,,,,,,,,Stimuli/psy_flexible_rotation_30_objects_occ0.7_0.9s/images/train/n02818832_9/n02883344_0/img_bed01_blue_b03_box_2006_gray.jpg,n02818832_9,n02883344_0,flexible,0.714305,n02883344_0,Stimuli/psy_flexible_rotation_30_objects_occ0.7_0.9s/images/train/n02818832_9/n02883344_0/img_bed01_blue_b03_box_2006-3_gray.png,foreground,same as foreground,n02818832_9,n03928116_4,Stimuli/canonical view 2/img_n02818832_9_gray.jpg,Stimuli/canonical view 2/img_n03928116_4_gray.jpg,random,left,Experiments/experiment_34/132.jpg,Experiments/experiment_34/133.jpg,Experiments/experiment_34/134.jpg,Experiments/experiment_34/135.jpg,988,1,2023-06-28_13h38.00.368,Occlusion_Psychophysics,2022.1.4,Win32,59.88741167,,,right,"[""left""]",[1.22199999999998],False,,0.0,0.0,33.0,33.0,33.0,1.0,,,,,,
,,,,,,,,,,,,,,,,,,,,,0.05,,,,,,,,,,Stimuli/psy_flexible_rotation_30_objects_occ0.7_0.9s/images/train/n02883344_-1/n02883344_0/img_woven_box_b03_box_2002_gray.jpg,n02883344_-1,n02883344_0,flexible,0.731897,n02933112_4,Stimuli/psy_flexible_rotation_30_objects_occ0.7_0.9s/images/train/n02883344_-1/n02933112_4/img_woven_box_buffet_2002-3_gray.png,random,flexible,n02883344_-1,n04405907_5,Stimuli/canonical view 2/img_n02883344_-1_gray.jpg,Stimuli/canonical view 2/img_n04405907_5_gray.jpg,random,right,Experiments/experiment_34/136.jpg,Experiments/experiment_34/137.jpg,Experiments/experiment_34/138.jpg,Experiments/experiment_34/139.jpg,988,1,2023-06-28_13h38.00.368,Occlusion_Psychophysics,2022.1.4,Win32,59.88741167,,,left,"[""right""]",[1.5185999999996511],False,,0.0,0.0,34.0,34.0,34.0,1.0,,,,,,
,,,,,,,,,,,,,,,,,,,,,0.05,,,,,,,,,,Stimuli/psy_fixed_rotation_30_objects_occ0.7_0.9s/images/train/n02818832_9/n04379243_-7/img_bed01_blue_quatre_dining_table_2007_gray.jpg,n02818832_9,n04379243_-7,fixed,0.705069,n03928116_10,Stimuli/psy_flexible_rotation_30_objects_occ0.7_0.9s/images/train/n04405907_8/n03928116_10/img_stylized_tv_ydp_103_r_2012__vray_2012-3_gray.png,random,flexible,n02818832_9,n04379243_-7,Stimuli/canonical view 2/img_n02818832_9_gray.jpg,Stimuli/canonical view 2/img_n04379243_-7_gray.jpg,foreground,left,Experiments/experiment_34/140.jpg,Experiments/experiment_34/141.jpg,Experiments/experiment_34/142.jpg,Experiments/experiment_34/143.jpg,988,1,2023-06-28_13h38.00.368,Occlusion_Psychophysics,2022.1.4,Win32,59.88741167,,,left,"[""right""]",[0.7029000000004544],False,,0.0,0.0,35.0,35.0,35.0,1.0,,,,,,
,,,,,,,,,,,,,,,,,,,,,0.05,,,,,,,,,,Stimuli/psy_fixed_rotation_30_objects_occ0.7_0.9s/images/train/n02883344_15/n03928116_4/img_microwave_box_dp_33_b_2013__vray_2015_gray.jpg,n02883344_15,n03928116_4,fixed,0.764452,n03928116_4,Stimuli/psy_fixed_rotation_30_objects_occ0.7_0.9s/images/train/n02883344_15/n03928116_4/img_microwave_box_dp_33_b_2013__vray_2015-3_gray.png,foreground,same as foreground,n02883344_15,n03928116_4,Stimuli/canonical view 2/img_n02883344_15_gray.jpg,Stimuli/canonical view 2/img_n03928116_4_gray.jpg,foreground,right,Experiments/experiment_34/144.jpg,Experiments/experiment_34/145.jpg,Experiments/experiment_34/146.jpg,Experiments/experiment_34/147.jpg,988,1,2023-06-28_13h38.00.368,Occlusion_Psychophysics,2022.1.4,Win32,59.88741167,,,right,"[""right""]",[1.2626999999993131],False,,0.0,0.0,36.0,36.0,36.0,1.0,,,,,,
,,,,,,,,,,,,,,,,,,,,,0.05,,,,,,,,,,Stimuli/psy_flexible_rotation_30_objects_occ0.7_0.9s/images/train/n04256520_9/n04405907_8/img_napoleon_iii_sofa_stylized_tv_2012_gray.jpg,n04256520_9,n04405907_8,flexible,0.721387,n04405907_8,Stimuli/psy_flexible_rotation_30_objects_occ0.7_0.9s/images/train/n04256520_9/n04405907_8/img_napoleon_iii_sofa_stylized_tv_2012-3_gray.png,foreground,same as foreground,n04256520_9,n04405907_8,Stimuli/canonical view 2/img_n04256520_9_gray.jpg,Stimuli/canonical view 2/img_n04405907_8_gray.jpg,foreground,right,Experiments/experiment_34/148.jpg,Experiments/experiment_34/149.jpg,Experiments/experiment_34/150.jpg,Experiments/experiment_34/151.jpg,988,1,2023-06-28_13h38.00.368,Occlusion_Psychophysics,2022.1.4,Win32,59.88741167,,,left,"[""left""]",[0.7035999999995965],False,,0.0,0.0,37.0,37.0,37.0,1.0,,,,,,
,,,,,,,,,,,,,,,,,,,,,0.05,,,,,,,,,,Stimuli/psy_flexible_rotation_30_objects_occ0.7_0.9s/images/train/n02818832_9/n02933112_-2/img_bed01_blue_sink_base_white_wood_2012_gray.jpg,n02818832_9,n02933112_-2,flexible,0.729398,n02933112_-2,Stimuli/psy_flexible_rotation_30_objects_occ0.7_0.9s/images/train/n02818832_9/n02933112_-2/img_bed01_blue_sink_base_white_wood_2012-3_gray.png,foreground,same as foreground,n02818832_9,n02933112_-2,Stimuli/canonical view 2/img_n02818832_9_gray.jpg,Stimuli/canonical view 2/img_n02933112_-2_gray.jpg,foreground,right,Experiments/experiment_34/152.jpg,Experiments/experiment_34/153.jpg,Experiments/experiment_34/154.jpg,Experiments/experiment_34/155.jpg,988,1,2023-06-28_13h38.00.368,Occlusion_Psychophysics,2022.1.4,Win32,59.88741167,,,left,"[""left""]",[0.9701000000015938],False,,0.0,0.0,38.0,38.0,38.0,1.0,,,,,,
,,,,,,,,,,,,,,,,,,,,,0.025,,,,,,,,,,Stimuli/psy_fixed_rotation_30_objects_occ0.7_0.9s/images/train/n02818832_0/n04379243_-7/img_b03_the_sofa_and_chair_company_-_stanley_bed_2014_quatre_dining_table_2011_gray.jpg,n02818832_0,n04379243_-7,fixed,0.726161,n02828884_4,Stimuli/psy_flexible_rotation_30_objects_occ0.7_0.9s/images/train/n04256520_4/n02828884_4/img_club_house_italia_nautilus_sofa_b05_c-5_classic_series_bench-2012_2002-3_gray.png,random,flexible,n02818832_0,n04379243_-7,Stimuli/canonical view 2/img_n02818832_0_gray.jpg,Stimuli/canonical view 2/img_n04379243_-7_gray.jpg,foreground,right,Experiments/experiment_34/156.jpg,Experiments/experiment_34/157.jpg,Experiments/experiment_34/158.jpg,Experiments/experiment_34/159.jpg,988,1,2023-06-28_13h38.00.368,Occlusion_Psychophysics,2022.1.4,Win32,59.88741167,,,right,"[""left""]",[0.7120999999995092],False,,0.0,0.0,39.0,39.0,39.0,1.0,,,,,,
,,,,,,,,,,,,,,,,,,,,,0.05,,,,,,,,,,Stimuli/psy_flexible_rotation_30_objects_occ0.7_0.9s/images/train/n02883344_0/n02828884_9/img_b03_box_cr-96_bench_2002_gray.jpg,n02883344_0,n02828884_9,flexible,0.850038,n02828884_9,Stimuli/psy_flexible_rotation_30_objects_occ0.7_0.9s/images/train/n02883344_0/n02828884_9/img_b03_box_cr-96_bench_2002-3_gray.png,foreground,same as foreground,n02883344_0,n02828884_9,Stimuli/canonical view 2/img_n02883344_0_gray.jpg,Stimuli/canonical view 2/img_n02828884_9_gray.jpg,foreground,left,Experiments/experiment_34/160.jpg,Experiments/experiment_34/161.jpg,Experiments/experiment_34/162.jpg,Experiments/experiment_34/163.jpg,988,1,2023-06-28_13h38.00.368,Occlusion_Psychophysics,2022.1.4,Win32,59.88741167,,,right,"[""right""]",[1.041199999999435],False,,0.0,0.0,40.0,40.0,40.0,1.0,,,,,,
,,,,,,,,,,,,,,,,,,,,,0.025,,,,,,,,,,Stimuli/psy_flexible_rotation_30_objects_occ0.7_0.9s/images/train/n03001627_9/n04405907_5/img_chair_eames_plastic_armchair_samsung_40_uhd_smart_tv_2011_2005_gray.jpg,n03001627_9,n04405907_5,flexible,0.838478,n02828884_3,Stimuli/psy_fixed_rotation_30_objects_occ0.7_0.9s/images/train/n02818832_3/n02828884_3/img_b05_ccm_contemporary_bed_max2013_b04_wood_metal_park_bench_2006-3_gray.png,random,fixed,n03001627_9,n03001627_-2,Stimuli/canonical view 2/img_n03001627_9_gray.jpg,Stimuli/canonical view 2/img_n03001627_-2_gray.jpg,random,right,Experiments/experiment_34/164.jpg,Experiments/experiment_34/165.jpg,Experiments/experiment_34/166.jpg,Experiments/experiment_34/167.jpg,988,1,2023-06-28_13h38.00.368,Occlusion_Psychophysics,2022.1.4,Win32,59.88741167,,,left,"[""left""]",[0.9876999999992222],False,,0.0,0.0,41.0,41.0,41.0,1.0,,,,,,
,,,,,,,,,,,,,,,,,,,,,0.025,,,,,,,,,,Stimuli/psy_fixed_rotation_30_objects_occ0.7_0.9s/images/train/n04379243_-7/n02828884_4/img_quatre_dining_table_b05_c-5_classic_series_bench-2012_2002_gray.jpg,n04379243_-7,n02828884_4,fixed,0.723731,n04256520_5,Stimuli/psy_flexible_rotation_30_objects_occ0.7_0.9s/images/train/n04379243_8/n04256520_5/img_glass_table_meridiani_belmondo_bench_sofa_2011-3_gray.png,random,flexible,n04379243_-7,n04256520_4,Stimuli/canonical view 2/img_n04379243_-7_gray.jpg,Stimuli/canonical view 2/img_n04256520_4_gray.jpg,random,left,Experiments/experiment_34/168.jpg,Experiments/experiment_34/169.jpg,Experiments/experiment_34/170.jpg,Experiments/experiment_34/171.jpg,988,1,2023-06-28_13h38.00.368,Occlusion_Psychophysics,2022.1.4,Win32,59.88741167,,,right,"[""right""]",[1.2536999999992986],False,,0.0,0.0,42.0,42.0,42.0,1.0,,,,,,
,,,,,,,,,,,,,,,,,,,,,0.05,,,,,,,,,,Stimuli/psy_flexible_rotation_30_objects_occ0.7_0.9s/images/train/n04379243_0/n04256520_9/img_17th_c._monastery_dining_table_2010_napoleon_iii_sofa_2013_gray.jpg,n04379243_0,n04256520_9,flexible,0.721819,n04405907_8,Stimuli/psy_fixed_rotation_30_objects_occ0.7_0.9s/images/train/n04379243_0/n04405907_8/img_17th_c._monastery_dining_table_2010_stylized_tv_2014-3_gray.png,random,fixed,n04379243_0,n04256520_9,Stimuli/canonical view 2/img_n04379243_0_gray.jpg,Stimuli/canonical view 2/img_n04256520_9_gray.jpg,foreground,left,Experiments/experiment_34/172.jpg,Experiments/experiment_34/173.jpg,Experiments/experiment_34/174.jpg,Experiments/experiment_34/175.jpg,988,1,2023-06-28_13h38.00.368,Occlusion_Psychophysics,2022.1.4,Win32,59.88741167,,,right,"[""right""]",[1.0609000000004016],False,,0.0,0.0,43.0,43.0,43.0,1.0,,,,,,
,,,,,,,,,,,,,,,,,,,,,0.025,,,,,,,,,,Stimuli/psy_fixed_rotation_30_objects_occ0.7_0.9s/images/train/n03928116_0/n03001627_8/img_b02_piano_chair_billiani_doll_2011_gray.jpg,n03928116_0,n03001627_8,fixed,0.74426,n02933112_4,Stimuli/psy_flexible_rotation_30_objects_occ0.7_0.9s/images/train/n02933112_-18/n02933112_4/img_cgaxis_models_48_26_vray_composite_buffet_2009-3_gray.png,random,flexible,n03928116_0,n02883344_0,Stimuli/canonical view 2/img_n03928116_0_gray.jpg,Stimuli/canonical view 2/img_n02883344_0_gray.jpg,random,left,Experiments/experiment_34/176.jpg,Experiments/experiment_34/177.jpg,Experiments/experiment_34/178.jpg,Experiments/experiment_34/179.jpg,988,1,2023-06-28_13h38.00.368,Occlusion_Psychophysics,2022.1.4,Win32,59.88741167,,,right,"[""left""]",[1.272099999999682],False,,0.0,0.0,44.0,44.0,44.0,1.0,,,,,,
,,,,,,,,,,,,,,,,,,,,,0.025,,,,,,,,,,Stimuli/psy_flexible_rotation_30_objects_occ0.7_0.9s/images/train/n04379243_-7/n04256520_9/img_quatre_dining_table_napoleon_iii_sofa_2005_gray.jpg,n04379243_-7,n04256520_9,flexible,0.842602,n04256520_9,Stimuli/psy_flexible_rotation_30_objects_occ0.7_0.9s/images/train/n04379243_-7/n04256520_9/img_quatre_dining_table_napoleon_iii_sofa_2005-3_gray.png,foreground,same as foreground,n04379243_-7,n04379243_8,Stimuli/canonical view 2/img_n04379243_-7_gray.jpg,Stimuli/canonical view 2/img_n04379243_8_gray.jpg,random,left,Experiments/experiment_34/180.jpg,Experiments/experiment_34/181.jpg,Experiments/experiment_34/182.jpg,Experiments/experiment_34/183.jpg,988,1,2023-06-28_13h38.00.368,Occlusion_Psychophysics,2022.1.4,Win32,59.88741167,,,left,"[""right""]",[1.0990999999996802],False,,0.0,0.0,45.0,45.0,45.0,1.0,,,,,,
,,,,,,,,,,,,,,,,,,,,,0.05,,,,,,,,,,Stimuli/psy_fixed_rotation_30_objects_occ0.7_0.9s/images/train/n02818832_9/n02883344_0/img_bed01_blue_b03_box_2013_gray.jpg,n02818832_9,n02883344_0,fixed,0.716147,n02883344_0,Stimuli/psy_fixed_rotation_30_objects_occ0.7_0.9s/images/train/n02818832_9/n02883344_0/img_bed01_blue_b03_box_2013-3_gray.png,foreground,same as foreground,n02818832_9,n02883344_0,Stimuli/canonical view 2/img_n02818832_9_gray.jpg,Stimuli/canonical view 2/img_n02883344_0_gray.jpg,foreground,left,Experiments/experiment_34/184.jpg,Experiments/experiment_34/185.jpg,Experiments/experiment_34/186.jpg,Experiments/experiment_34/187.jpg,988,1,2023-06-28_13h38.00.368,Occlusion_Psychophysics,2022.1.4,Win32,59.88741167,,,right,"[""left""]",[0.764400000000478],False,,0.0,0.0,46.0,46.0,46.0,1.0,,,,,,
,,,,,,,,,,,,,,,,,,,,,0.025,,,,,,,,,,Stimuli/psy_fixed_rotation_30_objects_occ0.7_0.9s/images/train/n02828884_3/n04256520_9/img_b04_wood_metal_park_bench_napoleon_iii_sofa_2015_gray.jpg,n02828884_3,n04256520_9,fixed,0.80735,n04256520_9,Stimuli/psy_fixed_rotation_30_objects_occ0.7_0.9s/images/train/n02828884_3/n04256520_9/img_b04_wood_metal_park_bench_napoleon_iii_sofa_2015-3_gray.png,foreground,same as foreground,n02828884_3,n02933112_4,Stimuli/canonical view 2/img_n02828884_3_gray.jpg,Stimuli/canonical view 2/img_n02933112_4_gray.jpg,random,right,Experiments/experiment_34/188.jpg,Experiments/experiment_34/189.jpg,Experiments/experiment_34/190.jpg,Experiments/experiment_34/191.jpg,988,1,2023-06-28_13h38.00.368,Occlusion_Psychophysics,2022.1.4,Win32,59.88741167,,,left,"[""left""]",[1.0688000000006923],False,,0.0,0.0,47.0,47.0,47.0,1.0,,,,,,
,,,,,,,,,,,,,,,,,,,,,0.025,,,,,,,,,,Stimuli/psy_fixed_rotation_30_objects_occ0.7_0.9s/images/train/n04379243_8/n04405907_8/img_glass_table_stylized_tv_2005_gray.jpg,n04379243_8,n04405907_8,fixed,0.793595,n04405907_9,Stimuli/psy_flexible_rotation_30_objects_occ0.7_0.9s/images/train/n02883344_-1/n04405907_9/img_woven_box_vray_004_2004-3_gray.png,random,flexible,n04379243_8,n02818832_3,Stimuli/canonical view 2/img_n04379243_8_gray.jpg,Stimuli/canonical view 2/img_n02818832_3_gray.jpg,random,left,Experiments/experiment_34/192.jpg,Experiments/experiment_34/193.jpg,Experiments/experiment_34/194.jpg,Experiments/experiment_34/195.jpg,988,1,2023-06-28_13h38.00.368,Occlusion_Psychophysics,2022.1.4,Win32,59.88741167,,,left,"[""right""]",[1.2695999999996275],False,,0.0,0.0,48.0,48.0,48.0,1.0,,,,,,
,,,,,,,,,,,,,,,,,,,,,0.025,,,,,,,,,,Stimuli/psy_fixed_rotation_30_objects_occ0.7_0.9s/images/train/n04379243_-7/n04379243_8/img_quatre_dining_table_glass_table_2002_gray.jpg,n04379243_-7,n04379243_8,fixed,0.704111,n04379243_8,Stimuli/psy_fixed_rotation_30_objects_occ0.7_0.9s/images/train/n04379243_-7/n04379243_8/img_quatre_dining_table_glass_table_2002-3_gray.png,foreground,same as foreground,n04379243_-7,n04379243_8,Stimuli/canonical view 2/img_n04379243_-7_gray.jpg,Stimuli/canonical view 2/img_n04379243_8_gray.jpg,foreground,right,Experiments/experiment_34/196.jpg,Experiments/experiment_34/197.jpg,Experiments/experiment_34/198.jpg,Experiments/experiment_34/199.jpg,988,1,2023-06-28_13h38.00.368,Occlusion_Psychophysics,2022.1.4,Win32,59.88741167,,,right,"[""right""]",[0.9029000000002725],False,,0.0,0.0,49.0,49.0,49.0,1.0,,,,,,
,,,,,,,,,,,,,,,,,,,,,0.05,,,,,,,,,,Stimuli/psy_fixed_rotation_30_objects_occ0.7_0.9s/images/train/n04405907_9/n04379243_8/img_vray_004_glass_table_2007_gray.jpg,n04405907_9,n04379243_8,fixed,0.729499,n04405907_9,Stimuli/psy_fixed_rotation_30_objects_occ0.7_0.9s/images/train/n04405907_9/n04405907_9/img_vray_004_vray_004_2003-3_gray.png,random,fixed,n04405907_9,n03001627_8,Stimuli/canonical view 2/img_n04405907_9_gray.jpg,Stimuli/canonical view 2/img_n03001627_8_gray.jpg,random,right,Experiments/experiment_34/200.jpg,Experiments/experiment_34/201.jpg,Experiments/experiment_34/202.jpg,Experiments/experiment_34/203.jpg,988,1,2023-06-28_13h38.00.368,Occlusion_Psychophysics,2022.1.4,Win32,59.88741167,,,right,"[""left""]",[0.8016999999993004],False,,0.0,0.0,50.0,50.0,50.0,1.0,,,,,,
,,,,,,,,,,,,,,,,,,,,,0.05,,,,,,,,,,Stimuli/psy_fixed_rotation_30_objects_occ0.7_0.9s/images/train/n02818832_0/n04379243_-7/img_b03_the_sofa_and_chair_company_-_stanley_bed_2014_quatre_dining_table_2007_gray.jpg,n02818832_0,n04379243_-7,fixed,0.767109,n04379243_0,Stimuli/psy_fixed_rotation_30_objects_occ0.7_0.9s/images/train/n02933112_-18/n04379243_0/img_cgaxis_models_48_26_vray_composite_17th_c._monastery_dining_table_2010_2001-3_gray.png,random,fixed,n02818832_0,n04379243_-7,Stimuli/canonical view 2/img_n02818832_0_gray.jpg,Stimuli/canonical view 2/img_n04379243_-7_gray.jpg,foreground,right,Experiments/experiment_34/204.jpg,Experiments/experiment_34/205.jpg,Experiments/experiment_34/206.jpg,Experiments/experiment_34/207.jpg,988,1,2023-06-28_13h38.00.368,Occlusion_Psychophysics,2022.1.4,Win32,59.88741167,,,right,"[""left""]",[0.9938000000006468],False,,0.0,0.0,51.0,51.0,51.0,1.0,,,,,,
,,,,,,,,,,,,,,,,,,,,,0.05,,,,,,,,,,Stimuli/psy_fixed_rotation_30_objects_occ0.7_0.9s/images/train/n02883344_0/n04256520_5/img_b03_box_meridiani_belmondo_bench_sofa_2001_gray.jpg,n02883344_0,n04256520_5,fixed,0.769769,n04256520_5,Stimuli/psy_fixed_rotation_30_objects_occ0.7_0.9s/images/train/n02883344_0/n04256520_5/img_b03_box_meridiani_belmondo_bench_sofa_2001-3_gray.png,foreground,same as foreground,n02883344_0,n03001627_-2,Stimuli/canonical view 2/img_n02883344_0_gray.jpg,Stimuli/canonical view 2/img_n03001627_-2_gray.jpg,random,left,Experiments/experiment_34/208.jpg,Experiments/experiment_34/209.jpg,Experiments/experiment_34/210.jpg,Experiments/experiment_34/211.jpg,988,1,2023-06-28_13h38.00.368,Occlusion_Psychophysics,2022.1.4,Win32,59.88741167,,,right,"[""right""]",[1.2254000000004908],False,,0.0,0.0,52.0,52.0,52.0,1.0,,,,,,
,,,,,,,,,,,,,,,,,,,,,0.025,,,,,,,,,,Stimuli/psy_fixed_rotation_30_objects_occ0.7_0.9s/images/train/n04256520_9/n02828884_3/img_napoleon_iii_sofa_b04_wood_metal_park_bench_2006_gray.jpg,n04256520_9,n02828884_3,fixed,0.766548,n04405907_5,Stimuli/psy_fixed_rotation_30_objects_occ0.7_0.9s/images/train/n02818832_0/n04405907_5/img_b03_the_sofa_and_chair_company_-_stanley_bed_2014_samsung_40_uhd_smart_tv_2011_2005-3_gray.png,random,fixed,n04256520_9,n03928116_0,Stimuli/canonical view 2/img_n04256520_9_gray.jpg,Stimuli/canonical view 2/img_n03928116_0_gray.jpg,random,right,Experiments/experiment_34/212.jpg,Experiments/experiment_34/213.jpg,Experiments/experiment_34/214.jpg,Experiments/experiment_34/215.jpg,988,1,2023-06-28_13h38.00.368,Occlusion_Psychophysics,2022.1.4,Win32,59.88741167,,,left,"[""right""]",[1.2774999999999181],False,,0.0,0.0,53.0,53.0,53.0,1.0,,,,,,
,,,,,,,,,,,,,,,,,,,,,0.025,,,,,,,,,,Stimuli/psy_fixed_rotation_30_objects_occ0.7_0.9s/images/train/n03001627_9/n02933112_4/img_chair_eames_plastic_armchair_buffet_2002_gray.jpg,n03001627_9,n02933112_4,fixed,0.715984,n02933112_4,Stimuli/psy_fixed_rotation_30_objects_occ0.7_0.9s/images/train/n03001627_9/n02933112_4/img_chair_eames_plastic_armchair_buffet_2002-3_gray.png,foreground,same as foreground,n03001627_9,n02933112_4,Stimuli/canonical view 2/img_n03001627_9_gray.jpg,Stimuli/canonical view 2/img_n02933112_4_gray.jpg,foreground,left,Experiments/experiment_34/216.jpg,Experiments/experiment_34/217.jpg,Experiments/experiment_34/218.jpg,Experiments/experiment_34/219.jpg,988,1,2023-06-28_13h38.00.368,Occlusion_Psychophysics,2022.1.4,Win32,59.88741167,,,right,"[""left""]",[1.2477000000012595],False,,0.0,0.0,54.0,54.0,54.0,1.0,,,,,,
,,,,,,,,,,,,,,,,,,,,,0.05,,,,,,,,,,Stimuli/psy_fixed_rotation_30_objects_occ0.7_0.9s/images/train/n02818832_0/n02933112_-18/img_b03_the_sofa_and_chair_company_-_stanley_bed_2014_cgaxis_models_48_26_vray_composite_2004_gray.jpg,n02818832_0,n02933112_-18,fixed,0.752737,n02828884_4,Stimuli/psy_flexible_rotation_30_objects_occ0.7_0.9s/images/train/n02828884_4/n02828884_4/img_b05_c-5_classic_series_bench-2012_b05_c-5_classic_series_bench-2012_2009-3_gray.png,random,flexible,n02818832_0,n02933112_-18,Stimuli/canonical view 2/img_n02818832_0_gray.jpg,Stimuli/canonical view 2/img_n02933112_-18_gray.jpg,foreground,left,Experiments/experiment_34/220.jpg,Experiments/experiment_34/221.jpg,Experiments/experiment_34/222.jpg,Experiments/experiment_34/223.jpg,988,1,2023-06-28_13h38.00.368,Occlusion_Psychophysics,2022.1.4,Win32,59.88741167,,,right,"[""left""]",[1.394099999999753],False,,0.0,0.0,55.0,55.0,55.0,1.0,,,,,,
,,,,,,,,,,,,,,,,,,,,,0.025,,,,,,,,,,Stimuli/psy_fixed_rotation_30_objects_occ0.7_0.9s/images/train/n02818832_0/n02933112_4/img_b03_the_sofa_and_chair_company_-_stanley_bed_2014_buffet_2014_gray.jpg,n02818832_0,n02933112_4,fixed,0.750544,n02933112_4,Stimuli/psy_fixed_rotation_30_objects_occ0.7_0.9s/images/train/n02818832_0/n02933112_4/img_b03_the_sofa_and_chair_company_-_stanley_bed_2014_buffet_2014-3_gray.png,foreground,same as foreground,n02818832_0,n03001627_-2,Stimuli/canonical view 2/img_n02818832_0_gray.jpg,Stimuli/canonical view 2/img_n03001627_-2_gray.jpg,random,left,Experiments/experiment_34/224.jpg,Experiments/experiment_34/225.jpg,Experiments/experiment_34/226.jpg,Experiments/experiment_34/227.jpg,988,1,2023-06-28_13h38.00.368,Occlusion_Psychophysics,2022.1.4,Win32,59.88741167,,,left,"[""right""]",[0.8193000000005668],False,,0.0,0.0,56.0,56.0,56.0,1.0,,,,,,
,,,,,,,,,,,,,,,,,,,,,0.05,,,,,,,,,,Stimuli/psy_fixed_rotation_30_objects_occ0.7_0.9s/images/train/n02883344_0/n03928116_0/img_b03_box_b02_piano_2015_gray.jpg,n02883344_0,n03928116_0,fixed,0.820068,n04405907_9,Stimuli/psy_fixed_rotation_30_objects_occ0.7_0.9s/images/train/n02828884_3/n04405907_9/img_b04_wood_metal_park_bench_vray_004_2009-3_gray.png,random,fixed,n02883344_0,n03928116_0,Stimuli/canonical view 2/img_n02883344_0_gray.jpg,Stimuli/canonical view 2/img_n03928116_0_gray.jpg,foreground,left,Experiments/experiment_34/228.jpg,Experiments/experiment_34/229.jpg,Experiments/experiment_34/230.jpg,Experiments/experiment_34/231.jpg,988,1,2023-06-28_13h38.00.368,Occlusion_Psychophysics,2022.1.4,Win32,59.88741167,,,right,"[""left""]",[0.6610000000000582],False,,0.0,0.0,57.0,57.0,57.0,1.0,,,,,,
,,,,,,,,,,,,,,,,,,,,,0.025,,,,,,,,,,Stimuli/psy_fixed_rotation_30_objects_occ0.7_0.9s/images/train/n02933112_-18/n02883344_-1/img_cgaxis_models_48_26_vray_composite_woven_box_2008_gray.jpg,n02933112_-18,n02883344_-1,fixed,0.726123,n02883344_-1,Stimuli/psy_fixed_rotation_30_objects_occ0.7_0.9s/images/train/n02933112_-18/n02883344_-1/img_cgaxis_models_48_26_vray_composite_woven_box_2008-3_gray.png,foreground,same as foreground,n02933112_-18,n02883344_-1,Stimuli/canonical view 2/img_n02933112_-18_gray.jpg,Stimuli/canonical view 2/img_n02883344_-1_gray.jpg,foreground,right,Experiments/experiment_34/232.jpg,Experiments/experiment_34/233.jpg,Experiments/experiment_34/234.jpg,Experiments/experiment_34/235.jpg,988,1,2023-06-28_13h38.00.368,Occlusion_Psychophysics,2022.1.4,Win32,59.88741167,,,right,"[""right""]",[0.8554000000003725],False,,0.0,0.0,58.0,58.0,58.0,1.0,,,,,,
,,,,,,,,,,,,,,,,,,,,,0.025,,,,,,,,,,Stimuli/psy_flexible_rotation_30_objects_occ0.7_0.9s/images/train/n02883344_-1/n04405907_8/img_woven_box_stylized_tv_2001_gray.jpg,n02883344_-1,n04405907_8,flexible,0.887804,n04405907_8,Stimuli/psy_flexible_rotation_30_objects_occ0.7_0.9s/images/train/n02883344_-1/n04405907_8/img_woven_box_stylized_tv_2001-3_gray.png,foreground,same as foreground,n02883344_-1,n04405907_8,Stimuli/canonical view 2/img_n02883344_-1_gray.jpg,Stimuli/canonical view 2/img_n04405907_8_gray.jpg,foreground,right,Experiments/experiment_34/236.jpg,Experiments/experiment_34/237.jpg,Experiments/experiment_34/238.jpg,Experiments/experiment_34/239.jpg,988,1,2023-06-28_13h38.00.368,Occlusion_Psychophysics,2022.1.4,Win32,59.88741167,,,right,"[""right""]",[0.7939000000003489],False,,0.0,0.0,59.0,59.0,59.0,1.0,,,,,,
,,,,,,,,,,,,,,,,,,,,,0.05,,,,,,,,,,Stimuli/psy_fixed_rotation_30_objects_occ0.7_0.9s/images/train/n02933112_4/n04256520_5/img_buffet_meridiani_belmondo_bench_sofa_2015_gray.jpg,n02933112_4,n04256520_5,fixed,0.702279,n02883344_15,Stimuli/psy_flexible_rotation_30_objects_occ0.7_0.9s/images/train/n02828884_4/n02883344_15/img_b05_c-5_classic_series_bench-2012_microwave_box_2010-3_gray.png,random,flexible,n02933112_4,n04256520_5,Stimuli/canonical view 2/img_n02933112_4_gray.jpg,Stimuli/canonical view 2/img_n04256520_5_gray.jpg,foreground,left,Experiments/experiment_34/240.jpg,Experiments/experiment_34/241.jpg,Experiments/experiment_34/242.jpg,Experiments/experiment_34/243.jpg,988,1,2023-06-28_13h38.00.368,Occlusion_Psychophysics,2022.1.4,Win32,59.88741167,,,left,"[""right""]",[1.0235999999997603],False,,0.0,0.0,60.0,60.0,60.0,1.0,,,,,,
,,,,,,,,,,,,,,,,,,,,,0.05,,,,,,,,,,Stimuli/psy_fixed_rotation_30_objects_occ0.7_0.9s/images/train/n02828884_4/n04379243_-7/img_b05_c-5_classic_series_bench-2012_quatre_dining_table_2007_gray.jpg,n02828884_4,n04379243_-7,fixed,0.726897,n02818832_3,Stimuli/psy_flexible_rotation_30_objects_occ0.7_0.9s/images/train/n02828884_3/n02818832_3/img_b04_wood_metal_park_bench_b05_ccm_contemporary_bed_max2013_2002-3_gray.png,random,flexible,n02828884_4,n04379243_0,Stimuli/canonical view 2/img_n02828884_4_gray.jpg,Stimuli/canonical view 2/img_n04379243_0_gray.jpg,random,right,Experiments/experiment_34/244.jpg,Experiments/experiment_34/245.jpg,Experiments/experiment_34/246.jpg,Experiments/experiment_34/247.jpg,988,1,2023-06-28_13h38.00.368,Occlusion_Psychophysics,2022.1.4,Win32,59.88741167,,,left,"[""right""]",[0.9314999999999145],False,,0.0,0.0,61.0,61.0,61.0,1.0,,,,,,
,,,,,,,,,,,,,,,,,,,,,0.025,,,,,,,,,,Stimuli/psy_fixed_rotation_30_objects_occ0.7_0.9s/images/train/n02828884_4/n02818832_3/img_b05_c-5_classic_series_bench-2012_b05_ccm_contemporary_bed_max2013_2008_gray.jpg,n02828884_4,n02818832_3,fixed,0.724384,n02818832_3,Stimuli/psy_fixed_rotation_30_objects_occ0.7_0.9s/images/train/n02828884_4/n02818832_3/img_b05_c-5_classic_series_bench-2012_b05_ccm_contemporary_bed_max2013_2008-3_gray.png,foreground,same as foreground,n02828884_4,n02818832_3,Stimuli/canonical view 2/img_n02828884_4_gray.jpg,Stimuli/canonical view 2/img_n02818832_3_gray.jpg,foreground,left,Experiments/experiment_34/248.jpg,Experiments/experiment_34/249.jpg,Experiments/experiment_34/250.jpg,Experiments/experiment_34/251.jpg,988,1,2023-06-28_13h38.00.368,Occlusion_Psychophysics,2022.1.4,Win32,59.88741167,,,right,"[""right""]",[0.7962999999988369],False,,0.0,0.0,62.0,62.0,62.0,1.0,,,,,,
,,,,,,,,,,,,,,,,,,,,,0.05,,,,,,,,,,Stimuli/psy_fixed_rotation_30_objects_occ0.7_0.9s/images/train/n04379243_-7/n04405907_9/img_quatre_dining_table_vray_004_2000_gray.jpg,n04379243_-7,n04405907_9,fixed,0.781544,n04256520_4,Stimuli/psy_fixed_rotation_30_objects_occ0.7_0.9s/images/train/n02818832_9/n04256520_4/img_bed01_blue_club_house_italia_nautilus_sofa_2015-3_gray.png,random,fixed,n04379243_-7,n02933112_-2,Stimuli/canonical view 2/img_n04379243_-7_gray.jpg,Stimuli/canonical view 2/img_n02933112_-2_gray.jpg,random,left,Experiments/experiment_34/252.jpg,Experiments/experiment_34/253.jpg,Experiments/experiment_34/254.jpg,Experiments/experiment_34/255.jpg,988,1,2023-06-28_13h38.00.368,Occlusion_Psychophysics,2022.1.4,Win32,59.88741167,,,left,"[""right""]",[0.8745999999996457],False,,0.0,0.0,63.0,63.0,63.0,1.0,,,,,,
,,,,,,,,,,,,,,,,,,,,,0.025,,,,,,,,,,Stimuli/psy_flexible_rotation_30_objects_occ0.7_0.9s/images/train/n03001627_8/n03001627_9/img_chair_billiani_doll_chair_eames_plastic_armchair_2012_gray.jpg,n03001627_8,n03001627_9,flexible,0.721983,n03001627_9,Stimuli/psy_flexible_rotation_30_objects_occ0.7_0.9s/images/train/n03001627_8/n03001627_9/img_chair_billiani_doll_chair_eames_plastic_armchair_2012-3_gray.png,foreground,same as foreground,n03001627_8,n03928116_4,Stimuli/canonical view 2/img_n03001627_8_gray.jpg,Stimuli/canonical view 2/img_n03928116_4_gray.jpg,random,left,Experiments/experiment_34/256.jpg,Experiments/experiment_34/257.jpg,Experiments/experiment_34/258.jpg,Experiments/experiment_34/259.jpg,988,1,2023-06-28_13h38.00.368,Occlusion_Psychophysics,2022.1.4,Win32,59.88741167,,,right,"[""left""]",[0.9648000000006505],False,,0.0,0.0,64.0,64.0,64.0,1.0,,,,,,
,,,,,,,,,,,,,,,,,,,,,0.05,,,,,,,,,,Stimuli/psy_fixed_rotation_30_objects_occ0.7_0.9s/images/train/n04256520_4/n02883344_-1/img_club_house_italia_nautilus_sofa_woven_box_2013_gray.jpg,n04256520_4,n02883344_-1,fixed,0.713732,n02883344_-1,Stimuli/psy_fixed_rotation_30_objects_occ0.7_0.9s/images/train/n04256520_4/n02883344_-1/img_club_house_italia_nautilus_sofa_woven_box_2013-3_gray.png,foreground,same as foreground,n04256520_4,n02883344_15,Stimuli/canonical view 2/img_n04256520_4_gray.jpg,Stimuli/canonical view 2/img_n02883344_15_gray.jpg,random,left,Experiments/experiment_34/260.jpg,Experiments/experiment_34/261.jpg,Experiments/experiment_34/262.jpg,Experiments/experiment_34/263.jpg,988,1,2023-06-28_13h38.00.368,Occlusion_Psychophysics,2022.1.4,Win32,59.88741167,,,left,"[""right""]",[1.0185999999996511],False,,0.0,0.0,65.0,65.0,65.0,1.0,,,,,,
,,,,,,,,,,,,,,,,,,,,,0.025,,,,,,,,,,Stimuli/psy_flexible_rotation_30_objects_occ0.7_0.9s/images/train/n02828884_3/n04256520_4/img_b04_wood_metal_park_bench_club_house_italia_nautilus_sofa_2013_gray.jpg,n02828884_3,n04256520_4,flexible,0.711998,n04256520_4,Stimuli/psy_flexible_rotation_30_objects_occ0.7_0.9s/images/train/n02828884_3/n04256520_4/img_b04_wood_metal_park_bench_club_house_italia_nautilus_sofa_2013-3_gray.png,foreground,same as foreground,n02828884_3,n04256520_4,Stimuli/canonical view 2/img_n02828884_3_gray.jpg,Stimuli/canonical view 2/img_n04256520_4_gray.jpg,foreground,right,Experiments/experiment_34/264.jpg,Experiments/experiment_34/265.jpg,Experiments/experiment_34/266.jpg,Experiments/experiment_34/267.jpg,988,1,2023-06-28_13h38.00.368,Occlusion_Psychophysics,2022.1.4,Win32,59.88741167,,,left,"[""left""]",[0.6848000000006778],False,,0.0,0.0,66.0,66.0,66.0,1.0,,,,,,
,,,,,,,,,,,,,,,,,,,,,0.05,,,,,,,,,,Stimuli/psy_fixed_rotation_30_objects_occ0.7_0.9s/images/train/n03928116_0/n04405907_9/img_b02_piano_vray_004_2002_gray.jpg,n03928116_0,n04405907_9,fixed,0.732356,n04405907_9,Stimuli/psy_fixed_rotation_30_objects_occ0.7_0.9s/images/train/n03928116_0/n04405907_9/img_b02_piano_vray_004_2002-3_gray.png,foreground,same as foreground,n03928116_0,n02933112_4,Stimuli/canonical view 2/img_n03928116_0_gray.jpg,Stimuli/canonical view 2/img_n02933112_4_gray.jpg,random,right,Experiments/experiment_34/268.jpg,Experiments/experiment_34/269.jpg,Experiments/experiment_34/270.jpg,Experiments/experiment_34/271.jpg,988,1,2023-06-28_13h38.00.368,Occlusion_Psychophysics,2022.1.4,Win32,59.88741167,,,left,"[""left""]",[0.7202999999990425],False,,0.0,0.0,67.0,67.0,67.0,1.0,,,,,,
,,,,,,,,,,,,,,,,,,,,,0.025,,,,,,,,,,Stimuli/psy_flexible_rotation_30_objects_occ0.7_0.9s/images/train/n03928116_0/n02828884_3/img_b02_piano_b04_wood_metal_park_bench_2004_gray.jpg,n03928116_0,n02828884_3,flexible,0.710794,n02828884_3,Stimuli/psy_flexible_rotation_30_objects_occ0.7_0.9s/images/train/n03928116_0/n02828884_3/img_b02_piano_b04_wood_metal_park_bench_2004-3_gray.png,foreground,same as foreground,n03928116_0,n02818832_3,Stimuli/canonical view 2/img_n03928116_0_gray.jpg,Stimuli/canonical view 2/img_n02818832_3_gray.jpg,random,left,Experiments/experiment_34/272.jpg,Experiments/experiment_34/273.jpg,Experiments/experiment_34/274.jpg,Experiments/experiment_34/275.jpg,988,1,2023-06-28_13h38.00.368,Occlusion_Psychophysics,2022.1.4,Win32,59.88741167,,,left,"[""left""]",[0.5595999999995911],False,,0.0,0.0,68.0,68.0,68.0,1.0,,,,,,
,,,,,,,,,,,,,,,,,,,,,0.05,,,,,,,,,,Stimuli/psy_flexible_rotation_30_objects_occ0.7_0.9s/images/train/n02828884_9/n02883344_-1/img_cr-96_bench_woven_box_2002_gray.jpg,n02828884_9,n02883344_-1,flexible,0.805674,n02883344_-1,Stimuli/psy_flexible_rotation_30_objects_occ0.7_0.9s/images/train/n02828884_9/n02883344_-1/img_cr-96_bench_woven_box_2002-3_gray.png,foreground,same as foreground,n02828884_9,n02883344_-1,Stimuli/canonical view 2/img_n02828884_9_gray.jpg,Stimuli/canonical view 2/img_n02883344_-1_gray.jpg,foreground,right,Experiments/experiment_34/276.jpg,Experiments/experiment_34/277.jpg,Experiments/experiment_34/278.jpg,Experiments/experiment_34/279.jpg,988,1,2023-06-28_13h38.00.368,Occlusion_Psychophysics,2022.1.4,Win32,59.88741167,,,right,"[""right""]",[0.8061999999990803],False,,0.0,0.0,69.0,69.0,69.0,1.0,,,,,,
,,,,,,,,,,,,,,,,,,,,,0.05,,,,,,,,,,Stimuli/psy_flexible_rotation_30_objects_occ0.7_0.9s/images/train/n04379243_0/n02828884_3/img_17th_c._monastery_dining_table_2010_b04_wood_metal_park_bench_2002_gray.jpg,n04379243_0,n02828884_3,flexible,0.748212,n02933112_-2,Stimuli/psy_fixed_rotation_30_objects_occ0.7_0.9s/images/train/n04405907_8/n02933112_-2/img_stylized_tv_sink_base_white_wood_2013-3_gray.png,random,fixed,n04379243_0,n02828884_3,Stimuli/canonical view 2/img_n04379243_0_gray.jpg,Stimuli/canonical view 2/img_n02828884_3_gray.jpg,foreground,right,Experiments/experiment_34/280.jpg,Experiments/experiment_34/281.jpg,Experiments/experiment_34/282.jpg,Experiments/experiment_34/283.jpg,988,1,2023-06-28_13h38.00.368,Occlusion_Psychophysics,2022.1.4,Win32,59.88741167,,,right,"[""right""]",[0.8690000000001419],False,,0.0,0.0,70.0,70.0,70.0,1.0,,,,,,
,,,,,,,,,,,,,,,,,,,,,0.05,,,,,,,,,,Stimuli/psy_fixed_rotation_30_objects_occ0.7_0.9s/images/train/n04405907_5/n03928116_10/img_samsung_40_uhd_smart_tv_2011_ydp_103_r_2012__vray_2006_gray.jpg,n04405907_5,n03928116_10,fixed,0.765166,n03928116_10,Stimuli/psy_fixed_rotation_30_objects_occ0.7_0.9s/images/train/n04405907_5/n03928116_10/img_samsung_40_uhd_smart_tv_2011_ydp_103_r_2012__vray_2006-3_gray.png,foreground,same as foreground,n04405907_5,n02818832_3,Stimuli/canonical view 2/img_n04405907_5_gray.jpg,Stimuli/canonical view 2/img_n02818832_3_gray.jpg,random,left,Experiments/experiment_34/284.jpg,Experiments/experiment_34/285.jpg,Experiments/experiment_34/286.jpg,Experiments/experiment_34/287.jpg,988,1,2023-06-28_13h38.00.368,Occlusion_Psychophysics,2022.1.4,Win32,59.88741167,,,left,"[""left""]",[1.5527999999990243],False,,0.0,0.0,71.0,71.0,71.0,1.0,,,,,,
,,,,,,,,,,,,,,,,,,,,,0.025,,,,,,,,,,Stimuli/psy_fixed_rotation_30_objects_occ0.7_0.9s/images/train/n04256520_5/n04256520_4/img_meridiani_belmondo_bench_sofa_club_house_italia_nautilus_sofa_2015_gray.jpg,n04256520_5,n04256520_4,fixed,0.815825,n02883344_0,Stimuli/psy_flexible_rotation_30_objects_occ0.7_0.9s/images/train/n02933112_-2/n02883344_0/img_sink_base_white_wood_b03_box_2011-3_gray.png,random,flexible,n04256520_5,n03928116_0,Stimuli/canonical view 2/img_n04256520_5_gray.jpg,Stimuli/canonical view 2/img_n03928116_0_gray.jpg,random,left,Experiments/experiment_34/288.jpg,Experiments/experiment_34/289.jpg,Experiments/experiment_34/290.jpg,Experiments/experiment_34/291.jpg,988,1,2023-06-28_13h38.00.368,Occlusion_Psychophysics,2022.1.4,Win32,59.88741167,,,right,"[""right""]",[1.0559000000005199],False,,0.0,0.0,72.0,72.0,72.0,1.0,,,,,,
,,,,,,,,,,,,,,,,,,,,,0.05,,,,,,,,,,Stimuli/psy_flexible_rotation_30_objects_occ0.7_0.9s/images/train/n04256520_5/n02818832_9/img_meridiani_belmondo_bench_sofa_bed01_blue_2014_gray.jpg,n04256520_5,n02818832_9,flexible,0.774509,n02883344_15,Stimuli/psy_fixed_rotation_30_objects_occ0.7_0.9s/images/train/n02828884_3/n02883344_15/img_b04_wood_metal_park_bench_microwave_box_2010-3_gray.png,random,fixed,n04256520_5,n03928116_0,Stimuli/canonical view 2/img_n04256520_5_gray.jpg,Stimuli/canonical view 2/img_n03928116_0_gray.jpg,random,right,Experiments/experiment_34/292.jpg,Experiments/experiment_34/293.jpg,Experiments/experiment_34/294.jpg,Experiments/experiment_34/295.jpg,988,1,2023-06-28_13h38.00.368,Occlusion_Psychophysics,2022.1.4,Win32,59.88741167,,,left,"[""right""]",[1.1264000000003307],False,,0.0,0.0,73.0,73.0,73.0,1.0,,,,,,
,,,,,,,,,,,,,,,,,,,,,0.025,,,,,,,,,,Stimuli/psy_flexible_rotation_30_objects_occ0.7_0.9s/images/train/n02818832_9/n02883344_-1/img_bed01_blue_woven_box_2011_gray.jpg,n02818832_9,n02883344_-1,flexible,0.766995,n02883344_-1,Stimuli/psy_flexible_rotation_30_objects_occ0.7_0.9s/images/train/n02818832_9/n02883344_-1/img_bed01_blue_woven_box_2011-3_gray.png,foreground,same as foreground,n02818832_9,n02933112_-18,Stimuli/canonical view 2/img_n02818832_9_gray.jpg,Stimuli/canonical view 2/img_n02933112_-18_gray.jpg,random,right,Experiments/experiment_34/296.jpg,Experiments/experiment_34/297.jpg,Experiments/experiment_34/298.jpg,Experiments/experiment_34/299.jpg,988,1,2023-06-28_13h38.00.368,Occlusion_Psychophysics,2022.1.4,Win32,59.88741167,,,left,"[""right""]",[1.0480999999997493],False,,0.0,0.0,74.0,74.0,74.0,1.0,,,,,,
,,,,,,,,,,,,,,,,,,,,,0.025,,,,,,,,,,Stimuli/psy_fixed_rotation_30_objects_occ0.7_0.9s/images/train/n02933112_4/n03928116_0/img_buffet_b02_piano_2014_gray.jpg,n02933112_4,n03928116_0,fixed,0.713587,n03928116_0,Stimuli/psy_fixed_rotation_30_objects_occ0.7_0.9s/images/train/n02933112_4/n03928116_0/img_buffet_b02_piano_2014-3_gray.png,foreground,same as foreground,n02933112_4,n02883344_0,Stimuli/canonical view 2/img_n02933112_4_gray.jpg,Stimuli/canonical view 2/img_n02883344_0_gray.jpg,random,left,Experiments/experiment_34/300.jpg,Experiments/experiment_34/301.jpg,Experiments/experiment_34/302.jpg,Experiments/experiment_34/303.jpg,988,1,2023-06-28_13h38.00.368,Occlusion_Psychophysics,2022.1.4,Win32,59.88741167,,,right,"[""left""]",[1.7230000000001837],False,,0.0,0.0,75.0,75.0,75.0,1.0,,,,,,
,,,,,,,,,,,,,,,,,,,,,0.05,,,,,,,,,,Stimuli/psy_flexible_rotation_30_objects_occ0.7_0.9s/images/train/n02828884_9/n03928116_0/img_cr-96_bench_b02_piano_2005_gray.jpg,n02828884_9,n03928116_0,flexible,0.734999,n04256520_5,Stimuli/psy_flexible_rotation_30_objects_occ0.7_0.9s/images/train/n02933112_-2/n04256520_5/img_sink_base_white_wood_meridiani_belmondo_bench_sofa_2003-3_gray.png,random,flexible,n02828884_9,n02828884_4,Stimuli/canonical view 2/img_n02828884_9_gray.jpg,Stimuli/canonical view 2/img_n02828884_4_gray.jpg,random,right,Experiments/experiment_34/304.jpg,Experiments/experiment_34/305.jpg,Experiments/experiment_34/306.jpg,Experiments/experiment_34/307.jpg,988,1,2023-06-28_13h38.00.368,Occlusion_Psychophysics,2022.1.4,Win32,59.88741167,,,left,"[""right""]",[1.6588000000006105],False,,0.0,0.0,76.0,76.0,76.0,1.0,,,,,,
,,,,,,,,,,,,,,,,,,,,,0.025,,,,,,,,,,Stimuli/psy_flexible_rotation_30_objects_occ0.7_0.9s/images/train/n04256520_9/n02818832_3/img_napoleon_iii_sofa_b05_ccm_contemporary_bed_max2013_2000_gray.jpg,n04256520_9,n02818832_3,flexible,0.714758,n02818832_3,Stimuli/psy_flexible_rotation_30_objects_occ0.7_0.9s/images/train/n04256520_9/n02818832_3/img_napoleon_iii_sofa_b05_ccm_contemporary_bed_max2013_2000-3_gray.png,foreground,same as foreground,n04256520_9,n02933112_4,Stimuli/canonical view 2/img_n04256520_9_gray.jpg,Stimuli/canonical view 2/img_n02933112_4_gray.jpg,random,right,Experiments/experiment_34/308.jpg,Experiments/experiment_34/309.jpg,Experiments/experiment_34/310.jpg,Experiments/experiment_34/311.jpg,988,1,2023-06-28_13h38.00.368,Occlusion_Psychophysics,2022.1.4,Win32,59.88741167,,,left,"[""right""]",[1.421299999998837],False,,0.0,0.0,77.0,77.0,77.0,1.0,,,,,,
,,,,,,,,,,,,,,,,,,,,,0.025,,,,,,,,,,Stimuli/psy_flexible_rotation_30_objects_occ0.7_0.9s/images/train/n02883344_0/n02933112_-18/img_b03_box_cgaxis_models_48_26_vray_composite_2003_gray.jpg,n02883344_0,n02933112_-18,flexible,0.759155,n03928116_4,Stimuli/psy_fixed_rotation_30_objects_occ0.7_0.9s/images/train/n04379243_8/n03928116_4/img_glass_table_dp_33_b_2013__vray_2000-3_gray.png,random,fixed,n02883344_0,n02933112_-18,Stimuli/canonical view 2/img_n02883344_0_gray.jpg,Stimuli/canonical view 2/img_n02933112_-18_gray.jpg,foreground,left,Experiments/experiment_34/312.jpg,Experiments/experiment_34/313.jpg,Experiments/experiment_34/314.jpg,Experiments/experiment_34/315.jpg,988,1,2023-06-28_13h38.00.368,Occlusion_Psychophysics,2022.1.4,Win32,59.88741167,,,left,"[""right""]",[0.8272999999990134],False,,0.0,0.0,78.0,78.0,78.0,1.0,,,,,,
,,,,,,,,,,,,,,,,,,,,,0.025,,,,,,,,,,Stimuli/psy_flexible_rotation_30_objects_occ0.7_0.9s/images/train/n02933112_-2/n04405907_5/img_sink_base_white_wood_samsung_40_uhd_smart_tv_2011_2003_gray.jpg,n02933112_-2,n04405907_5,flexible,0.727558,n04405907_5,Stimuli/psy_flexible_rotation_30_objects_occ0.7_0.9s/images/train/n02933112_-2/n04405907_5/img_sink_base_white_wood_samsung_40_uhd_smart_tv_2011_2003-3_gray.png,foreground,same as foreground,n02933112_-2,n02828884_3,Stimuli/canonical view 2/img_n02933112_-2_gray.jpg,Stimuli/canonical view 2/img_n02828884_3_gray.jpg,random,left,Experiments/experiment_34/316.jpg,Experiments/experiment_34/317.jpg,Experiments/experiment_34/318.jpg,Experiments/experiment_34/319.jpg,988,1,2023-06-28_13h38.00.368,Occlusion_Psychophysics,2022.1.4,Win32,59.88741167,,,left,"[""left""]",[0.9360999999996693],False,,0.0,0.0,79.0,79.0,79.0,1.0,,,,,,
,,,,,,,,,,,,,,,,,,,,,0.05,,,,,,,,,,Stimuli/psy_fixed_rotation_30_objects_occ0.7_0.9s/images/train/n02933112_4/n03928116_0/img_buffet_b02_piano_2000_gray.jpg,n02933112_4,n03928116_0,fixed,0.752375,n03928116_0,Stimuli/psy_fixed_rotation_30_objects_occ0.7_0.9s/images/train/n02933112_4/n03928116_0/img_buffet_b02_piano_2000-3_gray.png,foreground,same as foreground,n02933112_4,n03928116_0,Stimuli/canonical view 2/img_n02933112_4_gray.jpg,Stimuli/canonical view 2/img_n03928116_0_gray.jpg,foreground,left,Experiments/experiment_34/320.jpg,Experiments/experiment_34/321.jpg,Experiments/experiment_34/322.jpg,Experiments/experiment_34/323.jpg,988,1,2023-06-28_13h38.00.368,Occlusion_Psychophysics,2022.1.4,Win32,59.88741167,,,right,"[""right""]",[0.7687000000012176],False,,0.0,0.0,80.0,80.0,80.0,1.0,,,,,,
,,,,,,,,,,,,,,,,,,,,,0.05,,,,,,,,,,Stimuli/psy_fixed_rotation_30_objects_occ0.7_0.9s/images/train/n03928116_0/n04379243_0/img_b02_piano_17th_c._monastery_dining_table_2010_2006_gray.jpg,n03928116_0,n04379243_0,fixed,0.702798,n03928116_10,Stimuli/psy_fixed_rotation_30_objects_occ0.7_0.9s/images/train/n02883344_0/n03928116_10/img_b03_box_ydp_103_r_2012__vray_2001-3_gray.png,random,fixed,n03928116_0,n04379243_0,Stimuli/canonical view 2/img_n03928116_0_gray.jpg,Stimuli/canonical view 2/img_n04379243_0_gray.jpg,foreground,right,Experiments/experiment_34/324.jpg,Experiments/experiment_34/325.jpg,Experiments/experiment_34/326.jpg,Experiments/experiment_34/327.jpg,988,1,2023-06-28_13h38.00.368,Occlusion_Psychophysics,2022.1.4,Win32,59.88741167,,,right,"[""left""]",[0.869700000001103],False,,0.0,0.0,81.0,81.0,81.0,1.0,,,,,,
,,,,,,,,,,,,,,,,,,,,,0.025,,,,,,,,,,Stimuli/psy_fixed_rotation_30_objects_occ0.7_0.9s/images/train/n04379243_8/n04379243_-7/img_glass_table_quatre_dining_table_2007_gray.jpg,n04379243_8,n04379243_-7,fixed,0.785229,n04405907_5,Stimuli/psy_fixed_rotation_30_objects_occ0.7_0.9s/images/train/n04405907_8/n04405907_5/img_stylized_tv_samsung_40_uhd_smart_tv_2011_2012-3_gray.png,random,fixed,n04379243_8,n02818832_9,Stimuli/canonical view 2/img_n04379243_8_gray.jpg,Stimuli/canonical view 2/img_n02818832_9_gray.jpg,random,left,Experiments/experiment_34/328.jpg,Experiments/experiment_34/329.jpg,Experiments/experiment_34/330.jpg,Experiments/experiment_34/331.jpg,988,1,2023-06-28_13h38.00.368,Occlusion_Psychophysics,2022.1.4,Win32,59.88741167,,,left,"[""left""]",[1.469599999999673],False,,0.0,0.0,82.0,82.0,82.0,1.0,,,,,,
,,,,,,,,,,,,,,,,,,,,,0.05,,,,,,,,,,Stimuli/psy_flexible_rotation_30_objects_occ0.7_0.9s/images/train/n04379243_8/n02818832_0/img_glass_table_b03_the_sofa_and_chair_company_-_stanley_bed_2014_2007_gray.jpg,n04379243_8,n02818832_0,flexible,0.71957,n02818832_0,Stimuli/psy_flexible_rotation_30_objects_occ0.7_0.9s/images/train/n04379243_8/n02818832_0/img_glass_table_b03_the_sofa_and_chair_company_-_stanley_bed_2014_2007-3_gray.png,foreground,same as foreground,n04379243_8,n02828884_3,Stimuli/canonical view 2/img_n04379243_8_gray.jpg,Stimuli/canonical view 2/img_n02828884_3_gray.jpg,random,right,Experiments/experiment_34/332.jpg,Experiments/experiment_34/333.jpg,Experiments/experiment_34/334.jpg,Experiments/experiment_34/335.jpg,988,1,2023-06-28_13h38.00.368,Occlusion_Psychophysics,2022.1.4,Win32,59.88741167,,,left,"[""right""]",[1.2359999999998763],False,,0.0,0.0,83.0,83.0,83.0,1.0,,,,,,
,,,,,,,,,,,,,,,,,,,,,0.025,,,,,,,,,,Stimuli/psy_flexible_rotation_30_objects_occ0.7_0.9s/images/train/n04256520_9/n02883344_0/img_napoleon_iii_sofa_b03_box_2015_gray.jpg,n04256520_9,n02883344_0,flexible,0.700333,n02883344_0,Stimuli/psy_flexible_rotation_30_objects_occ0.7_0.9s/images/train/n04256520_9/n02883344_0/img_napoleon_iii_sofa_b03_box_2015-3_gray.png,foreground,same as foreground,n04256520_9,n04256520_5,Stimuli/canonical view 2/img_n04256520_9_gray.jpg,Stimuli/canonical view 2/img_n04256520_5_gray.jpg,random,right,Experiments/experiment_34/336.jpg,Experiments/experiment_34/337.jpg,Experiments/experiment_34/338.jpg,Experiments/experiment_34/339.jpg,988,1,2023-06-28_13h38.00.368,Occlusion_Psychophysics,2022.1.4,Win32,59.88741167,,,left,"[""left""]",[1.0420999999994365],False,,0.0,0.0,84.0,84.0,84.0,1.0,,,,,,
,,,,,,,,,,,,,,,,,,,,,0.05,,,,,,,,,,Stimuli/psy_flexible_rotation_30_objects_occ0.7_0.9s/images/train/n03001627_8/n02818832_0/img_chair_billiani_doll_b03_the_sofa_and_chair_company_-_stanley_bed_2014_2013_gray.jpg,n03001627_8,n02818832_0,flexible,0.710291,n02818832_0,Stimuli/psy_flexible_rotation_30_objects_occ0.7_0.9s/images/train/n03001627_8/n02818832_0/img_chair_billiani_doll_b03_the_sofa_and_chair_company_-_stanley_bed_2014_2013-3_gray.png,foreground,same as foreground,n03001627_8,n04405907_8,Stimuli/canonical view 2/img_n03001627_8_gray.jpg,Stimuli/canonical view 2/img_n04405907_8_gray.jpg,random,right,Experiments/experiment_34/340.jpg,Experiments/experiment_34/341.jpg,Experiments/experiment_34/342.jpg,Experiments/experiment_34/343.jpg,988,1,2023-06-28_13h38.00.368,Occlusion_Psychophysics,2022.1.4,Win32,59.88741167,,,left,"[""right""]",[1.086999999999989],False,,0.0,0.0,85.0,85.0,85.0,1.0,,,,,,
,,,,,,,,,,,,,,,,,,,,,0.025,,,,,,,,,,Stimuli/psy_fixed_rotation_30_objects_occ0.7_0.9s/images/train/n04379243_8/n04405907_8/img_glass_table_stylized_tv_2001_gray.jpg,n04379243_8,n04405907_8,fixed,0.739618,n04405907_8,Stimuli/psy_fixed_rotation_30_objects_occ0.7_0.9s/images/train/n04379243_8/n04405907_8/img_glass_table_stylized_tv_2001-3_gray.png,foreground,same as foreground,n04379243_8,n04405907_8,Stimuli/canonical view 2/img_n04379243_8_gray.jpg,Stimuli/canonical view 2/img_n04405907_8_gray.jpg,foreground,right,Experiments/experiment_34/344.jpg,Experiments/experiment_34/345.jpg,Experiments/experiment_34/346.jpg,Experiments/experiment_34/347.jpg,988,1,2023-06-28_13h38.00.368,Occlusion_Psychophysics,2022.1.4,Win32,59.88741167,,,right,"[""right""]",[0.7602000000010776],False,,0.0,0.0,86.0,86.0,86.0,1.0,,,,,,
,,,,,,,,,,,,,,,,,,,,,0.05,,,,,,,,,,Stimuli/psy_fixed_rotation_30_objects_occ0.7_0.9s/images/train/n03001627_9/n03928116_0/img_chair_eames_plastic_armchair_b02_piano_2001_gray.jpg,n03001627_9,n03928116_0,fixed,0.816057,n03928116_0,Stimuli/psy_fixed_rotation_30_objects_occ0.7_0.9s/images/train/n03001627_9/n03928116_0/img_chair_eames_plastic_armchair_b02_piano_2001-3_gray.png,foreground,same as foreground,n03001627_9,n04256520_5,Stimuli/canonical view 2/img_n03001627_9_gray.jpg,Stimuli/canonical view 2/img_n04256520_5_gray.jpg,random,right,Experiments/experiment_34/348.jpg,Experiments/experiment_34/349.jpg,Experiments/experiment_34/350.jpg,Experiments/experiment_34/351.jpg,988,1,2023-06-28_13h38.00.368,Occlusion_Psychophysics,2022.1.4,Win32,59.88741167,,,right,"[""right""]",[2.969500000000153],False,,0.0,0.0,87.0,87.0,87.0,1.0,,,,,,
,,,,,,,,,,,,,,,,,,,,,0.05,,,,,,,,,,Stimuli/psy_fixed_rotation_30_objects_occ0.7_0.9s/images/train/n02933112_-2/n02818832_9/img_sink_base_white_wood_bed01_blue_2000_gray.jpg,n02933112_-2,n02818832_9,fixed,0.774819,n04405907_5,Stimuli/psy_fixed_rotation_30_objects_occ0.7_0.9s/images/train/n04256520_5/n04405907_5/img_meridiani_belmondo_bench_sofa_samsung_40_uhd_smart_tv_2011_2014-3_gray.png,random,fixed,n02933112_-2,n02818832_9,Stimuli/canonical view 2/img_n02933112_-2_gray.jpg,Stimuli/canonical view 2/img_n02818832_9_gray.jpg,foreground,left,Experiments/experiment_34/352.jpg,Experiments/experiment_34/353.jpg,Experiments/experiment_34/354.jpg,Experiments/experiment_34/355.jpg,988,1,2023-06-28_13h38.00.368,Occlusion_Psychophysics,2022.1.4,Win32,59.88741167,,,right,"[""left""]",[1.0774000000003525],False,,0.0,0.0,88.0,88.0,88.0,1.0,,,,,,
,,,,,,,,,,,,,,,,,,,,,0.025,,,,,,,,,,Stimuli/psy_fixed_rotation_30_objects_occ0.7_0.9s/images/train/n02818832_9/n04256520_4/img_bed01_blue_club_house_italia_nautilus_sofa_2008_gray.jpg,n02818832_9,n04256520_4,fixed,0.708128,n04379243_0,Stimuli/psy_fixed_rotation_30_objects_occ0.7_0.9s/images/train/n04379243_0/n04379243_0/img_17th_c._monastery_dining_table_2010_17th_c._monastery_dining_table_2010_2000-3_gray.png,random,fixed,n02818832_9,n04379243_-7,Stimuli/canonical view 2/img_n02818832_9_gray.jpg,Stimuli/canonical view 2/img_n04379243_-7_gray.jpg,random,left,Experiments/experiment_34/356.jpg,Experiments/experiment_34/357.jpg,Experiments/experiment_34/358.jpg,Experiments/experiment_34/359.jpg,988,1,2023-06-28_13h38.00.368,Occlusion_Psychophysics,2022.1.4,Win32,59.88741167,,,right,"[""left""]",[1.5080000000000382],False,,0.0,0.0,89.0,89.0,89.0,1.0,,,,,,
,,,,,,,,,,,,,,,,,,,,,0.05,,,,,,,,,,Stimuli/psy_fixed_rotation_30_objects_occ0.7_0.9s/images/train/n04379243_-7/n02933112_-2/img_quatre_dining_table_sink_base_white_wood_2002_gray.jpg,n04379243_-7,n02933112_-2,fixed,0.704948,n02933112_-2,Stimuli/psy_fixed_rotation_30_objects_occ0.7_0.9s/images/train/n04379243_-7/n02933112_-2/img_quatre_dining_table_sink_base_white_wood_2002-3_gray.png,foreground,same as foreground,n04379243_-7,n02933112_-2,Stimuli/canonical view 2/img_n04379243_-7_gray.jpg,Stimuli/canonical view 2/img_n02933112_-2_gray.jpg,foreground,right,Experiments/experiment_34/360.jpg,Experiments/experiment_34/361.jpg,Experiments/experiment_34/362.jpg,Experiments/experiment_34/363.jpg,988,1,2023-06-28_13h38.00.368,Occlusion_Psychophysics,2022.1.4,Win32,59.88741167,,,right,"[""left""]",[0.9037000000012085],False,,0.0,0.0,90.0,90.0,90.0,1.0,,,,,,
,,,,,,,,,,,,,,,,,,,,,0.05,,,,,,,,,,Stimuli/psy_fixed_rotation_30_objects_occ0.7_0.9s/images/train/n04379243_8/n04405907_9/img_glass_table_vray_004_2003_gray.jpg,n04379243_8,n04405907_9,fixed,0.758788,n04405907_9,Stimuli/psy_fixed_rotation_30_objects_occ0.7_0.9s/images/train/n04379243_8/n04405907_9/img_glass_table_vray_004_2003-3_gray.png,foreground,same as foreground,n04379243_8,n02818832_3,Stimuli/canonical view 2/img_n04379243_8_gray.jpg,Stimuli/canonical view 2/img_n02818832_3_gray.jpg,random,right,Experiments/experiment_34/364.jpg,Experiments/experiment_34/365.jpg,Experiments/experiment_34/366.jpg,Experiments/experiment_34/367.jpg,988,1,2023-06-28_13h38.00.368,Occlusion_Psychophysics,2022.1.4,Win32,59.88741167,,,left,"[""left""]",[0.8855000000000928],False,,0.0,0.0,91.0,91.0,91.0,1.0,,,,,,
,,,,,,,,,,,,,,,,,,,,,0.05,,,,,,,,,,Stimuli/psy_flexible_rotation_30_objects_occ0.7_0.9s/images/train/n02883344_15/n04256520_4/img_microwave_box_club_house_italia_nautilus_sofa_2003_gray.jpg,n02883344_15,n04256520_4,flexible,0.767738,n04405907_5,Stimuli/psy_flexible_rotation_30_objects_occ0.7_0.9s/images/train/n03928116_4/n04405907_5/img_dp_33_b_2013__vray_samsung_40_uhd_smart_tv_2011_2004-3_gray.png,random,flexible,n02883344_15,n02883344_0,Stimuli/canonical view 2/img_n02883344_15_gray.jpg,Stimuli/canonical view 2/img_n02883344_0_gray.jpg,random,left,Experiments/experiment_34/368.jpg,Experiments/experiment_34/369.jpg,Experiments/experiment_34/370.jpg,Experiments/experiment_34/371.jpg,988,1,2023-06-28_13h38.00.368,Occlusion_Psychophysics,2022.1.4,Win32,59.88741167,,,right,"[""right""]",[1.1401999999991403],False,,0.0,0.0,92.0,92.0,92.0,1.0,,,,,,
,,,,,,,,,,,,,,,,,,,,,0.05,,,,,,,,,,Stimuli/psy_flexible_rotation_30_objects_occ0.7_0.9s/images/train/n04256520_9/n02828884_3/img_napoleon_iii_sofa_b04_wood_metal_park_bench_2008_gray.jpg,n04256520_9,n02828884_3,flexible,0.752758,n02933112_-2,Stimuli/psy_flexible_rotation_30_objects_occ0.7_0.9s/images/train/n04256520_5/n02933112_-2/img_meridiani_belmondo_bench_sofa_sink_base_white_wood_2004-3_gray.png,random,flexible,n04256520_9,n04379243_0,Stimuli/canonical view 2/img_n04256520_9_gray.jpg,Stimuli/canonical view 2/img_n04379243_0_gray.jpg,random,left,Experiments/experiment_34/372.jpg,Experiments/experiment_34/373.jpg,Experiments/experiment_34/374.jpg,Experiments/experiment_34/375.jpg,988,1,2023-06-28_13h38.00.368,Occlusion_Psychophysics,2022.1.4,Win32,59.88741167,,,right,"[""right""]",[1.235599999999522],False,,0.0,0.0,93.0,93.0,93.0,1.0,,,,,,
,,,,,,,,,,,,,,,,,,,,,0.05,,,,,,,,,,Stimuli/psy_flexible_rotation_30_objects_occ0.7_0.9s/images/train/n04379243_0/n04405907_8/img_17th_c._monastery_dining_table_2010_stylized_tv_2003_gray.jpg,n04379243_0,n04405907_8,flexible,0.893862,n04256520_9,Stimuli/psy_flexible_rotation_30_objects_occ0.7_0.9s/images/train/n04405907_9/n04256520_9/img_vray_004_napoleon_iii_sofa_2007-3_gray.png,random,flexible,n04379243_0,n04405907_8,Stimuli/canonical view 2/img_n04379243_0_gray.jpg,Stimuli/canonical view 2/img_n04405907_8_gray.jpg,foreground,right,Experiments/experiment_34/376.jpg,Experiments/experiment_34/377.jpg,Experiments/experiment_34/378.jpg,Experiments/experiment_34/379.jpg,988,1,2023-06-28_13h38.00.368,Occlusion_Psychophysics,2022.1.4,Win32,59.88741167,,,left,"[""right""]",[1.0534999999999854],False,,0.0,0.0,94.0,94.0,94.0,1.0,,,,,,
,,,,,,,,,,,,,,,,,,,,,0.05,,,,,,,,,,Stimuli/psy_flexible_rotation_30_objects_occ0.7_0.9s/images/train/n04379243_-7/n02933112_-2/img_quatre_dining_table_sink_base_white_wood_2007_gray.jpg,n04379243_-7,n02933112_-2,flexible,0.71273,n02933112_-2,Stimuli/psy_flexible_rotation_30_objects_occ0.7_0.9s/images/train/n04379243_-7/n02933112_-2/img_quatre_dining_table_sink_base_white_wood_2007-3_gray.png,foreground,same as foreground,n04379243_-7,n02818832_9,Stimuli/canonical view 2/img_n04379243_-7_gray.jpg,Stimuli/canonical view 2/img_n02818832_9_gray.jpg,random,left,Experiments/experiment_34/380.jpg,Experiments/experiment_34/381.jpg,Experiments/experiment_34/382.jpg,Experiments/experiment_34/383.jpg,988,1,2023-06-28_13h38.00.368,Occlusion_Psychophysics,2022.1.4,Win32,59.88741167,,,left,"[""left""]",[0.9774000000004435],False,,0.0,0.0,95.0,95.0,95.0,1.0,,,,,,
,,,,,,,,,,,,,,,,,,,,,0.025,,,,,,,,,,Stimuli/psy_fixed_rotation_30_objects_occ0.7_0.9s/images/train/n02883344_-1/n02883344_15/img_woven_box_microwave_box_2000_gray.jpg,n02883344_-1,n02883344_15,fixed,0.737366,n02818832_3,Stimuli/psy_flexible_rotation_30_objects_occ0.7_0.9s/images/train/n02883344_-1/n02818832_3/img_woven_box_b05_ccm_contemporary_bed_max2013_2003-3_gray.png,random,flexible,n02883344_-1,n03928116_0,Stimuli/canonical view 2/img_n02883344_-1_gray.jpg,Stimuli/canonical view 2/img_n03928116_0_gray.jpg,random,right,Experiments/experiment_34/384.jpg,Experiments/experiment_34/385.jpg,Experiments/experiment_34/386.jpg,Experiments/experiment_34/387.jpg,988,1,2023-06-28_13h38.00.368,Occlusion_Psychophysics,2022.1.4,Win32,59.88741167,,,left,"[""right""]",[0.7355000000000018],False,,0.0,0.0,96.0,96.0,96.0,1.0,,,,,,
,,,,,,,,,,,,,,,,,,,,,0.05,,,,,,,,,,Stimuli/psy_flexible_rotation_30_objects_occ0.7_0.9s/images/train/n03001627_-2/n02883344_-1/img_wood_chair_woven_box_2009_gray.jpg,n03001627_-2,n02883344_-1,flexible,0.779078,n02883344_-1,Stimuli/psy_flexible_rotation_30_objects_occ0.7_0.9s/images/train/n03001627_-2/n02883344_-1/img_wood_chair_woven_box_2009-3_gray.png,foreground,same as foreground,n03001627_-2,n02818832_3,Stimuli/canonical view 2/img_n03001627_-2_gray.jpg,Stimuli/canonical view 2/img_n02818832_3_gray.jpg,random,left,Experiments/experiment_34/388.jpg,Experiments/experiment_34/389.jpg,Experiments/experiment_34/390.jpg,Experiments/experiment_34/391.jpg,988,1,2023-06-28_13h38.00.368,Occlusion_Psychophysics,2022.1.4,Win32,59.88741167,,,right,"[""left""]",[1.1098999999985608],False,,0.0,0.0,97.0,97.0,97.0,1.0,,,,,,
,,,,,,,,,,,,,,,,,,,,,0.025,,,,,,,,,,Stimuli/psy_flexible_rotation_30_objects_occ0.7_0.9s/images/train/n04256520_4/n02818832_0/img_club_house_italia_nautilus_sofa_b03_the_sofa_and_chair_company_-_stanley_bed_2014_2011_gray.jpg,n04256520_4,n02818832_0,flexible,0.720874,n04405907_9,Stimuli/psy_flexible_rotation_30_objects_occ0.7_0.9s/images/train/n04256520_4/n04405907_9/img_club_house_italia_nautilus_sofa_vray_004_2004-3_gray.png,random,flexible,n04256520_4,n02883344_0,Stimuli/canonical view 2/img_n04256520_4_gray.jpg,Stimuli/canonical view 2/img_n02883344_0_gray.jpg,random,left,Experiments/experiment_34/392.jpg,Experiments/experiment_34/393.jpg,Experiments/experiment_34/394.jpg,Experiments/experiment_34/395.jpg,988,1,2023-06-28_13h38.00.368,Occlusion_Psychophysics,2022.1.4,Win32,59.88741167,,,left,"[""right""]",[0.48679999999899337],True,,0.0,0.0,98.0,98.0,98.0,1.0,,,,,,
,,,,,,,,,,,,,,,,,,,,,0.025,,,,,,,,,,Stimuli/psy_flexible_rotation_30_objects_occ0.7_0.9s/images/train/n04256520_4/n04405907_9/img_club_house_italia_nautilus_sofa_vray_004_2006_gray.jpg,n04256520_4,n04405907_9,flexible,0.785817,n04405907_9,Stimuli/psy_flexible_rotation_30_objects_occ0.7_0.9s/images/train/n04256520_4/n04405907_9/img_club_house_italia_nautilus_sofa_vray_004_2006-3_gray.png,foreground,same as foreground,n04256520_4,n03928116_10,Stimuli/canonical view 2/img_n04256520_4_gray.jpg,Stimuli/canonical view 2/img_n03928116_10_gray.jpg,random,right,Experiments/experiment_34/396.jpg,Experiments/experiment_34/397.jpg,Experiments/experiment_34/398.jpg,Experiments/experiment_34/399.jpg,988,1,2023-06-28_13h38.00.368,Occlusion_Psychophysics,2022.1.4,Win32,59.88741167,,,left,"[""left""]",[0.992699999999104],False,,0.0,0.0,99.0,99.0,99.0,1.0,,,,,,
,,,,,,,,,,,,,,,,,,,,,,,,,,,,,,,,,,,,,,,,,,,,,,,,,,988,1,2023-06-28_13h38.00.368,Occlusion_Psychophysics,2022.1.4,Win32,59.88741167,,,,,,,,,,,,,,0.0,0.0,0.0,0.0,1.0,
,,,,,,,,,,,,,,,,,,,,,0.025,,,,,,,,,,Stimuli/psy_fixed_rotation_30_objects_occ0.7_0.9s/images/train/n02828884_3/n02933112_-18/img_b04_wood_metal_park_bench_cgaxis_models_48_26_vray_composite_2003_gray.jpg,n02828884_3,n02933112_-18,fixed,0.776795,n02933112_-18,Stimuli/psy_fixed_rotation_30_objects_occ0.7_0.9s/images/train/n02828884_3/n02933112_-18/img_b04_wood_metal_park_bench_cgaxis_models_48_26_vray_composite_2003-3_gray.png,foreground,same as foreground,n02828884_3,n02933112_-18,Stimuli/canonical view 2/img_n02828884_3_gray.jpg,Stimuli/canonical view 2/img_n02933112_-18_gray.jpg,foreground,right,Experiments/experiment_34/400.jpg,Experiments/experiment_34/401.jpg,Experiments/experiment_34/402.jpg,Experiments/experiment_34/403.jpg,988,1,2023-06-28_13h38.00.368,Occlusion_Psychophysics,2022.1.4,Win32,59.88741167,,,right,"[""right""]",[0.6911999999992986],False,,0.0,0.0,0.0,0.0,0.0,1.0,,,,,,
,,,,,,,,,,,,,,,,,,,,,0.05,,,,,,,,,,Stimuli/psy_flexible_rotation_30_objects_occ0.7_0.9s/images/train/n03928116_10/n02933112_4/img_ydp_103_r_2012__vray_buffet_2012_gray.jpg,n03928116_10,n02933112_4,flexible,0.730505,n02933112_4,Stimuli/psy_flexible_rotation_30_objects_occ0.7_0.9s/images/train/n03928116_10/n02933112_4/img_ydp_103_r_2012__vray_buffet_2012-3_gray.png,foreground,same as foreground,n03928116_10,n02818832_0,Stimuli/canonical view 2/img_n03928116_10_gray.jpg,Stimuli/canonical view 2/img_n02818832_0_gray.jpg,random,left,Experiments/experiment_34/404.jpg,Experiments/experiment_34/405.jpg,Experiments/experiment_34/406.jpg,Experiments/experiment_34/407.jpg,988,1,2023-06-28_13h38.00.368,Occlusion_Psychophysics,2022.1.4,Win32,59.88741167,,,right,"[""left""]",[1.1212000000009539],False,,0.0,0.0,1.0,1.0,1.0,1.0,,,,,,
,,,,,,,,,,,,,,,,,,,,,0.025,,,,,,,,,,Stimuli/psy_flexible_rotation_30_objects_occ0.7_0.9s/images/train/n04405907_8/n02818832_3/img_stylized_tv_b05_ccm_contemporary_bed_max2013_2012_gray.jpg,n04405907_8,n02818832_3,flexible,0.811747,n02883344_-1,Stimuli/psy_flexible_rotation_30_objects_occ0.7_0.9s/images/train/n02883344_-1/n02883344_-1/img_woven_box_woven_box_2007-3_gray.png,random,flexible,n04405907_8,n02818832_3,Stimuli/canonical view 2/img_n04405907_8_gray.jpg,Stimuli/canonical view 2/img_n02818832_3_gray.jpg,foreground,right,Experiments/experiment_34/408.jpg,Experiments/experiment_34/409.jpg,Experiments/experiment_34/410.jpg,Experiments/experiment_34/411.jpg,988,1,2023-06-28_13h38.00.368,Occlusion_Psychophysics,2022.1.4,Win32,59.88741167,,,left,"[""right""]",[0.8618000000008124],False,,0.0,0.0,2.0,2.0,2.0,1.0,,,,,,
,,,,,,,,,,,,,,,,,,,,,0.05,,,,,,,,,,Stimuli/psy_flexible_rotation_30_objects_occ0.7_0.9s/images/train/n04256520_4/n04405907_9/img_club_house_italia_nautilus_sofa_vray_004_2007_gray.jpg,n04256520_4,n04405907_9,flexible,0.708075,n04405907_9,Stimuli/psy_flexible_rotation_30_objects_occ0.7_0.9s/images/train/n04256520_4/n04405907_9/img_club_house_italia_nautilus_sofa_vray_004_2007-3_gray.png,foreground,same as foreground,n04256520_4,n04405907_9,Stimuli/canonical view 2/img_n04256520_4_gray.jpg,Stimuli/canonical view 2/img_n04405907_9_gray.jpg,foreground,right,Experiments/experiment_34/412.jpg,Experiments/experiment_34/413.jpg,Experiments/experiment_34/414.jpg,Experiments/experiment_34/415.jpg,988,1,2023-06-28_13h38.00.368,Occlusion_Psychophysics,2022.1.4,Win32,59.88741167,,,left,"[""left""]",[1.2077000000010685],False,,0.0,0.0,3.0,3.0,3.0,1.0,,,,,,
,,,,,,,,,,,,,,,,,,,,,0.025,,,,,,,,,,Stimuli/psy_flexible_rotation_30_objects_occ0.7_0.9s/images/train/n02883344_-1/n03928116_4/img_woven_box_dp_33_b_2013__vray_2008_gray.jpg,n02883344_-1,n03928116_4,flexible,0.721351,n03928116_4,Stimuli/psy_flexible_rotation_30_objects_occ0.7_0.9s/images/train/n02883344_-1/n03928116_4/img_woven_box_dp_33_b_2013__vray_2008-3_gray.png,foreground,same as foreground,n02883344_-1,n03928116_4,Stimuli/canonical view 2/img_n02883344_-1_gray.jpg,Stimuli/canonical view 2/img_n03928116_4_gray.jpg,foreground,left,Experiments/experiment_34/416.jpg,Experiments/experiment_34/417.jpg,Experiments/experiment_34/418.jpg,Experiments/experiment_34/419.jpg,988,1,2023-06-28_13h38.00.368,Occlusion_Psychophysics,2022.1.4,Win32,59.88741167,,,right,"[""right""]",[0.8845999999996366],False,,0.0,0.0,4.0,4.0,4.0,1.0,,,,,,
,,,,,,,,,,,,,,,,,,,,,0.025,,,,,,,,,,Stimuli/psy_flexible_rotation_30_objects_occ0.7_0.9s/images/train/n02828884_4/n04256520_9/img_b05_c-5_classic_series_bench-2012_napoleon_iii_sofa_2004_gray.jpg,n02828884_4,n04256520_9,flexible,0.730486,n03001627_8,Stimuli/psy_fixed_rotation_30_objects_occ0.7_0.9s/images/train/n03928116_0/n03001627_8/img_b02_piano_chair_billiani_doll_2014-3_gray.png,random,fixed,n02828884_4,n04256520_9,Stimuli/canonical view 2/img_n02828884_4_gray.jpg,Stimuli/canonical view 2/img_n04256520_9_gray.jpg,foreground,right,Experiments/experiment_34/420.jpg,Experiments/experiment_34/421.jpg,Experiments/experiment_34/422.jpg,Experiments/experiment_34/423.jpg,988,1,2023-06-28_13h38.00.368,Occlusion_Psychophysics,2022.1.4,Win32,59.88741167,,,right,"[""left""]",[1.7882999999987987],False,,0.0,0.0,5.0,5.0,5.0,1.0,,,,,,
,,,,,,,,,,,,,,,,,,,,,0.025,,,,,,,,,,Stimuli/psy_fixed_rotation_30_objects_occ0.7_0.9s/images/train/n02818832_0/n02933112_4/img_b03_the_sofa_and_chair_company_-_stanley_bed_2014_buffet_2007_gray.jpg,n02818832_0,n02933112_4,fixed,0.723012,n02883344_15,Stimuli/psy_flexible_rotation_30_objects_occ0.7_0.9s/images/train/n02818832_9/n02883344_15/img_bed01_blue_microwave_box_2009-3_gray.png,random,flexible,n02818832_0,n02933112_4,Stimuli/canonical view 2/img_n02818832_0_gray.jpg,Stimuli/canonical view 2/img_n02933112_4_gray.jpg,foreground,left,Experiments/experiment_34/424.jpg,Experiments/experiment_34/425.jpg,Experiments/experiment_34/426.jpg,Experiments/experiment_34/427.jpg,988,1,2023-06-28_13h38.00.368,Occlusion_Psychophysics,2022.1.4,Win32,59.88741167,,,left,"[""right""]",[1.304199999999355],False,,0.0,0.0,6.0,6.0,6.0,1.0,,,,,,
,,,,,,,,,,,,,,,,,,,,,0.025,,,,,,,,,,Stimuli/psy_fixed_rotation_30_objects_occ0.7_0.9s/images/train/n04405907_9/n02883344_15/img_vray_004_microwave_box_2009_gray.jpg,n04405907_9,n02883344_15,fixed,0.739925,n02883344_15,Stimuli/psy_fixed_rotation_30_objects_occ0.7_0.9s/images/train/n04405907_9/n02883344_15/img_vray_004_microwave_box_2009-3_gray.png,foreground,same as foreground,n04405907_9,n02883344_15,Stimuli/canonical view 2/img_n04405907_9_gray.jpg,Stimuli/canonical view 2/img_n02883344_15_gray.jpg,foreground,left,Experiments/experiment_34/428.jpg,Experiments/experiment_34/429.jpg,Experiments/experiment_34/430.jpg,Experiments/experiment_34/431.jpg,988,1,2023-06-28_13h38.00.368,Occlusion_Psychophysics,2022.1.4,Win32,59.88741167,,,left,"[""left""]",[0.8584000000003016],False,,0.0,0.0,7.0,7.0,7.0,1.0,,,,,,
,,,,,,,,,,,,,,,,,,,,,0.025,,,,,,,,,,Stimuli/psy_flexible_rotation_30_objects_occ0.7_0.9s/images/train/n04379243_0/n02883344_15/img_17th_c._monastery_dining_table_2010_microwave_box_2005_gray.jpg,n04379243_0,n02883344_15,flexible,0.74807,n02883344_15,Stimuli/psy_flexible_rotation_30_objects_occ0.7_0.9s/images/train/n04379243_0/n02883344_15/img_17th_c._monastery_dining_table_2010_microwave_box_2005-3_gray.png,foreground,same as foreground,n04379243_0,n02883344_15,Stimuli/canonical view 2/img_n04379243_0_gray.jpg,Stimuli/canonical view 2/img_n02883344_15_gray.jpg,foreground,left,Experiments/experiment_34/432.jpg,Experiments/experiment_34/433.jpg,Experiments/experiment_34/434.jpg,Experiments/experiment_34/435.jpg,988,1,2023-06-28_13h38.00.368,Occlusion_Psychophysics,2022.1.4,Win32,59.88741167,,,right,"[""right""]",[0.7587000000009994],False,,0.0,0.0,8.0,8.0,8.0,1.0,,,,,,
,,,,,,,,,,,,,,,,,,,,,0.025,,,,,,,,,,Stimuli/psy_flexible_rotation_30_objects_occ0.7_0.9s/images/train/n03928116_10/n02883344_-1/img_ydp_103_r_2012__vray_woven_box_2002_gray.jpg,n03928116_10,n02883344_-1,flexible,0.723286,n02883344_-1,Stimuli/psy_flexible_rotation_30_objects_occ0.7_0.9s/images/train/n03928116_10/n02883344_-1/img_ydp_103_r_2012__vray_woven_box_2002-3_gray.png,foreground,same as foreground,n03928116_10,n02883344_0,Stimuli/canonical view 2/img_n03928116_10_gray.jpg,Stimuli/canonical view 2/img_n02883344_0_gray.jpg,random,left,Experiments/experiment_34/436.jpg,Experiments/experiment_34/437.jpg,Experiments/experiment_34/438.jpg,Experiments/experiment_34/439.jpg,988,1,2023-06-28_13h38.00.368,Occlusion_Psychophysics,2022.1.4,Win32,59.88741167,,,left,"[""left""]",[0.788800000000947],False,,0.0,0.0,9.0,9.0,9.0,1.0,,,,,,
,,,,,,,,,,,,,,,,,,,,,0.05,,,,,,,,,,Stimuli/psy_flexible_rotation_30_objects_occ0.7_0.9s/images/train/n03928116_4/n02818832_0/img_dp_33_b_2013__vray_b03_the_sofa_and_chair_company_-_stanley_bed_2014_2002_gray.jpg,n03928116_4,n02818832_0,flexible,0.754531,n02818832_0,Stimuli/psy_flexible_rotation_30_objects_occ0.7_0.9s/images/train/n03928116_4/n02818832_0/img_dp_33_b_2013__vray_b03_the_sofa_and_chair_company_-_stanley_bed_2014_2002-3_gray.png,foreground,same as foreground,n03928116_4,n04405907_5,Stimuli/canonical view 2/img_n03928116_4_gray.jpg,Stimuli/canonical view 2/img_n04405907_5_gray.jpg,random,right,Experiments/experiment_34/440.jpg,Experiments/experiment_34/441.jpg,Experiments/experiment_34/442.jpg,Experiments/experiment_34/443.jpg,988,1,2023-06-28_13h38.00.368,Occlusion_Psychophysics,2022.1.4,Win32,59.88741167,,,left,"[""left""]",[0.8879000000001724],False,,0.0,0.0,10.0,10.0,10.0,1.0,,,,,,
,,,,,,,,,,,,,,,,,,,,,0.05,,,,,,,,,,Stimuli/psy_flexible_rotation_30_objects_occ0.7_0.9s/images/train/n04405907_5/n04256520_4/img_samsung_40_uhd_smart_tv_2011_club_house_italia_nautilus_sofa_2014_gray.jpg,n04405907_5,n04256520_4,flexible,0.847471,n04405907_8,Stimuli/psy_fixed_rotation_30_objects_occ0.7_0.9s/images/train/n04070727_5/n04405907_8/img_b05_db_apps_tech_06_13_composite_stylized_tv_2015-3_gray.png,random,fixed,n04405907_5,n02828884_3,Stimuli/canonical view 2/img_n04405907_5_gray.jpg,Stimuli/canonical view 2/img_n02828884_3_gray.jpg,random,left,Experiments/experiment_34/444.jpg,Experiments/experiment_34/445.jpg,Experiments/experiment_34/446.jpg,Experiments/experiment_34/447.jpg,988,1,2023-06-28_13h38.00.368,Occlusion_Psychophysics,2022.1.4,Win32,59.88741167,,,left,"[""left""]",[1.7639999999998963],False,,0.0,0.0,11.0,11.0,11.0,1.0,,,,,,
